Channel1	Channel2	Channel3	Channel4	Channel5	Channel6	Channel7	Channel8	FilteredChannel1	FilteredChannel2	FilteredChannel3	FilteredChannel4	FilteredChannel5	FilteredChannel6	FilteredChannel7	FilteredChannel8	GyroX	GyroY	GyroZ	AccX	AccY	AccZ	PPG1	PPG2	rawPPG1	rawPPG2	rawPPG3	Hr	Hrv	Battery	Trigger	PhysicalTrigger	AutoTrigger	NumMeasurements	Timestamp
-20312.055000	-28136.205000	-26930.520000	-14543.820000	0.000000	0.000000	0.000000	0.000000	-4.273348	15.439168	-5.616216	-9.303987	0.000000	0.000000	-0.000000	-0.000000	3.372460	0.106820	-0.030520	-0.003052	0.981870	-0.029175	-1.000000	-1.000000	-1.000000	-1.000000	-1.000000	-1.000000	-1.000000	146.620690	0.000000	-1.000000	-1.000000	497281.000000	1772311654.063504
-20335.410000	-28173.780000	-26952.660000	-14567.220000	0.000000	0.000000	0.000000	0.000000	2.526311	15.641899	1.805355	-1.867556	0.000000	0.000000	-0.000000	-0.000000	3.372460	0.106820	-0.030520	-0.003052	0.981870	-0.029175	-1.000000	-1.000000	-1.000000	-1.000000	-1.000000	-1.000000	-1.000000	146.620690	0.000000	-1.000000	-1.000000	497282.000000	1772311654.063508
-20353.500000	-28175.175000	-26969.355000	-14580.765000	0.000000	0.000000	0.000000	0.000000	6.355530	6.507444	5.994363	3.369562	0.000000	0.000000	-0.000000	-0.000000	3.372460	0.106820	-0.030520	-0.003052	0.981870	-0.029175	-1.000000	-1.000000	-1.000000	-1.000000	-1.000000	-1.000000	-1.000000	146.620690	0.000000	-1.000000	-1.000000	497283.000000	1772311654.065417
-20332.665000	-28162.485000	-26949.285000	-14561.190000	0.000000	0.000000	0.000000	0.000000	3.861342	-5.558080	3.795026	2.920125	0.000000	0.000000	-0.000000	-0.000000	3.372460	0.106820	-0.030520	-0.003052	0.981870	-0.029175	-1.000000	-1.000000	-1.000000	-1.000000	-1.000000	-1.000000	-1.000000	146.620690	0.000000	-1.000000	-1.000000	497284.000000	1772311654.065420
-20351.070000	-28117.035000	-26969.265000	-14578.920000	0.000000	0.000000	0.000000	0.000000	-1.580734	-10.783910	-1.289928	-0.234391	0.000000	0.000000	-0.000000	-0.000000	3.067260	0.305200	-0.213640	-0.002563	0.982053	-0.030090	-1.000000	-1.000000	-1.000000	-1.000000	-1.000000	-1.000000	-1.000000	146.620690	0.000000	-1.000000	-1.000000	497285.000000	1772311654.069436
-20369.430000	-28069.605000	-26988.480000	-14592.240000	0.000000	0.000000	0.000000	0.000000	-5.503541	-3.774486	-5.014670	-2.454911	0.000000	0.000000	-0.000000	-0.000000	3.067260	0.305200	-0.213640	-0.002563	0.982053	-0.030090	-1.000000	-1.000000	-1.000000	-1.000000	-1.000000	-1.000000	-1.000000	146.620690	0.000000	-1.000000	-1.000000	497286.000000	1772311654.069462
-20353.590000	-28073.340000	-26974.665000	-14575.455000	0.000000	0.000000	0.000000	0.000000	-6.562334	10.944918	-6.190904	-2.846475	0.000000	0.000000	-0.000000	-0.000000	3.067260	0.305200	-0.213640	-0.002563	0.982053	-0.030090	-1.000000	-1.000000	-1.000000	-1.000000	-1.000000	-1.000000	-1.000000	146.620690	0.000000	-1.000000	-1.000000	497287.000000	1772311654.073530
-20349.315000	-28075.275000	-26968.320000	-14572.440000	0.000000	0.000000	0.000000	0.000000	-4.089818	21.084358	-3.998494	-0.833216	0.000000	0.000000	-0.000000	-0.000000	3.067260	0.305200	-0.213640	-0.002563	0.982053	-0.030090	-1.000000	-1.000000	-1.000000	-1.000000	-1.000000	-1.000000	-1.000000	146.620690	0.000000	-1.000000	-1.000000	497288.000000	1772311654.073534
-20353.095000	-28050.345000	-26973.180000	-14591.295000	0.000000	0.000000	0.000000	0.000000	1.530404	17.739109	1.511446	2.974598	0.000000	0.000000	-0.000000	-0.000000	3.067260	0.305200	-0.213640	-0.002563	0.982053	-0.030090	-1.000000	-1.000000	-1.000000	-1.000000	-1.000000	-1.000000	-1.000000	146.620690	0.000000	-1.000000	-1.000000	497289.000000	1772311654.077419
-20353.860000	-28020.330000	-26975.430000	-14600.205000	0.000000	0.000000	0.000000	0.000000	7.063296	4.129904	7.198747	5.275459	0.000000	0.000000	-0.000000	-0.000000	3.067260	0.305200	-0.213640	-0.002563	0.982053	-0.030090	-1.000000	-1.000000	-1.000000	-1.000000	-1.000000	-1.000000	-1.000000	146.620690	0.000000	-1.000000	-1.000000	497290.000000	1772311654.077422
-20345.535000	-28001.745000	-26965.575000	-14576.040000	0.000000	0.000000	0.000000	0.000000	9.249051	-9.405171	9.580313	4.317773	0.000000	0.000000	-0.000000	-0.000000	3.067260	0.305200	-0.213640	-0.002563	0.982053	-0.030090	-1.000000	-1.000000	-1.000000	-1.000000	-1.000000	-1.000000	-1.000000	146.620690	0.000000	-1.000000	-1.000000	497291.000000	1772311654.081531
-20339.145000	-27990.855000	-26960.580000	-14567.760000	0.000000	0.000000	0.000000	0.000000	7.805065	-16.043307	8.215997	2.698898	0.000000	0.000000	-0.000000	-0.000000	3.067260	0.305200	-0.213640	-0.002563	0.982053	-0.030090	-1.000000	-1.000000	-1.000000	-1.000000	-1.000000	-1.000000	-1.000000	146.620690	0.000000	-1.000000	-1.000000	497292.000000	1772311654.081534
-20347.065000	-28021.095000	-26970.885000	-14582.655000	0.000000	0.000000	0.000000	0.000000	4.249821	-16.590731	4.559178	2.620429	0.000000	0.000000	-0.000000	-0.000000	3.067260	0.305200	-0.213640	-0.002563	0.982053	-0.030090	-1.000000	-1.000000	-1.000000	-1.000000	-1.000000	-1.000000	-1.000000	146.620690	0.000000	-1.000000	-1.000000	497293.000000	1772311654.085440
-20350.305000	-28023.345000	-26973.495000	-14582.700000	0.000000	0.000000	0.000000	0.000000	-0.314589	-15.712958	-0.331105	2.334855	0.000000	0.000000	-0.000000	-0.000000	3.067260	0.305200	-0.213640	-0.002563	0.982053	-0.030090	-1.000000	-1.000000	-1.000000	-1.000000	-1.000000	-1.000000	-1.000000	146.620690	0.000000	-1.000000	-1.000000	497294.000000	1772311654.085442
-20354.895000	-28048.230000	-26976.015000	-14582.070000	0.000000	0.000000	0.000000	0.000000	-4.966538	-15.592702	-5.295075	-0.041819	0.000000	0.000000	-0.000000	-0.000000	2.670500	0.457800	-0.717220	-0.001099	0.988340	-0.030029	-1.000000	-1.000000	-1.000000	-1.000000	-1.000000	-1.000000	-1.000000	146.620690	0.000000	-1.000000	-1.000000	497295.000000	1772311654.089484
-20357.190000	-28078.920000	-26977.455000	-14581.665000	0.000000	0.000000	0.000000	0.000000	-8.180840	-14.829921	-8.427586	-3.342700	0.000000	0.000000	-0.000000	-0.000000	2.670500	0.457800	-0.717220	-0.001099	0.988340	-0.030029	-1.000000	-1.000000	-1.000000	-1.000000	-1.000000	-1.000000	-1.000000	146.620690	0.000000	-1.000000	-1.000000	497296.000000	1772311654.089488
-20352.375000	-28089.990000	-26969.715000	-14568.930000	0.000000	0.000000	0.000000	0.000000	-8.482329	-11.549678	-8.215056	-5.089614	0.000000	0.000000	-0.000000	-0.000000	2.670500	0.457800	-0.717220	-0.001099	0.988340	-0.030029	-1.000000	-1.000000	-1.000000	-1.000000	-1.000000	-1.000000	-1.000000	146.620690	0.000000	-1.000000	-1.000000	497297.000000	1772311654.095579
-20352.240000	-28071.180000	-26967.150000	-14568.030000	0.000000	0.000000	0.000000	0.000000	-5.506900	-4.013898	-4.611481	-3.940277	0.000000	0.000000	-0.000000	-0.000000	2.670500	0.457800	-0.717220	-0.001099	0.988340	-0.030029	-1.000000	-1.000000	-1.000000	-1.000000	-1.000000	-1.000000	-1.000000	146.620690	0.000000	-1.000000	-1.000000	497298.000000	1772311654.095581
-20355.030000	-28035.450000	-26974.890000	-14582.655000	0.000000	0.000000	0.000000	0.000000	-0.661362	9.028550	0.473489	-1.141112	0.000000	0.000000	-0.000000	-0.000000	2.670500	0.457800	-0.717220	-0.001099	0.988340	-0.030029	-1.000000	-1.000000	-1.000000	-1.000000	-1.000000	-1.000000	-1.000000	146.620690	0.000000	-1.000000	-1.000000	497299.000000	1772311654.097530
-20346.660000	-28068.390000	-26971.830000	-14585.670000	0.000000	0.000000	0.000000	0.000000	3.699593	24.277480	4.109630	0.387192	0.000000	0.000000	-0.000000	-0.000000	2.670500	0.457800	-0.717220	-0.001099	0.988340	-0.030029	-1.000000	-1.000000	-1.000000	-1.000000	-1.000000	-1.000000	-1.000000	146.620690	0.000000	-1.000000	-1.000000	497300.000000	1772311654.097534
-20348.190000	-28054.440000	-26969.580000	-14581.215000	0.000000	0.000000	0.000000	0.000000	6.057803	32.917863	4.870377	-0.388846	0.000000	0.000000	-0.000000	-0.000000	2.670500	0.457800	-0.717220	-0.001099	0.988340	-0.030029	-1.000000	-1.000000	-1.000000	-1.000000	-1.000000	-1.000000	-1.000000	146.620690	0.000000	-1.000000	-1.000000	497301.000000	1772311654.103762
-20348.370000	-28020.690000	-26970.930000	-14583.465000	0.000000	0.000000	0.000000	0.000000	6.022859	29.555523	3.550109	-1.596963	0.000000	0.000000	-0.000000	-0.000000	2.670500	0.457800	-0.717220	-0.001099	0.988340	-0.030029	-1.000000	-1.000000	-1.000000	-1.000000	-1.000000	-1.000000	-1.000000	146.620690	0.000000	-1.000000	-1.000000	497302.000000	1772311654.103765
-20349.405000	-28021.905000	-26971.965000	-14581.845000	0.000000	0.000000	0.000000	0.000000	3.859025	17.863509	1.478867	-1.374530	0.000000	0.000000	-0.000000	-0.000000	2.670500	0.457800	-0.717220	-0.001099	0.988340	-0.030029	-1.000000	-1.000000	-1.000000	-1.000000	-1.000000	-1.000000	-1.000000	146.620690	0.000000	-1.000000	-1.000000	497303.000000	1772311654.105523
-20354.040000	-28033.290000	-26976.870000	-14586.885000	0.000000	0.000000	0.000000	0.000000	0.503156	3.639740	-0.554256	0.194216	0.000000	0.000000	-0.000000	-0.000000	2.670500	0.457800	-0.717220	-0.001099	0.988340	-0.030029	-1.000000	-1.000000	-1.000000	-1.000000	-1.000000	-1.000000	-1.000000	146.620690	0.000000	-1.000000	-1.000000	497304.000000	1772311654.105525
-20356.695000	-28017.180000	-26977.455000	-14589.045000	0.000000	0.000000	0.000000	0.000000	-2.760554	-9.835585	-2.132125	1.783934	0.000000	0.000000	-0.000000	-0.000000	1.754900	0.244160	0.015260	-0.001038	0.975339	-0.029968	-1.000000	-1.000000	-1.000000	-1.000000	-1.000000	-1.000000	-1.000000	146.620690	0.000000	-1.000000	-1.000000	497305.000000	1772311654.109627
-20356.515000	-27972.090000	-26977.050000	-14586.120000	0.000000	0.000000	0.000000	0.000000	-4.738314	-18.461585	-2.821279	2.406792	0.000000	0.000000	-0.000000	-0.000000	1.754900	0.244160	0.015260	-0.001038	0.975339	-0.029968	-1.000000	-1.000000	-1.000000	-1.000000	-1.000000	-1.000000	-1.000000	146.620690	0.000000	-1.000000	-1.000000	497306.000000	1772311654.109637
-20349.180000	-27961.740000	-26967.645000	-14575.050000	0.000000	0.000000	0.000000	0.000000	-4.525689	-18.092888	-2.109954	2.405224	0.000000	0.000000	-0.000000	-0.000000	1.754900	0.244160	0.015260	-0.001038	0.975339	-0.029968	-1.000000	-1.000000	-1.000000	-1.000000	-1.000000	-1.000000	-1.000000	146.620690	0.000000	-1.000000	-1.000000	497307.000000	1772311654.117574
-20350.035000	-27960.390000	-26967.510000	-14574.105000	0.000000	0.000000	0.000000	0.000000	-2.075371	-10.525795	0.027633	2.656879	0.000000	0.000000	-0.000000	-0.000000	1.754900	0.244160	0.015260	-0.001038	0.975339	-0.029968	-1.000000	-1.000000	-1.000000	-1.000000	-1.000000	-1.000000	-1.000000	146.620690	0.000000	-1.000000	-1.000000	497308.000000	1772311654.117577
-20357.055000	-27931.365000	-26977.230000	-14587.515000	0.000000	0.000000	0.000000	0.000000	1.113240	-2.478215	2.277170	2.716059	0.000000	0.000000	-0.000000	-0.000000	1.754900	0.244160	0.015260	-0.001038	0.975339	-0.029968	-1.000000	-1.000000	-1.000000	-1.000000	-1.000000	-1.000000	-1.000000	146.620690	0.000000	-1.000000	-1.000000	497309.000000	1772311654.117581
-20354.670000	-27946.035000	-26976.015000	-14585.040000	0.000000	0.000000	0.000000	0.000000	2.906149	1.352886	2.710796	1.153522	0.000000	0.000000	-0.000000	-0.000000	1.754900	0.244160	0.015260	-0.001038	0.975339	-0.029968	-1.000000	-1.000000	-1.000000	-1.000000	-1.000000	-1.000000	-1.000000	146.620690	0.000000	-1.000000	-1.000000	497310.000000	1772311654.117584
-20352.015000	-27956.880000	-26974.170000	-14578.065000	0.000000	0.000000	0.000000	0.000000	2.690681	-0.151694	1.097503	-1.693852	0.000000	0.000000	-0.000000	-0.000000	1.754900	0.244160	0.015260	-0.001038	0.975339	-0.029968	-1.000000	-1.000000	-1.000000	-1.000000	-1.000000	-1.000000	-1.000000	146.620690	0.000000	-1.000000	-1.000000	497311.000000	1772311654.121645
-20343.780000	-27989.595000	-26967.240000	-14573.340000	0.000000	0.000000	0.000000	0.000000	1.695390	-6.094100	-0.748103	-3.476004	0.000000	0.000000	-0.000000	-0.000000	1.754900	0.244160	0.015260	-0.001038	0.975339	-0.029968	-1.000000	-1.000000	-1.000000	-1.000000	-1.000000	-1.000000	-1.000000	146.620690	0.000000	-1.000000	-1.000000	497312.000000	1772311654.121647
-20344.590000	-27972.405000	-26967.240000	-14574.195000	0.000000	0.000000	0.000000	0.000000	1.173719	-12.726369	-1.170643	-2.854476	0.000000	0.000000	-0.000000	-0.000000	1.754900	0.244160	0.015260	-0.001038	0.975339	-0.029968	-1.000000	-1.000000	-1.000000	-1.000000	-1.000000	-1.000000	-1.000000	146.620690	0.000000	-1.000000	-1.000000	497313.000000	1772311654.128171
-20349.675000	-27945.270000	-26972.415000	-14578.560000	0.000000	0.000000	0.000000	0.000000	0.949987	-13.554919	-0.384933	-0.970525	0.000000	0.000000	-0.000000	-0.000000	1.754900	0.244160	0.015260	-0.001038	0.975339	-0.029968	-1.000000	-1.000000	-1.000000	-1.000000	-1.000000	-1.000000	-1.000000	146.620690	0.000000	-1.000000	-1.000000	497314.000000	1772311654.128174
-20347.245000	-27939.780000	-26971.740000	-14579.640000	0.000000	0.000000	0.000000	0.000000	0.084751	-4.654970	0.176982	0.212999	0.000000	0.000000	-0.000000	-0.000000	3.189340	1.281840	-0.213640	-0.001038	0.989194	-0.027405	-1.000000	-1.000000	-1.000000	-1.000000	-1.000000	-1.000000	-1.000000	146.620690	0.000000	-1.000000	-1.000000	497315.000000	1772311654.129609
-20341.530000	-27975.285000	-26967.375000	-14577.165000	0.000000	0.000000	0.000000	0.000000	-1.303285	8.994012	-0.097405	0.064562	0.000000	0.000000	-0.000000	-0.000000	3.189340	1.281840	-0.213640	-0.001038	0.989194	-0.027405	-1.000000	-1.000000	-1.000000	-1.000000	-1.000000	-1.000000	-1.000000	146.620690	0.000000	-1.000000	-1.000000	497316.000000	1772311654.129611
-20333.475000	-28034.145000	-26958.420000	-14565.600000	0.000000	0.000000	0.000000	0.000000	-1.926676	16.000005	-0.354915	-0.321288	0.000000	0.000000	-0.000000	-0.000000	3.189340	1.281840	-0.213640	-0.001038	0.989194	-0.027405	-1.000000	-1.000000	-1.000000	-1.000000	-1.000000	-1.000000	-1.000000	146.620690	0.000000	-1.000000	-1.000000	497317.000000	1772311654.133627
-20346.075000	-28004.400000	-26970.525000	-14572.980000	0.000000	0.000000	0.000000	0.000000	-1.315203	10.678129	0.039880	0.195721	0.000000	0.000000	-0.000000	-0.000000	3.189340	1.281840	-0.213640	-0.001038	0.989194	-0.027405	-1.000000	-1.000000	-1.000000	-1.000000	-1.000000	-1.000000	-1.000000	146.620690	0.000000	-1.000000	-1.000000	497318.000000	1772311654.133630
-20349.135000	-27939.555000	-26976.465000	-14578.155000	0.000000	0.000000	0.000000	0.000000	-0.778798	1.559834	0.133329	0.989894	0.000000	0.000000	-0.000000	-0.000000	3.189340	1.281840	-0.213640	-0.001038	0.989194	-0.027405	-1.000000	-1.000000	-1.000000	-1.000000	-1.000000	-1.000000	-1.000000	146.620690	0.000000	-1.000000	-1.000000	497319.000000	1772311654.137672
-20337.750000	-27943.515000	-26964.315000	-14565.915000	0.000000	0.000000	0.000000	0.000000	-1.178312	1.301751	-0.803903	0.889081	0.000000	0.000000	-0.000000	-0.000000	3.189340	1.281840	-0.213640	-0.001038	0.989194	-0.027405	-1.000000	-1.000000	-1.000000	-1.000000	-1.000000	-1.000000	-1.000000	146.620690	0.000000	-1.000000	-1.000000	497320.000000	1772311654.137676
-20344.365000	-27948.195000	-26966.880000	-14565.510000	0.000000	0.000000	0.000000	0.000000	-1.452642	9.521713	-1.526022	0.355325	0.000000	0.000000	-0.000000	-0.000000	3.189340	1.281840	-0.213640	-0.001038	0.989194	-0.027405	-1.000000	-1.000000	-1.000000	-1.000000	-1.000000	-1.000000	-1.000000	146.620690	0.000000	-1.000000	-1.000000	497321.000000	1772311654.141682
-20349.270000	-27945.990000	-26967.060000	-14562.180000	0.000000	0.000000	0.000000	0.000000	-0.889918	14.933937	-0.906252	0.353192	0.000000	0.000000	-0.000000	-0.000000	3.189340	1.281840	-0.213640	-0.001038	0.989194	-0.027405	-1.000000	-1.000000	-1.000000	-1.000000	-1.000000	-1.000000	-1.000000	146.620690	0.000000	-1.000000	-1.000000	497322.000000	1772311654.141685
-20345.400000	-27976.770000	-26963.865000	-14566.095000	0.000000	0.000000	0.000000	0.000000	-0.133279	9.998110	0.451947	0.608313	0.000000	0.000000	-0.000000	-0.000000	3.189340	1.281840	-0.213640	-0.001038	0.989194	-0.027405	-1.000000	-1.000000	-1.000000	-1.000000	-1.000000	-1.000000	-1.000000	146.620690	0.000000	-1.000000	-1.000000	497323.000000	1772311654.145635
-20345.490000	-28000.800000	-26964.180000	-14569.020000	0.000000	0.000000	0.000000	0.000000	0.502613	-3.909719	1.529015	0.219362	0.000000	0.000000	-0.000000	-0.000000	3.189340	1.281840	-0.213640	-0.001038	0.989194	-0.027405	-1.000000	-1.000000	-1.000000	-1.000000	-1.000000	-1.000000	-1.000000	146.620690	0.000000	-1.000000	-1.000000	497324.000000	1772311654.145638
-20337.795000	-27998.550000	-26965.440000	-14582.970000	0.000000	0.000000	0.000000	0.000000	1.338745	-19.164680	1.777389	-1.280208	0.000000	0.000000	-0.000000	-0.000000	3.738700	-0.412020	0.106820	-0.003967	0.979978	-0.027405	-1.000000	-1.000000	-1.000000	-1.000000	-1.000000	-1.000000	-1.000000	146.620690	0.000000	-1.000000	-1.000000	497325.000000	1772311654.149676
-20331.720000	-27984.915000	-26958.240000	-14578.380000	0.000000	0.000000	0.000000	0.000000	2.515176	-26.004132	1.218385	-3.345972	0.000000	0.000000	-0.000000	-0.000000	3.738700	-0.412020	0.106820	-0.003967	0.979978	-0.027405	-1.000000	-1.000000	-1.000000	-1.000000	-1.000000	-1.000000	-1.000000	146.620690	0.000000	-1.000000	-1.000000	497326.000000	1772311654.149679
-20340.990000	-27977.490000	-26966.565000	-14579.550000	0.000000	0.000000	0.000000	0.000000	3.390476	-19.218213	0.332229	-4.312777	0.000000	0.000000	-0.000000	-0.000000	3.738700	-0.412020	0.106820	-0.003967	0.979978	-0.027405	-1.000000	-1.000000	-1.000000	-1.000000	-1.000000	-1.000000	-1.000000	146.620690	0.000000	-1.000000	-1.000000	497327.000000	1772311654.153681
-20341.980000	-28005.120000	-26966.610000	-14576.355000	0.000000	0.000000	0.000000	0.000000	2.660123	-3.241532	-0.667546	-2.797586	0.000000	0.000000	-0.000000	-0.000000	3.738700	-0.412020	0.106820	-0.003967	0.979978	-0.027405	-1.000000	-1.000000	-1.000000	-1.000000	-1.000000	-1.000000	-1.000000	146.620690	0.000000	-1.000000	-1.000000	497328.000000	1772311654.153684
-20333.925000	-27976.140000	-26957.970000	-14570.640000	0.000000	0.000000	0.000000	0.000000	0.204648	11.755049	-1.527453	0.801441	0.000000	0.000000	-0.000000	-0.000000	3.738700	-0.412020	0.106820	-0.003967	0.979978	-0.027405	-1.000000	-1.000000	-1.000000	-1.000000	-1.000000	-1.000000	-1.000000	146.620690	0.000000	-1.000000	-1.000000	497329.000000	1772311654.157725
-20354.445000	-27947.340000	-26976.825000	-14589.900000	0.000000	0.000000	0.000000	0.000000	-2.517548	19.835293	-1.774014	4.324394	0.000000	0.000000	-0.000000	-0.000000	3.738700	-0.412020	0.106820	-0.003967	0.979978	-0.027405	-1.000000	-1.000000	-1.000000	-1.000000	-1.000000	-1.000000	-1.000000	146.620690	0.000000	-1.000000	-1.000000	497330.000000	1772311654.157727
-20360.205000	-27928.665000	-26980.695000	-14592.555000	0.000000	0.000000	0.000000	0.000000	-4.660762	21.721081	-1.880640	5.106184	0.000000	0.000000	-0.000000	-0.000000	3.738700	-0.412020	0.106820	-0.003967	0.979978	-0.027405	-1.000000	-1.000000	-1.000000	-1.000000	-1.000000	-1.000000	-1.000000	146.620690	0.000000	-1.000000	-1.000000	497331.000000	1772311654.162224
-20354.715000	-27931.455000	-26975.115000	-14589.270000	0.000000	0.000000	0.000000	0.000000	-5.771054	18.623043	-2.228119	2.702473	0.000000	0.000000	-0.000000	-0.000000	3.738700	-0.412020	0.106820	-0.003967	0.979978	-0.027405	-1.000000	-1.000000	-1.000000	-1.000000	-1.000000	-1.000000	-1.000000	146.620690	0.000000	-1.000000	-1.000000	497332.000000	1772311654.162227
-20354.805000	-27950.985000	-26974.890000	-14586.615000	0.000000	0.000000	0.000000	0.000000	-4.564225	9.659102	-1.691979	-0.283597	0.000000	0.000000	-0.000000	-0.000000	3.738700	-0.412020	0.106820	-0.003967	0.979978	-0.027405	-1.000000	-1.000000	-1.000000	-1.000000	-1.000000	-1.000000	-1.000000	146.620690	0.000000	-1.000000	-1.000000	497333.000000	1772311654.166072
-20350.305000	-27956.970000	-26968.680000	-14571.990000	0.000000	0.000000	0.000000	0.000000	-0.670506	-4.558057	0.558323	-1.075529	0.000000	0.000000	-0.000000	-0.000000	3.738700	-0.412020	0.106820	-0.003967	0.979978	-0.027405	-1.000000	-1.000000	-1.000000	-1.000000	-1.000000	-1.000000	-1.000000	146.620690	0.000000	-1.000000	-1.000000	497334.000000	1772311654.166089
-20347.965000	-27941.130000	-26964.855000	-14561.190000	0.000000	0.000000	0.000000	0.000000	4.184085	-18.558251	3.658716	0.983748	0.000000	0.000000	-0.000000	-0.000000	3.769220	0.106820	-0.763000	0.000793	0.982541	-0.030273	-1.000000	-1.000000	-1.000000	-1.000000	-1.000000	-1.000000	-1.000000	146.620690	0.000000	-1.000000	-1.000000	497335.000000	1772311654.169756
-20347.830000	-27952.470000	-26966.070000	-14561.910000	0.000000	0.000000	0.000000	0.000000	7.514938	-24.893859	5.828229	4.117954	0.000000	0.000000	-0.000000	-0.000000	3.769220	0.106820	-0.763000	0.000793	0.982541	-0.030273	-1.000000	-1.000000	-1.000000	-1.000000	-1.000000	-1.000000	-1.000000	146.620690	0.000000	-1.000000	-1.000000	497336.000000	1772311654.169759
-20343.465000	-27987.930000	-26968.860000	-14584.185000	0.000000	0.000000	0.000000	0.000000	7.763117	-21.615769	5.521525	4.847715	0.000000	0.000000	-0.000000	-0.000000	3.769220	0.106820	-0.763000	0.000793	0.982541	-0.030273	-1.000000	-1.000000	-1.000000	-1.000000	-1.000000	-1.000000	-1.000000	146.620690	0.000000	-1.000000	-1.000000	497337.000000	1772311654.173855
-20347.425000	-27986.085000	-26973.990000	-14591.520000	0.000000	0.000000	0.000000	0.000000	5.061312	-13.278084	2.466414	0.729571	0.000000	0.000000	-0.000000	-0.000000	3.769220	0.106820	-0.763000	0.000793	0.982541	-0.030273	-1.000000	-1.000000	-1.000000	-1.000000	-1.000000	-1.000000	-1.000000	146.620690	0.000000	-1.000000	-1.000000	497338.000000	1772311654.173859
-20333.700000	-27984.555000	-26955.990000	-14567.535000	0.000000	0.000000	0.000000	0.000000	0.981669	-3.966791	-1.619785	-5.937908	0.000000	0.000000	-0.000000	-0.000000	3.769220	0.106820	-0.763000	0.000793	0.982541	-0.030273	-1.000000	-1.000000	-1.000000	-1.000000	-1.000000	-1.000000	-1.000000	146.620690	0.000000	-1.000000	-1.000000	497339.000000	1772311654.177741
-20322.405000	-27977.895000	-26946.225000	-14559.210000	0.000000	0.000000	0.000000	0.000000	-2.138114	5.479050	-3.744569	-9.112945	0.000000	0.000000	-0.000000	-0.000000	3.769220	0.106820	-0.763000	0.000793	0.982541	-0.030273	-1.000000	-1.000000	-1.000000	-1.000000	-1.000000	-1.000000	-1.000000	146.620690	0.000000	-1.000000	-1.000000	497340.000000	1772311654.177763
-20338.740000	-28002.825000	-26963.955000	-14575.590000	0.000000	0.000000	0.000000	0.000000	-3.172831	13.597454	-2.889356	-6.102423	0.000000	0.000000	-0.000000	-0.000000	3.769220	0.106820	-0.763000	0.000793	0.982541	-0.030273	-1.000000	-1.000000	-1.000000	-1.000000	-1.000000	-1.000000	-1.000000	146.620690	0.000000	-1.000000	-1.000000	497341.000000	1772311654.181763
-20363.445000	-28002.825000	-26990.010000	-14599.395000	0.000000	0.000000	0.000000	0.000000	-4.003506	17.034496	-2.008510	-1.098239	0.000000	0.000000	-0.000000	-0.000000	3.769220	0.106820	-0.763000	0.000793	0.982541	-0.030273	-1.000000	-1.000000	-1.000000	-1.000000	-1.000000	-1.000000	-1.000000	146.620690	0.000000	-1.000000	-1.000000	497342.000000	1772311654.181767
-20351.565000	-27963.630000	-26979.840000	-14588.190000	0.000000	0.000000	0.000000	0.000000	-6.435913	15.172224	-3.816947	0.840328	0.000000	0.000000	-0.000000	-0.000000	3.769220	0.106820	-0.763000	0.000793	0.982541	-0.030273	-1.000000	-1.000000	-1.000000	-1.000000	-1.000000	-1.000000	-1.000000	146.620690	0.000000	-1.000000	-1.000000	497343.000000	1772311654.185805
-20331.720000	-27928.890000	-26960.895000	-14569.425000	0.000000	0.000000	0.000000	0.000000	-7.916147	12.338708	-5.836362	0.452717	0.000000	0.000000	-0.000000	-0.000000	3.769220	0.106820	-0.763000	0.000793	0.982541	-0.030273	-1.000000	-1.000000	-1.000000	-1.000000	-1.000000	-1.000000	-1.000000	146.620690	0.000000	-1.000000	-1.000000	497344.000000	1772311654.185808
-20323.260000	-27931.005000	-26950.905000	-14559.795000	0.000000	0.000000	0.000000	0.000000	-4.464186	11.531958	-3.481022	1.836475	0.000000	0.000000	-0.000000	-0.000000	2.136400	0.595140	-0.366240	-0.001282	0.985227	-0.032043	-1.000000	-1.000000	-1.000000	-1.000000	-1.000000	-1.000000	-1.000000	146.620690	0.000000	-1.000000	-1.000000	497345.000000	1772311654.191515
-20346.075000	-27933.570000	-26971.920000	-14579.415000	0.000000	0.000000	0.000000	0.000000	2.688180	9.515611	2.822128	5.351678	0.000000	0.000000	-0.000000	-0.000000	2.136400	0.595140	-0.366240	-0.001282	0.985227	-0.032043	-1.000000	-1.000000	-1.000000	-1.000000	-1.000000	-1.000000	-1.000000	146.620690	0.000000	-1.000000	-1.000000	497346.000000	1772311654.191518
-20347.650000	-27896.850000	-26976.420000	-14585.130000	0.000000	0.000000	0.000000	0.000000	7.529357	2.667035	7.412388	6.809063	0.000000	0.000000	-0.000000	-0.000000	2.136400	0.595140	-0.366240	-0.001282	0.985227	-0.032043	-1.000000	-1.000000	-1.000000	-1.000000	-1.000000	-1.000000	-1.000000	146.620690	0.000000	-1.000000	-1.000000	497347.000000	1772311654.193738
-20328.795000	-27881.820000	-26957.115000	-14570.820000	0.000000	0.000000	0.000000	0.000000	6.887915	-6.416926	6.785106	3.851811	0.000000	0.000000	-0.000000	-0.000000	2.136400	0.595140	-0.366240	-0.001282	0.985227	-0.032043	-1.000000	-1.000000	-1.000000	-1.000000	-1.000000	-1.000000	-1.000000	146.620690	0.000000	-1.000000	-1.000000	497348.000000	1772311654.193748
-20332.665000	-27866.610000	-26958.870000	-14572.350000	0.000000	0.000000	0.000000	0.000000	3.484987	-12.578863	3.300073	-0.769630	0.000000	0.000000	-0.000000	-0.000000	2.136400	0.595140	-0.366240	-0.001282	0.985227	-0.032043	-1.000000	-1.000000	-1.000000	-1.000000	-1.000000	-1.000000	-1.000000	146.620690	0.000000	-1.000000	-1.000000	497349.000000	1772311654.202051
-20360.610000	-27847.980000	-26985.915000	-14591.790000	0.000000	0.000000	0.000000	0.000000	0.190234	-13.937630	-0.074109	-3.856493	0.000000	0.000000	-0.000000	-0.000000	2.136400	0.595140	-0.366240	-0.001282	0.985227	-0.032043	-1.000000	-1.000000	-1.000000	-1.000000	-1.000000	-1.000000	-1.000000	146.620690	0.000000	-1.000000	-1.000000	497350.000000	1772311654.202054
-20361.870000	-27823.005000	-26983.890000	-14588.190000	0.000000	0.000000	0.000000	0.000000	-3.244630	-11.429280	-3.378599	-5.254220	0.000000	0.000000	-0.000000	-0.000000	2.136400	0.595140	-0.366240	-0.001282	0.985227	-0.032043	-1.000000	-1.000000	-1.000000	-1.000000	-1.000000	-1.000000	-1.000000	146.620690	0.000000	-1.000000	-1.000000	497351.000000	1772311654.202058
-20362.140000	-27826.695000	-26985.600000	-14588.595000	0.000000	0.000000	0.000000	0.000000	-6.368499	-7.074835	-6.234474	-5.315147	0.000000	0.000000	-0.000000	-0.000000	2.136400	0.595140	-0.366240	-0.001282	0.985227	-0.032043	-1.000000	-1.000000	-1.000000	-1.000000	-1.000000	-1.000000	-1.000000	146.620690	0.000000	-1.000000	-1.000000	497352.000000	1772311654.202060
-20359.125000	-27840.915000	-26985.960000	-14597.235000	0.000000	0.000000	0.000000	0.000000	-6.662595	-4.047236	-6.526485	-3.668903	0.000000	0.000000	-0.000000	-0.000000	2.136400	0.595140	-0.366240	-0.001282	0.985227	-0.032043	-1.000000	-1.000000	-1.000000	-1.000000	-1.000000	-1.000000	-1.000000	146.620690	0.000000	-1.000000	-1.000000	497353.000000	1772311654.205781
-20353.680000	-27884.115000	-26981.055000	-14597.640000	0.000000	0.000000	0.000000	0.000000	-2.910041	-5.390786	-3.373385	-0.890001	0.000000	0.000000	-0.000000	-0.000000	2.136400	0.595140	-0.366240	-0.001282	0.985227	-0.032043	-1.000000	-1.000000	-1.000000	-1.000000	-1.000000	-1.000000	-1.000000	146.620690	0.000000	-1.000000	-1.000000	497354.000000	1772311654.205784
-20335.905000	-27917.055000	-26961.075000	-14576.490000	0.000000	0.000000	0.000000	0.000000	3.405833	-11.226175	2.099320	2.194039	-0.000000	0.000000	-0.000000	-0.000000	3.464020	-0.350980	-0.183120	-0.000732	0.978086	-0.030029	-1.000000	-1.000000	-1.000000	-1.000000	-1.000000	-1.000000	-1.000000	146.620690	0.000000	-1.000000	-1.000000	497355.000000	1772311654.209813
-20343.870000	-27908.100000	-26965.800000	-14582.565000	0.000000	0.000000	0.000000	0.000000	9.215842	-16.700192	7.699532	5.401918	-0.000000	0.000000	-0.000000	-0.000000	3.464020	-0.350980	-0.183120	-0.000732	0.978086	-0.030029	-1.000000	-1.000000	-1.000000	-1.000000	-1.000000	-1.000000	-1.000000	146.620690	0.000000	-1.000000	-1.000000	497356.000000	1772311654.209824
-20351.070000	-27887.985000	-26971.065000	-14587.695000	0.000000	0.000000	0.000000	0.000000	10.930846	-13.949051	10.284914	7.402834	-0.000000	0.000000	-0.000000	-0.000000	3.464020	-0.350980	-0.183120	-0.000732	0.978086	-0.030029	-1.000000	-1.000000	-1.000000	-1.000000	-1.000000	-1.000000	-1.000000	146.620690	0.000000	-1.000000	-1.000000	497357.000000	1772311654.213964
-20333.925000	-27878.490000	-26958.420000	-14571.405000	0.000000	0.000000	0.000000	0.000000	7.149115	0.384223	7.851918	6.428094	-0.000000	0.000000	-0.000000	-0.000000	3.464020	-0.350980	-0.183120	-0.000732	0.978086	-0.030029	-1.000000	-1.000000	-1.000000	-1.000000	-1.000000	-1.000000	-1.000000	146.620690	0.000000	-1.000000	-1.000000	497358.000000	1772311654.213967
-20319.480000	-27859.815000	-26943.840000	-14551.245000	0.000000	0.000000	0.000000	0.000000	0.977486	20.222693	2.353324	3.528001	-0.000000	0.000000	-0.000000	-0.000000	3.464020	-0.350980	-0.183120	-0.000732	0.978086	-0.030029	-1.000000	-1.000000	-1.000000	-1.000000	-1.000000	-1.000000	-1.000000	146.620690	0.000000	-1.000000	-1.000000	497359.000000	1772311654.217853
-20319.930000	-27856.305000	-26950.995000	-14563.170000	0.000000	0.000000	0.000000	0.000000	-3.278276	34.642917	-2.482808	1.035626	-0.000000	0.000000	-0.000000	-0.000000	3.464020	-0.350980	-0.183120	-0.000732	0.978086	-0.030029	-1.000000	-1.000000	-1.000000	-1.000000	-1.000000	-1.000000	-1.000000	146.620690	0.000000	-1.000000	-1.000000	497360.000000	1772311654.217856
-20359.710000	-27827.280000	-26991.945000	-14600.565000	0.000000	0.000000	0.000000	0.000000	-5.436055	36.293481	-6.068927	-1.866373	-0.000000	0.000000	-0.000000	-0.000000	3.464020	-0.350980	-0.183120	-0.000732	0.978086	-0.030029	-1.000000	-1.000000	-1.000000	-1.000000	-1.000000	-1.000000	-1.000000	146.620690	0.000000	-1.000000	-1.000000	497361.000000	1772311654.221957
-20376.090000	-27739.215000	-27009.315000	-14614.605000	0.000000	0.000000	0.000000	0.000000	-8.614634	26.984892	-10.503420	-7.582984	-0.000000	0.000000	-0.000000	-0.000000	3.464020	-0.350980	-0.183120	-0.000732	0.978086	-0.030029	-1.000000	-1.000000	-1.000000	-1.000000	-1.000000	-1.000000	-1.000000	146.620690	0.000000	-1.000000	-1.000000	497362.000000	1772311654.221960
-20361.510000	-27692.730000	-26994.780000	-14601.060000	0.000000	0.000000	0.000000	0.000000	-12.674773	15.325451	-14.675035	-13.988441	-0.000000	0.000000	-0.000000	-0.000000	3.464020	-0.350980	-0.183120	-0.000732	0.978086	-0.030029	-1.000000	-1.000000	-1.000000	-1.000000	-1.000000	-1.000000	-1.000000	146.620690	0.000000	-1.000000	-1.000000	497363.000000	1772311654.225884
-20357.010000	-27721.395000	-26989.830000	-14596.110000	0.000000	0.000000	0.000000	0.000000	-12.538566	5.343055	-13.316046	-14.725258	-0.000000	0.000000	-0.000000	-0.000000	3.464020	-0.350980	-0.183120	-0.000732	0.978086	-0.030029	-1.000000	-1.000000	-1.000000	-1.000000	-1.000000	-1.000000	-1.000000	146.620690	0.000000	-1.000000	-1.000000	497364.000000	1772311654.225893
-20350.080000	-27766.890000	-26981.910000	-14586.165000	0.000000	0.000000	0.000000	0.000000	-5.092798	-8.452467	-3.986092	-6.771633	-0.000000	0.000000	-0.000000	-0.000000	1.327620	0.610400	-0.854560	-0.001465	0.985166	-0.030945	-1.000000	-1.000000	-1.000000	-1.000000	-1.000000	-1.000000	-1.000000	146.620690	0.000000	-1.000000	-1.000000	497365.000000	1772311654.230067
-20347.065000	-27790.875000	-26976.105000	-14577.660000	0.000000	0.000000	0.000000	0.000000	6.322221	-29.733311	9.037044	5.950280	-0.000000	0.000000	-0.000000	-0.000000	1.327620	0.610400	-0.854560	-0.001465	0.985166	-0.030945	-1.000000	-1.000000	-1.000000	-1.000000	-1.000000	-1.000000	-1.000000	146.620690	0.000000	-1.000000	-1.000000	497366.000000	1772311654.230070
-20341.080000	-27782.145000	-26971.380000	-14573.070000	0.000000	0.000000	0.000000	0.000000	15.318696	-49.818316	18.677511	16.375883	-0.000000	0.000000	-0.000000	-0.000000	1.327620	0.610400	-0.854560	-0.001465	0.985166	-0.030945	-1.000000	-1.000000	-1.000000	-1.000000	-1.000000	-1.000000	-1.000000	146.620690	0.000000	-1.000000	-1.000000	497367.000000	1772311654.233892
-20339.010000	-27782.595000	-26970.975000	-14578.920000	0.000000	0.000000	0.000000	0.000000	17.577712	-54.050770	20.291323	19.188003	-0.000000	0.000000	-0.000000	-0.000000	1.327620	0.610400	-0.854560	-0.001465	0.985166	-0.030945	-1.000000	-1.000000	-1.000000	-1.000000	-1.000000	-1.000000	-1.000000	146.620690	0.000000	-1.000000	-1.000000	497368.000000	1772311654.233895
-20343.420000	-27775.305000	-26977.680000	-14587.065000	0.000000	0.000000	0.000000	0.000000	12.754331	-36.403843	13.672924	13.227443	-0.000000	0.000000	-0.000000	-0.000000	1.327620	0.610400	-0.854560	-0.001465	0.985166	-0.030945	-1.000000	-1.000000	-1.000000	-1.000000	-1.000000	-1.000000	-1.000000	146.620690	0.000000	-1.000000	-1.000000	497369.000000	1772311654.240251
-20345.940000	-27757.350000	-26980.785000	-14586.840000	0.000000	0.000000	0.000000	0.000000	3.543713	-4.514994	2.255336	1.805311	-0.000000	0.000000	-0.000000	-0.000000	1.327620	0.610400	-0.854560	-0.001465	0.985166	-0.030945	-1.000000	-1.000000	-1.000000	-1.000000	-1.000000	-1.000000	-1.000000	146.620690	0.000000	-1.000000	-1.000000	497370.000000	1772311654.240254
-20345.040000	-27763.965000	-26980.425000	-14588.730000	0.000000	0.000000	0.000000	0.000000	-5.904974	26.908682	-8.775279	-9.102790	-0.000000	0.000000	-0.000000	-0.000000	1.327620	0.610400	-0.854560	-0.001465	0.985166	-0.030945	-1.000000	-1.000000	-1.000000	-1.000000	-1.000000	-1.000000	-1.000000	146.620690	0.000000	-1.000000	-1.000000	497371.000000	1772311654.241879
-20343.600000	-27804.465000	-26976.240000	-14585.040000	0.000000	0.000000	0.000000	0.000000	-11.711609	43.990967	-14.792263	-14.442257	-0.000000	0.000000	-0.000000	-0.000000	1.327620	0.610400	-0.854560	-0.001465	0.985166	-0.030945	-1.000000	-1.000000	-1.000000	-1.000000	-1.000000	-1.000000	-1.000000	146.620690	0.000000	-1.000000	-1.000000	497372.000000	1772311654.241882
-20342.790000	-27815.445000	-26973.270000	-14581.845000	0.000000	0.000000	0.000000	0.000000	-12.108813	40.151253	-13.953973	-12.750385	-0.000000	0.000000	-0.000000	-0.000000	1.327620	0.610400	-0.854560	-0.001465	0.985166	-0.030945	-1.000000	-1.000000	-1.000000	-1.000000	-1.000000	-1.000000	-1.000000	146.620690	0.000000	-1.000000	-1.000000	497373.000000	1772311654.246063
-20334.555000	-27810.765000	-26962.965000	-14575.905000	0.000000	0.000000	0.000000	0.000000	-7.961419	20.977854	-7.774387	-6.098762	-0.000000	0.000000	-0.000000	-0.000000	1.327620	0.610400	-0.854560	-0.001465	0.985166	-0.030945	-1.000000	-1.000000	-1.000000	-1.000000	-1.000000	-1.000000	-1.000000	146.620690	0.000000	-1.000000	-1.000000	497374.000000	1772311654.246066
-20299.905000	-27812.880000	-26928.270000	-14551.335000	0.000000	0.000000	0.000000	0.000000	-1.131380	0.248858	0.807311	2.077853	-0.000000	0.000000	-0.000000	-0.000000	2.548420	-0.076300	-0.564620	-0.002991	0.981077	-0.028564	-1.000000	-1.000000	-1.000000	-1.000000	-1.000000	-1.000000	-1.000000	146.620690	0.000000	-1.000000	-1.000000	497375.000000	1772311654.250052
-20296.035000	-27798.120000	-26921.880000	-14545.440000	0.000000	0.000000	0.000000	0.000000	6.484456	-11.034943	9.037044	8.926571	-0.000000	0.000000	-0.000000	-0.000000	2.548420	-0.076300	-0.564620	-0.002991	0.981077	-0.028564	-1.000000	-1.000000	-1.000000	-1.000000	-1.000000	-1.000000	-1.000000	146.620690	0.000000	-1.000000	-1.000000	497376.000000	1772311654.250055
-20347.515000	-27824.985000	-26975.880000	-14585.940000	0.000000	0.000000	0.000000	0.000000	10.670457	-11.156663	12.541572	11.253673	-0.000000	0.000000	-0.000000	-0.000000	2.548420	-0.076300	-0.564620	-0.002991	0.981077	-0.028564	-1.000000	-1.000000	-1.000000	-1.000000	-1.000000	-1.000000	-1.000000	146.620690	0.000000	-1.000000	-1.000000	497377.000000	1772311654.254521
-20374.155000	-27812.160000	-27006.300000	-14608.260000	0.000000	0.000000	0.000000	0.000000	5.921652	-5.679187	6.173903	5.757788	-0.000000	0.000000	-0.000000	-0.000000	2.548420	-0.076300	-0.564620	-0.002991	0.981077	-0.028564	-1.000000	-1.000000	-1.000000	-1.000000	-1.000000	-1.000000	-1.000000	146.620690	0.000000	-1.000000	-1.000000	497378.000000	1772311654.254524
-20362.815000	-27792.450000	-26987.445000	-14582.385000	0.000000	0.000000	0.000000	0.000000	-6.408014	-0.048797	-7.937919	-5.320275	-0.000000	0.000000	-0.000000	-0.000000	2.548420	-0.076300	-0.564620	-0.002991	0.981077	-0.028564	-1.000000	-1.000000	-1.000000	-1.000000	-1.000000	-1.000000	-1.000000	146.620690	0.000000	-1.000000	-1.000000	497379.000000	1772311654.257992
-20356.065000	-27797.805000	-26978.940000	-14572.755000	0.000000	0.000000	0.000000	0.000000	-16.069559	4.063395	-18.368596	-12.867817	-0.000000	0.000000	-0.000000	-0.000000	2.548420	-0.076300	-0.564620	-0.002991	0.981077	-0.028564	-1.000000	-1.000000	-1.000000	-1.000000	-1.000000	-1.000000	-1.000000	146.620690	0.000000	-1.000000	-1.000000	497380.000000	1772311654.257996
-20354.220000	-27772.695000	-26975.970000	-14572.080000	0.000000	0.000000	0.000000	0.000000	-14.460396	6.094858	-15.977862	-10.394965	-0.000000	0.000000	-0.000000	-0.000000	2.548420	-0.076300	-0.564620	-0.002991	0.981077	-0.028564	-1.000000	-1.000000	-1.000000	-1.000000	-1.000000	-1.000000	-1.000000	146.620690	0.000000	-1.000000	-1.000000	497381.000000	1772311654.261990
-20346.300000	-27817.110000	-26972.010000	-14590.170000	0.000000	0.000000	0.000000	0.000000	-2.860741	4.856976	-2.934180	-1.172653	-0.000000	0.000000	-0.000000	-0.000000	2.548420	-0.076300	-0.564620	-0.002991	0.981077	-0.028564	-1.000000	-1.000000	-1.000000	-1.000000	-1.000000	-1.000000	-1.000000	146.620690	0.000000	-1.000000	-1.000000	497382.000000	1772311654.261992
-20353.770000	-27833.220000	-26981.505000	-14598.630000	0.000000	0.000000	0.000000	0.000000	10.564915	-1.061417	11.220428	6.441508	-0.000000	0.000000	-0.000000	-0.000000	2.548420	-0.076300	-0.564620	-0.002991	0.981077	-0.028564	-1.000000	-1.000000	-1.000000	-1.000000	-1.000000	-1.000000	-1.000000	146.620690	0.000000	-1.000000	-1.000000	497383.000000	1772311654.266135
-20350.305000	-27811.215000	-26976.150000	-14581.530000	0.000000	0.000000	0.000000	0.000000	17.927163	-9.760110	18.173719	8.019936	-0.000000	0.000000	-0.000000	-0.000000	2.548420	-0.076300	-0.564620	-0.002991	0.981077	-0.028564	-1.000000	-1.000000	-1.000000	-1.000000	-1.000000	-1.000000	-1.000000	146.620690	0.000000	-1.000000	-1.000000	497384.000000	1772311654.266138
-20336.265000	-27842.445000	-26957.565000	-14552.685000	0.000000	0.000000	0.000000	0.000000	16.676780	-14.983126	16.242958	6.278321	-0.000000	0.000000	-0.000000	-0.000000	2.975700	0.488320	-0.198380	-0.001953	0.981565	-0.029236	-1.000000	-1.000000	-1.000000	-1.000000	-1.000000	-1.000000	-1.000000	146.620690	0.000000	-1.000000	-1.000000	497385.000000	1772311654.270039
-20328.480000	-27869.625000	-26949.645000	-14546.700000	0.000000	0.000000	0.000000	0.000000	9.939724	-13.666056	9.584065	5.801739	-0.000000	0.000000	-0.000000	-0.000000	2.975700	0.488320	-0.198380	-0.001953	0.981565	-0.029236	-1.000000	-1.000000	-1.000000	-1.000000	-1.000000	-1.000000	-1.000000	146.620690	0.000000	-1.000000	-1.000000	497386.000000	1772311654.270042
-20333.250000	-27886.140000	-26964.855000	-14584.095000	0.000000	0.000000	0.000000	0.000000	2.105018	-8.716646	2.374211	5.985076	-0.000000	0.000000	-0.000000	-0.000000	2.975700	0.488320	-0.198380	-0.001953	0.981565	-0.029236	-1.000000	-1.000000	-1.000000	-1.000000	-1.000000	-1.000000	-1.000000	146.620690	0.000000	-1.000000	-1.000000	497387.000000	1772311654.274039
-20342.880000	-27877.590000	-26976.690000	-14601.375000	0.000000	0.000000	0.000000	0.000000	-4.803420	-2.710875	-4.549015	1.965037	-0.000000	0.000000	-0.000000	-0.000000	2.975700	0.488320	-0.198380	-0.001953	0.981565	-0.029236	-1.000000	-1.000000	-1.000000	-1.000000	-1.000000	-1.000000	-1.000000	146.620690	0.000000	-1.000000	-1.000000	497388.000000	1772311654.274042
-20338.830000	-27824.715000	-26970.570000	-14591.115000	0.000000	0.000000	0.000000	0.000000	-10.168716	5.497114	-10.826574	-6.871853	-0.000000	0.000000	-0.000000	-0.000000	2.975700	0.488320	-0.198380	-0.001953	0.981565	-0.029236	-1.000000	-1.000000	-1.000000	-1.000000	-1.000000	-1.000000	-1.000000	146.620690	0.000000	-1.000000	-1.000000	497389.000000	1772311654.278186
-20337.795000	-27795.600000	-26966.880000	-14584.905000	0.000000	0.000000	0.000000	0.000000	-12.658647	17.277154	-13.887388	-13.895526	-0.000000	0.000000	-0.000000	-0.000000	2.975700	0.488320	-0.198380	-0.001953	0.981565	-0.029236	-1.000000	-1.000000	-1.000000	-1.000000	-1.000000	-1.000000	-1.000000	146.965517	0.000000	-1.000000	-1.000000	497390.000000	1772311654.278190
-20342.970000	-27803.430000	-26970.840000	-14591.205000	0.000000	0.000000	0.000000	0.000000	-11.151914	28.264643	-11.581147	-13.044436	-0.000000	0.000000	-0.000000	-0.000000	2.975700	0.488320	-0.198380	-0.001953	0.981565	-0.029236	-1.000000	-1.000000	-1.000000	-1.000000	-1.000000	-1.000000	-1.000000	146.965517	0.000000	-1.000000	-1.000000	497391.000000	1772311654.282038
-20338.020000	-27821.970000	-26964.405000	-14580.405000	0.000000	0.000000	0.000000	0.000000	-6.471111	29.012888	-5.141909	-5.162842	-0.000000	0.000000	-0.000000	-0.000000	2.975700	0.488320	-0.198380	-0.001953	0.981565	-0.029236	-1.000000	-1.000000	-1.000000	-1.000000	-1.000000	-1.000000	-1.000000	146.965517	0.000000	-1.000000	-1.000000	497392.000000	1772311654.282041
-20350.980000	-27868.365000	-26976.420000	-14581.440000	0.000000	0.000000	0.000000	0.000000	-0.880894	13.999704	1.911039	4.534480	-0.000000	0.000000	-0.000000	-0.000000	2.975700	0.488320	-0.198380	-0.001953	0.981565	-0.029236	-1.000000	-1.000000	-1.000000	-1.000000	-1.000000	-1.000000	-1.000000	146.965517	0.000000	-1.000000	-1.000000	497393.000000	1772311654.286017
-20345.400000	-27840.735000	-26974.530000	-14579.820000	0.000000	0.000000	0.000000	0.000000	3.356658	-10.959223	6.293109	11.087783	-0.000000	0.000000	-0.000000	-0.000000	2.975700	0.488320	-0.198380	-0.001953	0.981565	-0.029236	-1.000000	-1.000000	-1.000000	-1.000000	-1.000000	-1.000000	-1.000000	146.965517	0.000000	-1.000000	-1.000000	497394.000000	1772311654.286020
-20343.240000	-27799.290000	-26970.210000	-14579.370000	0.000000	0.000000	0.000000	0.000000	5.419429	-30.203793	7.000633	12.026849	-0.000000	0.000000	-0.000000	-0.000000	3.921820	0.076300	-0.274680	-0.003052	0.981504	-0.029602	-1.000000	-1.000000	-1.000000	-1.000000	-1.000000	-1.000000	-1.000000	146.965517	0.000000	-1.000000	-1.000000	497395.000000	1772311654.290177
-20348.370000	-27778.590000	-26971.875000	-14581.890000	0.000000	0.000000	0.000000	0.000000	5.850087	-30.503173	5.455116	7.961086	-0.000000	0.000000	-0.000000	-0.000000	3.921820	0.076300	-0.274680	-0.003052	0.981504	-0.029602	-1.000000	-1.000000	-1.000000	-1.000000	-1.000000	-1.000000	-1.000000	146.965517	0.000000	-1.000000	-1.000000	497396.000000	1772311654.290180
-20352.960000	-27762.030000	-26980.965000	-14590.125000	0.000000	0.000000	0.000000	0.000000	4.953076	-13.445425	3.153222	1.404549	-0.000000	0.000000	-0.000000	-0.000000	3.921820	0.076300	-0.274680	-0.003052	0.981504	-0.029602	-1.000000	-1.000000	-1.000000	-1.000000	-1.000000	-1.000000	-1.000000	146.965517	0.000000	-1.000000	-1.000000	497397.000000	1772311654.294120
-20328.165000	-27761.715000	-26955.945000	-14567.850000	0.000000	0.000000	0.000000	0.000000	3.270326	7.179849	0.986622	-4.438346	-0.000000	0.000000	-0.000000	-0.000000	3.921820	0.076300	-0.274680	-0.003052	0.981504	-0.029602	-1.000000	-1.000000	-1.000000	-1.000000	-1.000000	-1.000000	-1.000000	146.965517	0.000000	-1.000000	-1.000000	497398.000000	1772311654.294123
-20324.880000	-27783.180000	-26952.255000	-14564.340000	0.000000	0.000000	0.000000	0.000000	2.440084	17.613228	0.317745	-6.488326	-0.000000	0.000000	-0.000000	-0.000000	3.921820	0.076300	-0.274680	-0.003052	0.981504	-0.029602	-1.000000	-1.000000	-1.000000	-1.000000	-1.000000	-1.000000	-1.000000	146.965517	0.000000	-1.000000	-1.000000	497399.000000	1772311654.298034
-20352.465000	-27787.320000	-26980.155000	-14586.435000	0.000000	0.000000	0.000000	0.000000	2.356558	12.953828	0.873040	-4.656352	-0.000000	0.000000	-0.000000	-0.000000	3.921820	0.076300	-0.274680	-0.003052	0.981504	-0.029602	-1.000000	-1.000000	-1.000000	-1.000000	-1.000000	-1.000000	-1.000000	146.965517	0.000000	-1.000000	-1.000000	497400.000000	1772311654.298037
-20363.535000	-27761.580000	-26990.055000	-14595.480000	0.000000	0.000000	0.000000	0.000000	0.105655	-0.554803	-0.403894	-2.656127	-0.000000	0.000000	-0.000000	-0.000000	3.921820	0.076300	-0.274680	-0.003052	0.981504	-0.029602	-1.000000	-1.000000	-1.000000	-1.000000	-1.000000	-1.000000	-1.000000	146.965517	0.000000	-1.000000	-1.000000	497401.000000	1772311654.302115
-20352.420000	-27760.545000	-26978.220000	-14584.320000	0.000000	0.000000	0.000000	0.000000	-4.860717	-11.270450	-4.335145	-2.841672	-0.000000	0.000000	-0.000000	-0.000000	3.921820	0.076300	-0.274680	-0.003052	0.981504	-0.029602	-1.000000	-1.000000	-1.000000	-1.000000	-1.000000	-1.000000	-1.000000	146.965517	0.000000	-1.000000	-1.000000	497402.000000	1772311654.302117
-20349.765000	-27750.555000	-26979.390000	-14587.695000	0.000000	0.000000	0.000000	0.000000	-8.357029	-12.472308	-7.122460	-3.264299	-0.000000	0.000000	-0.000000	-0.000000	3.921820	0.076300	-0.274680	-0.003052	0.981504	-0.029602	-1.000000	-1.000000	-1.000000	-1.000000	-1.000000	-1.000000	-1.000000	146.965517	0.000000	-1.000000	-1.000000	497403.000000	1772311654.306332
-20348.190000	-27740.880000	-26972.955000	-14580.630000	0.000000	0.000000	0.000000	0.000000	-6.787867	-5.931604	-5.463860	-1.537034	-0.000000	0.000000	-0.000000	-0.000000	3.921820	0.076300	-0.274680	-0.003052	0.981504	-0.029602	-1.000000	-1.000000	-1.000000	-1.000000	-1.000000	-1.000000	-1.000000	146.965517	0.000000	-1.000000	-1.000000	497404.000000	1772311654.306335
-20344.905000	-27737.055000	-26965.170000	-14568.930000	0.000000	0.000000	0.000000	0.000000	-1.215034	2.628639	-0.130406	2.223464	-0.000000	0.000000	-0.000000	-0.000000	3.616620	0.366240	0.091560	-0.001160	0.981809	-0.030395	-1.000000	-1.000000	-1.000000	-1.000000	-1.000000	-1.000000	-1.000000	146.965517	0.000000	-1.000000	-1.000000	497405.000000	1772311654.310078
-20337.390000	-27703.395000	-26956.260000	-14556.465000	0.000000	0.000000	0.000000	0.000000	4.711501	8.685518	5.774039	6.432108	-0.000000	0.000000	-0.000000	-0.000000	3.616620	0.366240	0.091560	-0.001160	0.981809	-0.030395	-1.000000	-1.000000	-1.000000	-1.000000	-1.000000	-1.000000	-1.000000	146.965517	0.000000	-1.000000	-1.000000	497406.000000	1772311654.310081
-20327.040000	-27693.405000	-26956.350000	-14569.335000	0.000000	0.000000	0.000000	0.000000	8.224879	11.057186	9.194454	8.801720	-0.000000	0.000000	-0.000000	-0.000000	3.616620	0.366240	0.091560	-0.001160	0.981809	-0.030395	-1.000000	-1.000000	-1.000000	-1.000000	-1.000000	-1.000000	-1.000000	146.965517	0.000000	-1.000000	-1.000000	497407.000000	1772311654.314108
-20336.670000	-27700.290000	-26968.005000	-14589.855000	0.000000	0.000000	0.000000	0.000000	8.248565	9.769557	8.144822	6.650971	-0.000000	0.000000	-0.000000	-0.000000	3.616620	0.366240	0.091560	-0.001160	0.981809	-0.030395	-1.000000	-1.000000	-1.000000	-1.000000	-1.000000	-1.000000	-1.000000	146.965517	0.000000	-1.000000	-1.000000	497408.000000	1772311654.314111
-20364.075000	-27714.690000	-26993.745000	-14607.720000	0.000000	0.000000	0.000000	0.000000	4.204398	4.030759	2.211007	-0.764725	-0.000000	0.000000	-0.000000	-0.000000	3.616620	0.366240	0.091560	-0.001160	0.981809	-0.030395	-1.000000	-1.000000	-1.000000	-1.000000	-1.000000	-1.000000	-1.000000	146.965517	0.000000	-1.000000	-1.000000	497409.000000	1772311654.318258
-20343.015000	-27710.595000	-26972.055000	-14584.095000	0.000000	0.000000	0.000000	0.000000	-2.937662	-5.202641	-6.088181	-9.459232	-0.000000	0.000000	-0.000000	-0.000000	3.616620	0.366240	0.091560	-0.001160	0.981809	-0.030395	-1.000000	-1.000000	-1.000000	-1.000000	-1.000000	-1.000000	-1.000000	146.965517	0.000000	-1.000000	-1.000000	497410.000000	1772311654.318261
-20325.330000	-27733.545000	-26955.990000	-14568.615000	0.000000	0.000000	0.000000	0.000000	-8.403127	-13.739954	-10.897026	-12.389462	-0.000000	0.000000	-0.000000	-0.000000	3.616620	0.366240	0.091560	-0.001160	0.981809	-0.030395	-1.000000	-1.000000	-1.000000	-1.000000	-1.000000	-1.000000	-1.000000	146.965517	0.000000	-1.000000	-1.000000	497411.000000	1772311654.322139
-20345.580000	-27775.665000	-26974.395000	-14586.165000	0.000000	0.000000	0.000000	0.000000	-7.883570	-18.133310	-8.379350	-6.767935	-0.000000	0.000000	-0.000000	-0.000000	3.616620	0.366240	0.091560	-0.001160	0.981809	-0.030395	-1.000000	-1.000000	-1.000000	-1.000000	-1.000000	-1.000000	-1.000000	146.965517	0.000000	-1.000000	-1.000000	497412.000000	1772311654.322148
-20359.440000	-27787.320000	-26988.120000	-14597.415000	0.000000	0.000000	0.000000	0.000000	-3.556618	-18.019245	-1.926419	2.025052	-0.000000	0.000000	-0.000000	-0.000000	3.616620	0.366240	0.091560	-0.001160	0.981809	-0.030395	-1.000000	-1.000000	-1.000000	-1.000000	-1.000000	-1.000000	-1.000000	146.965517	0.000000	-1.000000	-1.000000	497413.000000	1772311654.326219
-20347.335000	-27794.430000	-26975.655000	-14587.965000	0.000000	0.000000	0.000000	0.000000	-0.281095	-13.196446	2.625373	7.009089	-0.000000	0.000000	-0.000000	-0.000000	3.616620	0.366240	0.091560	-0.001160	0.981809	-0.030395	-1.000000	-1.000000	-1.000000	-1.000000	-1.000000	-1.000000	-1.000000	146.965517	0.000000	-1.000000	-1.000000	497414.000000	1772311654.326221
-20343.780000	-27798.120000	-26969.805000	-14583.915000	0.000000	0.000000	0.000000	0.000000	1.129774	-3.138997	4.094840	6.952066	-0.000000	0.000000	-0.000000	-0.000000	2.258480	0.091560	-0.701960	-0.002258	0.983396	-0.031982	-1.000000	-1.000000	-1.000000	-1.000000	-1.000000	-1.000000	-1.000000	146.965517	0.000000	-1.000000	-1.000000	497415.000000	1772311654.330272
-20337.840000	-27837.180000	-26961.930000	-14573.025000	0.000000	0.000000	0.000000	0.000000	2.560920	9.325638	4.657252	4.907456	-0.000000	0.000000	-0.000000	-0.000000	2.258480	0.091560	-0.701960	-0.002258	0.983396	-0.031982	-1.000000	-1.000000	-1.000000	-1.000000	-1.000000	-1.000000	-1.000000	146.965517	0.000000	-1.000000	-1.000000	497416.000000	1772311654.330277
-20334.420000	-27870.885000	-26959.455000	-14570.055000	0.000000	0.000000	0.000000	0.000000	4.462424	17.681163	5.312784	3.350595	-0.000000	0.000000	-0.000000	-0.000000	2.258480	0.091560	-0.701960	-0.002258	0.983396	-0.031982	-1.000000	-1.000000	-1.000000	-1.000000	-1.000000	-1.000000	-1.000000	146.965517	0.000000	-1.000000	-1.000000	497417.000000	1772311654.334184
-20341.215000	-27822.195000	-26968.905000	-14579.775000	0.000000	0.000000	0.000000	0.000000	5.443936	18.688103	4.968609	2.201119	-0.000000	0.000000	-0.000000	-0.000000	2.258480	0.091560	-0.701960	-0.002258	0.983396	-0.031982	-1.000000	-1.000000	-1.000000	-1.000000	-1.000000	-1.000000	-1.000000	146.965517	0.000000	-1.000000	-1.000000	497418.000000	1772311654.334187
-20343.150000	-27783.810000	-26969.490000	-14579.145000	0.000000	0.000000	0.000000	0.000000	4.011510	17.414512	2.295798	0.035746	-0.000000	0.000000	-0.000000	-0.000000	2.258480	0.091560	-0.701960	-0.002258	0.983396	-0.031982	-1.000000	-1.000000	-1.000000	-1.000000	-1.000000	-1.000000	-1.000000	146.965517	0.000000	-1.000000	-1.000000	497419.000000	1772311654.338151
-20329.830000	-27790.830000	-26958.555000	-14568.570000	0.000000	0.000000	0.000000	0.000000	0.608557	18.959609	-1.892502	-3.036638	-0.000000	0.000000	-0.000000	-0.000000	2.258480	0.091560	-0.701960	-0.002258	0.983396	-0.031982	-1.000000	-1.000000	-1.000000	-1.000000	-1.000000	-1.000000	-1.000000	146.965517	0.000000	-1.000000	-1.000000	497420.000000	1772311654.338154
-20329.830000	-27808.740000	-26958.330000	-14568.390000	0.000000	0.000000	0.000000	0.000000	-2.323630	19.168566	-4.824852	-4.933397	-0.000000	0.000000	-0.000000	-0.000000	2.258480	0.091560	-0.701960	-0.002258	0.983396	-0.031982	-1.000000	-1.000000	-1.000000	-1.000000	-1.000000	-1.000000	-1.000000	146.965517	0.000000	-1.000000	-1.000000	497421.000000	1772311654.342245
-20340.405000	-27849.780000	-26967.420000	-14581.755000	0.000000	0.000000	0.000000	0.000000	-3.371863	10.223134	-5.075508	-4.697469	-0.000000	0.000000	-0.000000	-0.000000	2.258480	0.091560	-0.701960	-0.002258	0.983396	-0.031982	-1.000000	-1.000000	-1.000000	-1.000000	-1.000000	-1.000000	-1.000000	146.965517	0.000000	-1.000000	-1.000000	497422.000000	1772311654.342248
-20341.980000	-27867.690000	-26969.490000	-14586.615000	0.000000	0.000000	0.000000	0.000000	-3.506660	-8.444498	-3.874149	-3.739742	-0.000000	0.000000	-0.000000	-0.000000	2.258480	0.091560	-0.701960	-0.002258	0.983396	-0.031982	-1.000000	-1.000000	-1.000000	-1.000000	-1.000000	-1.000000	-1.000000	146.965517	0.000000	-1.000000	-1.000000	497423.000000	1772311654.346249
-20342.340000	-27872.235000	-26967.645000	-14581.170000	0.000000	0.000000	0.000000	0.000000	-3.645499	-27.667710	-2.628685	-3.104030	-0.000000	0.000000	-0.000000	-0.000000	2.258480	0.091560	-0.701960	-0.002258	0.983396	-0.031982	-1.000000	-1.000000	-1.000000	-1.000000	-1.000000	-1.000000	-1.000000	146.965517	0.000000	-1.000000	-1.000000	497424.000000	1772311654.346251
-20326.995000	-27875.790000	-26958.330000	-14573.205000	0.000000	0.000000	0.000000	0.000000	-2.987043	-35.684076	-1.152245	-1.795882	-0.000000	0.000000	-0.000000	-0.000000	2.182180	0.686700	-0.564620	-0.000916	0.981870	-0.030640	-1.000000	-1.000000	-1.000000	-1.000000	-1.000000	-1.000000	-1.000000	146.965517	0.000000	-1.000000	-1.000000	497425.000000	1772311654.350352
-20302.155000	-27889.515000	-26932.185000	-14548.140000	0.000000	0.000000	0.000000	0.000000	-0.034344	-27.944536	1.610624	1.564709	-0.000000	0.000000	-0.000000	-0.000000	2.182180	0.686700	-0.564620	-0.000916	0.981870	-0.030640	-1.000000	-1.000000	-1.000000	-1.000000	-1.000000	-1.000000	-1.000000	146.965517	0.000000	-1.000000	-1.000000	497426.000000	1772311654.350356
-20310.840000	-27927.090000	-26938.080000	-14551.110000	0.000000	0.000000	0.000000	0.000000	4.850405	-10.476939	5.584225	6.441729	-0.000000	0.000000	-0.000000	-0.000000	2.182180	0.686700	-0.564620	-0.000916	0.981870	-0.030640	-1.000000	-1.000000	-1.000000	-1.000000	-1.000000	-1.000000	-1.000000	146.965517	0.000000	-1.000000	-1.000000	497427.000000	1772311654.354293
-20348.325000	-27941.895000	-26974.305000	-14583.105000	0.000000	0.000000	0.000000	0.000000	7.439553	5.921510	7.457255	9.083940	-0.000000	0.000000	-0.000000	-0.000000	2.182180	0.686700	-0.564620	-0.000916	0.981870	-0.030640	-1.000000	-1.000000	-1.000000	-1.000000	-1.000000	-1.000000	-1.000000	146.965517	0.000000	-1.000000	-1.000000	497428.000000	1772311654.354296
-20352.555000	-27932.490000	-26977.590000	-14585.490000	0.000000	0.000000	0.000000	0.000000	3.292108	15.049128	3.287245	5.398376	-0.000000	0.000000	-0.000000	-0.000000	2.182180	0.686700	-0.564620	-0.000916	0.981870	-0.030640	-1.000000	-1.000000	-1.000000	-1.000000	-1.000000	-1.000000	-1.000000	146.965517	0.000000	-1.000000	-1.000000	497429.000000	1772311654.358385
-20348.640000	-27921.375000	-26970.300000	-14574.015000	0.000000	0.000000	0.000000	0.000000	-5.441144	18.377281	-5.047762	-2.936088	-0.000000	0.000000	-0.000000	-0.000000	2.182180	0.686700	-0.564620	-0.000916	0.981870	-0.030640	-1.000000	-1.000000	-1.000000	-1.000000	-1.000000	-1.000000	-1.000000	146.965517	0.000000	-1.000000	-1.000000	497430.000000	1772311654.358388
-20326.230000	-27911.745000	-26949.240000	-14550.930000	0.000000	0.000000	0.000000	0.000000	-10.875506	19.507014	-10.175174	-8.676021	-0.000000	0.000000	-0.000000	-0.000000	2.182180	0.686700	-0.564620	-0.000916	0.981870	-0.030640	-1.000000	-1.000000	-1.000000	-1.000000	-1.000000	-1.000000	-1.000000	146.965517	0.000000	-1.000000	-1.000000	497431.000000	1772311654.362312
-20316.555000	-27910.575000	-26941.230000	-14543.595000	0.000000	0.000000	0.000000	0.000000	-7.583606	18.921251	-7.108501	-6.739053	-0.000000	0.000000	-0.000000	-0.000000	2.182180	0.686700	-0.564620	-0.000916	0.981870	-0.030640	-1.000000	-1.000000	-1.000000	-1.000000	-1.000000	-1.000000	-1.000000	146.965517	0.000000	-1.000000	-1.000000	497432.000000	1772311654.362315
-20325.555000	-27929.655000	-26950.545000	-14557.320000	0.000000	0.000000	0.000000	0.000000	1.967588	14.348593	1.567063	0.410844	-0.000000	0.000000	-0.000000	-0.000000	2.182180	0.686700	-0.564620	-0.000916	0.981870	-0.030640	-1.000000	-1.000000	-1.000000	-1.000000	-1.000000	-1.000000	-1.000000	146.965517	0.000000	-1.000000	-1.000000	497433.000000	1772311654.367384
-20341.395000	-27951.165000	-26966.385000	-14568.210000	0.000000	0.000000	0.000000	0.000000	9.765201	4.111131	8.305397	5.577820	-0.000000	0.000000	-0.000000	-0.000000	2.182180	0.686700	-0.564620	-0.000916	0.981870	-0.030640	-1.000000	-1.000000	-1.000000	-1.000000	-1.000000	-1.000000	-1.000000	146.965517	0.000000	-1.000000	-1.000000	497434.000000	1772311654.367386
-20340.045000	-27963.180000	-26971.965000	-14595.345000	0.000000	0.000000	0.000000	0.000000	9.928678	-9.661030	7.817034	3.946538	0.000000	0.000000	-0.000000	-0.000000	2.441600	0.320460	-0.625660	-0.001770	0.981565	-0.029480	-1.000000	-1.000000	-1.000000	-1.000000	-1.000000	-1.000000	-1.000000	146.965517	0.000000	-1.000000	-1.000000	497435.000000	1772311654.370309
-20328.165000	-27978.840000	-26961.210000	-14582.385000	0.000000	0.000000	0.000000	0.000000	3.954109	-21.081495	1.723945	-2.836948	0.000000	0.000000	-0.000000	-0.000000	2.441600	0.320460	-0.625660	-0.001770	0.981565	-0.029480	-1.000000	-1.000000	-1.000000	-1.000000	-1.000000	-1.000000	-1.000000	146.965517	0.000000	-1.000000	-1.000000	497436.000000	1772311654.370312
-20322.090000	-27993.195000	-26951.985000	-14567.265000	0.000000	0.000000	0.000000	0.000000	-2.031420	-24.738754	-3.791614	-8.070454	0.000000	0.000000	-0.000000	-0.000000	2.441600	0.320460	-0.625660	-0.001770	0.981565	-0.029480	-1.000000	-1.000000	-1.000000	-1.000000	-1.000000	-1.000000	-1.000000	146.965517	0.000000	-1.000000	-1.000000	497437.000000	1772311654.374344
-20322.405000	-28017.045000	-26951.130000	-14565.780000	0.000000	0.000000	0.000000	0.000000	-3.983549	-19.702372	-4.417716	-6.273900	0.000000	0.000000	-0.000000	-0.000000	2.441600	0.320460	-0.625660	-0.001770	0.981565	-0.029480	-1.000000	-1.000000	-1.000000	-1.000000	-1.000000	-1.000000	-1.000000	146.965517	0.000000	-1.000000	-1.000000	497438.000000	1772311654.374346
-20320.155000	-28035.765000	-26943.480000	-14555.970000	0.000000	0.000000	0.000000	0.000000	-2.576635	-9.475356	-0.978393	1.354784	0.000000	0.000000	-0.000000	-0.000000	2.441600	0.320460	-0.625660	-0.001770	0.981565	-0.029480	-1.000000	-1.000000	-1.000000	-1.000000	-1.000000	-1.000000	-1.000000	146.965517	0.000000	-1.000000	-1.000000	497439.000000	1772311654.379680
-20321.865000	-28029.645000	-26942.040000	-14550.660000	0.000000	0.000000	0.000000	0.000000	-0.586694	1.587355	2.968235	9.105543	0.000000	0.000000	-0.000000	-0.000000	2.441600	0.320460	-0.625660	-0.001770	0.981565	-0.029480	-1.000000	-1.000000	-1.000000	-1.000000	-1.000000	-1.000000	-1.000000	146.965517	0.000000	-1.000000	-1.000000	497440.000000	1772311654.379684
-20345.715000	-28034.550000	-26966.565000	-14569.290000	0.000000	0.000000	0.000000	0.000000	-0.313169	11.119049	4.124180	11.854011	0.000000	0.000000	-0.000000	-0.000000	2.441600	0.320460	-0.625660	-0.001770	0.981565	-0.029480	-1.000000	-1.000000	-1.000000	-1.000000	-1.000000	-1.000000	-1.000000	146.965517	0.000000	-1.000000	-1.000000	497441.000000	1772311654.382830
-20329.470000	-28024.650000	-26956.620000	-14567.535000	0.000000	0.000000	0.000000	0.000000	-2.250092	17.878700	1.175087	7.697459	0.000000	0.000000	-0.000000	-0.000000	2.441600	0.320460	-0.625660	-0.001770	0.981565	-0.029480	-1.000000	-1.000000	-1.000000	-1.000000	-1.000000	-1.000000	-1.000000	146.965517	0.000000	-1.000000	-1.000000	497442.000000	1772311654.382834
-20317.005000	-28002.465000	-26949.600000	-14572.620000	0.000000	0.000000	0.000000	0.000000	-3.839943	20.887630	-3.391324	-0.784186	0.000000	0.000000	-0.000000	-0.000000	2.441600	0.320460	-0.625660	-0.001770	0.981565	-0.029480	-1.000000	-1.000000	-1.000000	-1.000000	-1.000000	-1.000000	-1.000000	146.965517	0.000000	-1.000000	-1.000000	497443.000000	1772311654.388133
-20323.530000	-27992.745000	-26952.075000	-14570.820000	0.000000	0.000000	0.000000	0.000000	-2.203414	19.938034	-5.383910	-8.255883	0.000000	0.000000	-0.000000	-0.000000	2.441600	0.320460	-0.625660	-0.001770	0.981565	-0.029480	-1.000000	-1.000000	-1.000000	-1.000000	-1.000000	-1.000000	-1.000000	146.965517	0.000000	-1.000000	-1.000000	497444.000000	1772311654.388136
-20337.120000	-27982.800000	-26965.845000	-14579.955000	0.000000	0.000000	0.000000	0.000000	1.337554	14.994492	-3.909212	-10.934105	0.000000	0.000000	-0.000000	-0.000000	2.975700	0.122080	-0.274680	-0.001282	0.981809	-0.028625	-1.000000	-1.000000	-1.000000	-1.000000	-1.000000	-1.000000	-1.000000	146.965517	0.000000	-1.000000	-1.000000	497445.000000	1772311654.390413
-20329.065000	-28015.605000	-26956.170000	-14569.155000	0.000000	0.000000	0.000000	0.000000	3.202704	5.603031	-1.283588	-8.492700	0.000000	0.000000	-0.000000	-0.000000	2.975700	0.122080	-0.274680	-0.001282	0.981809	-0.028625	-1.000000	-1.000000	-1.000000	-1.000000	-1.000000	-1.000000	-1.000000	146.965517	0.000000	-1.000000	-1.000000	497446.000000	1772311654.390416
-20319.030000	-28003.635000	-26946.135000	-14563.485000	0.000000	0.000000	0.000000	0.000000	2.749633	-7.443411	1.117624	-2.663805	0.000000	0.000000	-0.000000	-0.000000	2.975700	0.122080	-0.274680	-0.001282	0.981809	-0.028625	-1.000000	-1.000000	-1.000000	-1.000000	-1.000000	-1.000000	-1.000000	146.965517	0.000000	-1.000000	-1.000000	497447.000000	1772311654.394447
-20339.595000	-27992.565000	-26963.595000	-14579.550000	0.000000	0.000000	0.000000	0.000000	1.643823	-19.296619	3.176048	3.657391	0.000000	0.000000	-0.000000	-0.000000	2.975700	0.122080	-0.274680	-0.001282	0.981809	-0.028625	-1.000000	-1.000000	-1.000000	-1.000000	-1.000000	-1.000000	-1.000000	146.965517	0.000000	-1.000000	-1.000000	497448.000000	1772311654.394451
-20334.420000	-28042.515000	-26956.440000	-14564.745000	0.000000	0.000000	0.000000	0.000000	0.303695	-24.388258	3.883940	7.218741	0.000000	0.000000	-0.000000	-0.000000	2.975700	0.122080	-0.274680	-0.001282	0.981809	-0.028625	-1.000000	-1.000000	-1.000000	-1.000000	-1.000000	-1.000000	-1.000000	146.965517	0.000000	-1.000000	-1.000000	497449.000000	1772311654.398414
-20334.330000	-28083.195000	-26959.095000	-14566.770000	0.000000	0.000000	0.000000	0.000000	-1.240269	-23.326537	2.668197	7.072785	0.000000	0.000000	-0.000000	-0.000000	2.975700	0.122080	-0.274680	-0.001282	0.981809	-0.028625	-1.000000	-1.000000	-1.000000	-1.000000	-1.000000	-1.000000	-1.000000	146.965517	0.000000	-1.000000	-1.000000	497450.000000	1772311654.398417
-20337.165000	-28073.700000	-26965.215000	-14583.555000	0.000000	0.000000	0.000000	0.000000	-1.966733	-19.462983	0.540841	4.375065	0.000000	0.000000	-0.000000	-0.000000	2.975700	0.122080	-0.274680	-0.001282	0.981809	-0.028625	-1.000000	-1.000000	-1.000000	-1.000000	-1.000000	-1.000000	-1.000000	146.965517	0.000000	-1.000000	-1.000000	497451.000000	1772311654.402504
-20332.170000	-28057.950000	-26960.265000	-14579.505000	0.000000	0.000000	0.000000	0.000000	-1.326963	-11.499176	-1.315811	0.191600	0.000000	0.000000	-0.000000	-0.000000	2.975700	0.122080	-0.274680	-0.001282	0.981809	-0.028625	-1.000000	-1.000000	-1.000000	-1.000000	-1.000000	-1.000000	-1.000000	146.965517	0.000000	-1.000000	-1.000000	497452.000000	1772311654.402507
-20332.170000	-28020.420000	-26960.265000	-14578.380000	0.000000	0.000000	0.000000	0.000000	0.249918	3.316315	-2.032415	-3.725621	0.000000	0.000000	-0.000000	-0.000000	2.975700	0.122080	-0.274680	-0.001282	0.981809	-0.028625	-1.000000	-1.000000	-1.000000	-1.000000	-1.000000	-1.000000	-1.000000	146.965517	0.000000	-1.000000	-1.000000	497453.000000	1772311654.410184
-20336.310000	-27969.795000	-26961.705000	-14578.065000	0.000000	0.000000	0.000000	0.000000	1.788834	22.649057	-1.349982	-5.109533	0.000000	0.000000	-0.000000	-0.000000	2.975700	0.122080	-0.274680	-0.001282	0.981809	-0.028625	-1.000000	-1.000000	-1.000000	-1.000000	-1.000000	-1.000000	-1.000000	146.965517	0.000000	-1.000000	-1.000000	497454.000000	1772311654.410187
-20340.540000	-27957.780000	-26964.135000	-14578.740000	0.000000	0.000000	0.000000	0.000000	2.125684	38.604123	-0.089269	-3.508773	0.000000	0.000000	-0.000000	-0.000000	3.555580	0.183120	0.030520	-0.002258	0.980955	-0.029541	-1.000000	-1.000000	-1.000000	-1.000000	-1.000000	-1.000000	-1.000000	146.965517	0.000000	-1.000000	-1.000000	497455.000000	1772311654.410191
-20338.425000	-27940.365000	-26958.645000	-14571.045000	0.000000	0.000000	0.000000	0.000000	0.975558	41.786124	0.798524	-0.353740	0.000000	0.000000	-0.000000	-0.000000	3.555580	0.183120	0.030520	-0.002258	0.980955	-0.029541	-1.000000	-1.000000	-1.000000	-1.000000	-1.000000	-1.000000	-1.000000	146.965517	0.000000	-1.000000	-1.000000	497456.000000	1772311654.410194
-20335.365000	-27942.705000	-26961.210000	-14576.895000	0.000000	0.000000	0.000000	0.000000	-0.553528	27.975731	1.136336	2.562191	0.000000	0.000000	-0.000000	-0.000000	3.555580	0.183120	0.030520	-0.002258	0.980955	-0.029541	-1.000000	-1.000000	-1.000000	-1.000000	-1.000000	-1.000000	-1.000000	146.965517	0.000000	-1.000000	-1.000000	497457.000000	1772311654.414513
-20346.840000	-27975.285000	-26974.575000	-14591.520000	0.000000	0.000000	0.000000	0.000000	-1.338349	1.519914	0.802635	3.503570	0.000000	0.000000	-0.000000	-0.000000	3.555580	0.183120	0.030520	-0.002258	0.980955	-0.029541	-1.000000	-1.000000	-1.000000	-1.000000	-1.000000	-1.000000	-1.000000	146.965517	0.000000	-1.000000	-1.000000	497458.000000	1772311654.414516
-20336.085000	-28027.170000	-26960.805000	-14574.870000	0.000000	0.000000	0.000000	0.000000	-1.339928	-28.221749	-0.322882	1.873108	0.000000	0.000000	-0.000000	-0.000000	3.555580	0.183120	0.030520	-0.002258	0.980955	-0.029541	-1.000000	-1.000000	-1.000000	-1.000000	-1.000000	-1.000000	-1.000000	146.965517	0.000000	-1.000000	-1.000000	497459.000000	1772311654.418526
-20328.345000	-28031.580000	-26955.180000	-14570.685000	0.000000	0.000000	0.000000	0.000000	-0.526376	-50.522963	-1.061591	-0.298078	0.000000	0.000000	-0.000000	-0.000000	3.555580	0.183120	0.030520	-0.002258	0.980955	-0.029541	-1.000000	-1.000000	-1.000000	-1.000000	-1.000000	-1.000000	-1.000000	146.965517	0.000000	-1.000000	-1.000000	497460.000000	1772311654.418529
-20329.785000	-28047.195000	-26956.620000	-14572.215000	0.000000	0.000000	0.000000	0.000000	1.208013	-55.486125	-0.174826	-0.700327	0.000000	0.000000	-0.000000	-0.000000	3.555580	0.183120	0.030520	-0.002258	0.980955	-0.029541	-1.000000	-1.000000	-1.000000	-1.000000	-1.000000	-1.000000	-1.000000	146.965517	0.000000	-1.000000	-1.000000	497461.000000	1772311654.422587
-20331.990000	-28060.785000	-26957.520000	-14572.485000	0.000000	0.000000	0.000000	0.000000	2.690280	-39.853730	1.424584	0.238448	0.000000	0.000000	-0.000000	-0.000000	3.555580	0.183120	0.030520	-0.002258	0.980955	-0.029541	-1.000000	-1.000000	-1.000000	-1.000000	-1.000000	-1.000000	-1.000000	146.965517	0.000000	-1.000000	-1.000000	497462.000000	1772311654.422596
-20324.115000	-28102.995000	-26949.420000	-14563.440000	0.000000	0.000000	0.000000	0.000000	2.528166	-11.420374	2.061259	0.898822	0.000000	0.000000	-0.000000	-0.000000	3.555580	0.183120	0.030520	-0.002258	0.980955	-0.029541	-1.000000	-1.000000	-1.000000	-1.000000	-1.000000	-1.000000	-1.000000	146.965517	0.000000	-1.000000	-1.000000	497463.000000	1772311654.426769
-20329.650000	-28116.045000	-26954.190000	-14567.490000	0.000000	0.000000	0.000000	0.000000	0.867441	15.968651	1.380531	0.750103	0.000000	0.000000	-0.000000	-0.000000	3.555580	0.183120	0.030520	-0.002258	0.980955	-0.029541	-1.000000	-1.000000	-1.000000	-1.000000	-1.000000	-1.000000	-1.000000	146.965517	0.000000	-1.000000	-1.000000	497464.000000	1772311654.426790
-20329.830000	-28134.270000	-26951.670000	-14565.240000	0.000000	0.000000	0.000000	0.000000	-1.312151	32.377092	-0.101302	-0.057108	0.000000	0.000000	-0.000000	-0.000000	3.601360	0.045780	-0.137340	-0.001221	0.981260	-0.031006	-1.000000	-1.000000	-1.000000	-1.000000	-1.000000	-1.000000	-1.000000	146.965517	0.000000	-1.000000	-1.000000	497465.000000	1772311654.430688
-20329.740000	-28131.570000	-26951.445000	-14565.015000	0.000000	0.000000	0.000000	0.000000	-3.138476	36.288659	-1.705676	-1.235884	0.000000	0.000000	-0.000000	-0.000000	3.601360	0.045780	-0.137340	-0.001221	0.981260	-0.031006	-1.000000	-1.000000	-1.000000	-1.000000	-1.000000	-1.000000	-1.000000	146.965517	0.000000	-1.000000	-1.000000	497466.000000	1772311654.430700
-20330.190000	-28124.685000	-26952.435000	-14565.015000	0.000000	0.000000	0.000000	0.000000	-3.836198	31.845664	-2.701843	-2.214084	0.000000	0.000000	-0.000000	-0.000000	3.601360	0.045780	-0.137340	-0.001221	0.981260	-0.031006	-1.000000	-1.000000	-1.000000	-1.000000	-1.000000	-1.000000	-1.000000	146.965517	0.000000	-1.000000	-1.000000	497467.000000	1772311654.434547
-20328.795000	-28132.110000	-26949.690000	-14561.145000	0.000000	0.000000	0.000000	0.000000	-3.075722	23.782878	-2.700384	-2.434433	0.000000	0.000000	-0.000000	-0.000000	3.601360	0.045780	-0.137340	-0.001221	0.981260	-0.031006	-1.000000	-1.000000	-1.000000	-1.000000	-1.000000	-1.000000	-1.000000	146.965517	0.000000	-1.000000	-1.000000	497468.000000	1772311654.434570
-20323.665000	-28136.295000	-26945.370000	-14556.870000	0.000000	0.000000	0.000000	0.000000	-1.155705	14.190951	-1.693445	-1.635843	0.000000	0.000000	-0.000000	-0.000000	3.601360	0.045780	-0.137340	-0.001221	0.981260	-0.031006	-1.000000	-1.000000	-1.000000	-1.000000	-1.000000	-1.000000	-1.000000	146.965517	0.000000	-1.000000	-1.000000	497469.000000	1772311654.438551
-20324.925000	-28131.255000	-26952.795000	-14566.320000	0.000000	0.000000	0.000000	0.000000	1.190803	3.718755	-0.141322	-0.246603	0.000000	0.000000	-0.000000	-0.000000	3.601360	0.045780	-0.137340	-0.001221	0.981260	-0.031006	-1.000000	-1.000000	-1.000000	-1.000000	-1.000000	-1.000000	-1.000000	146.965517	0.000000	-1.000000	-1.000000	497470.000000	1772311654.438557
-20314.440000	-28122.975000	-26940.690000	-14557.545000	0.000000	0.000000	0.000000	0.000000	3.069823	-5.758703	1.131841	0.722884	0.000000	0.000000	-0.000000	-0.000000	3.601360	0.045780	-0.137340	-0.001221	0.981260	-0.031006	-1.000000	-1.000000	-1.000000	-1.000000	-1.000000	-1.000000	-1.000000	146.965517	0.000000	-1.000000	-1.000000	497471.000000	1772311654.442531
-20308.365000	-28094.040000	-26933.040000	-14551.740000	0.000000	0.000000	0.000000	0.000000	4.040953	-11.328471	2.015181	1.088817	0.000000	0.000000	-0.000000	-0.000000	3.601360	0.045780	-0.137340	-0.001221	0.981260	-0.031006	-1.000000	-1.000000	-1.000000	-1.000000	-1.000000	-1.000000	-1.000000	146.965517	0.000000	-1.000000	-1.000000	497472.000000	1772311654.442534
-20343.330000	-28058.310000	-26969.400000	-14585.850000	0.000000	0.000000	0.000000	0.000000	3.383251	-10.922332	2.189332	0.889911	0.000000	0.000000	-0.000000	-0.000000	3.601360	0.045780	-0.137340	-0.001221	0.981260	-0.031006	-1.000000	-1.000000	-1.000000	-1.000000	-1.000000	-1.000000	-1.000000	146.965517	0.000000	-1.000000	-1.000000	497473.000000	1772311654.447386
-20356.335000	-28036.125000	-26981.100000	-14594.085000	0.000000	0.000000	0.000000	0.000000	-0.439934	-5.371798	-0.165170	-1.073707	0.000000	0.000000	-0.000000	-0.000000	3.601360	0.045780	-0.137340	-0.001221	0.981260	-0.031006	-1.000000	-1.000000	-1.000000	-1.000000	-1.000000	-1.000000	-1.000000	146.965517	0.000000	-1.000000	-1.000000	497474.000000	1772311654.447390
-20331.990000	-28019.025000	-26955.450000	-14567.940000	0.000000	0.000000	0.000000	0.000000	-6.070595	0.910293	-4.434633	-4.033158	0.000000	0.000000	-0.000000	-0.000000	2.731540	0.350980	-0.289940	-0.001282	0.981687	-0.032226	-1.000000	-1.000000	-1.000000	-1.000000	-1.000000	-1.000000	-1.000000	146.965517	0.000000	-1.000000	-1.000000	497475.000000	1772311654.450481
-20341.845000	-28009.305000	-26966.880000	-14578.110000	0.000000	0.000000	0.000000	0.000000	-8.296943	2.832497	-5.982892	-4.074826	0.000000	0.000000	-0.000000	-0.000000	2.731540	0.350980	-0.289940	-0.001282	0.981687	-0.032226	-1.000000	-1.000000	-1.000000	-1.000000	-1.000000	-1.000000	-1.000000	146.965517	0.000000	-1.000000	-1.000000	497476.000000	1772311654.450484
-20348.730000	-28010.205000	-26975.520000	-14585.670000	0.000000	0.000000	0.000000	0.000000	-4.780106	-1.508611	-2.760686	-0.134197	0.000000	0.000000	-0.000000	-0.000000	2.731540	0.350980	-0.289940	-0.001282	0.981687	-0.032226	-1.000000	-1.000000	-1.000000	-1.000000	-1.000000	-1.000000	-1.000000	146.965517	0.000000	-1.000000	-1.000000	497477.000000	1772311654.456278
-20334.600000	-28033.830000	-26963.145000	-14579.820000	0.000000	0.000000	0.000000	0.000000	1.440905	-10.306208	2.286358	4.316247	0.000000	0.000000	-0.000000	-0.000000	2.731540	0.350980	-0.289940	-0.001282	0.981687	-0.032226	-1.000000	-1.000000	-1.000000	-1.000000	-1.000000	-1.000000	-1.000000	146.965517	0.000000	-1.000000	-1.000000	497478.000000	1772311654.456281
-20338.110000	-28015.245000	-26965.980000	-14587.920000	0.000000	0.000000	0.000000	0.000000	6.747623	-19.168333	6.140755	6.276125	0.000000	0.000000	-0.000000	-0.000000	2.731540	0.350980	-0.289940	-0.001282	0.981687	-0.032226	-1.000000	-1.000000	-1.000000	-1.000000	-1.000000	-1.000000	-1.000000	146.965517	0.000000	-1.000000	-1.000000	497479.000000	1772311654.458537
-20327.760000	-27993.015000	-26952.570000	-14571.270000	0.000000	0.000000	0.000000	0.000000	9.280352	-21.872103	7.807765	5.573061	0.000000	0.000000	-0.000000	-0.000000	2.731540	0.350980	-0.289940	-0.001282	0.981687	-0.032226	-1.000000	-1.000000	-1.000000	-1.000000	-1.000000	-1.000000	-1.000000	146.965517	0.000000	-1.000000	-1.000000	497480.000000	1772311654.458540
-20299.185000	-27980.595000	-26923.635000	-14536.305000	0.000000	0.000000	0.000000	0.000000	9.027182	-14.431126	7.794061	4.391786	0.000000	0.000000	-0.000000	-0.000000	2.731540	0.350980	-0.289940	-0.001282	0.981687	-0.032226	-1.000000	-1.000000	-1.000000	-1.000000	-1.000000	-1.000000	-1.000000	146.965517	0.000000	-1.000000	-1.000000	497481.000000	1772311654.462585
-20300.895000	-27965.880000	-26925.165000	-14531.940000	0.000000	0.000000	0.000000	0.000000	7.343825	0.144436	7.132889	4.986106	0.000000	0.000000	-0.000000	-0.000000	2.731540	0.350980	-0.289940	-0.001282	0.981687	-0.032226	-1.000000	-1.000000	-1.000000	-1.000000	-1.000000	-1.000000	-1.000000	146.965517	0.000000	-1.000000	-1.000000	497482.000000	1772311654.462588
-20353.680000	-27954.990000	-26976.195000	-14576.265000	0.000000	0.000000	0.000000	0.000000	3.459110	14.001990	4.218932	5.193135	0.000000	0.000000	-0.000000	-0.000000	2.731540	0.350980	-0.289940	-0.001282	0.981687	-0.032226	-1.000000	-1.000000	-1.000000	-1.000000	-1.000000	-1.000000	-1.000000	146.965517	0.000000	-1.000000	-1.000000	497483.000000	1772311654.466621
-20363.175000	-27920.385000	-26992.845000	-14608.665000	0.000000	0.000000	0.000000	0.000000	-5.156956	21.057368	-4.169820	-0.489433	0.000000	0.000000	-0.000000	-0.000000	2.731540	0.350980	-0.289940	-0.001282	0.981687	-0.032226	-1.000000	-1.000000	-1.000000	-1.000000	-1.000000	-1.000000	-1.000000	146.965517	0.000000	-1.000000	-1.000000	497484.000000	1772311654.466624
-20355.705000	-27906.480000	-26987.580000	-14614.605000	0.000000	0.000000	0.000000	0.000000	-15.776506	20.348268	-15.606577	-12.303681	0.000000	0.000000	-0.000000	-0.000000	1.464960	0.396760	-0.686700	0.000000	0.981565	-0.033447	-1.000000	-1.000000	-1.000000	-1.000000	-1.000000	-1.000000	-1.000000	146.965517	0.000000	-1.000000	-1.000000	497485.000000	1772311654.470584
-20352.735000	-27897.570000	-26981.685000	-14594.265000	0.000000	0.000000	0.000000	0.000000	-20.144383	13.865991	-21.336511	-21.619692	0.000000	0.000000	-0.000000	-0.000000	1.464960	0.396760	-0.686700	0.000000	0.981565	-0.033447	-1.000000	-1.000000	-1.000000	-1.000000	-1.000000	-1.000000	-1.000000	146.965517	0.000000	-1.000000	-1.000000	497486.000000	1772311654.470593
-20355.120000	-27889.335000	-26986.185000	-14596.605000	0.000000	0.000000	0.000000	0.000000	-13.798928	3.926262	-15.712271	-19.300391	0.000000	0.000000	-0.000000	-0.000000	1.464960	0.396760	-0.686700	0.000000	0.981565	-0.033447	-1.000000	-1.000000	-1.000000	-1.000000	-1.000000	-1.000000	-1.000000	146.965517	0.000000	-1.000000	-1.000000	497487.000000	1772311654.474688
-20339.820000	-27901.755000	-26972.100000	-14590.395000	0.000000	0.000000	0.000000	0.000000	-0.394986	-6.918017	-1.799048	-5.495275	0.000000	0.000000	-0.000000	-0.000000	1.464960	0.396760	-0.686700	0.000000	0.981565	-0.033447	-1.000000	-1.000000	-1.000000	-1.000000	-1.000000	-1.000000	-1.000000	146.965517	0.000000	-1.000000	-1.000000	497488.000000	1772311654.474692
-20332.980000	-27914.760000	-26959.140000	-14569.965000	0.000000	0.000000	0.000000	0.000000	12.921931	-16.152297	12.862316	11.483808	0.000000	0.000000	-0.000000	-0.000000	1.464960	0.396760	-0.686700	0.000000	0.981565	-0.033447	-1.000000	-1.000000	-1.000000	-1.000000	-1.000000	-1.000000	-1.000000	146.965517	0.000000	-1.000000	-1.000000	497489.000000	1772311654.478660
-20348.865000	-27920.295000	-26970.390000	-14574.690000	0.000000	0.000000	0.000000	0.000000	20.006687	-21.487240	21.607892	22.966675	0.000000	0.000000	-0.000000	-0.000000	1.464960	0.396760	-0.686700	0.000000	0.981565	-0.033447	-1.000000	-1.000000	-1.000000	-1.000000	-1.000000	-1.000000	-1.000000	146.965517	0.000000	-1.000000	-1.000000	497490.000000	1772311654.478664
-20353.860000	-27918.090000	-26983.215000	-14597.865000	0.000000	0.000000	0.000000	0.000000	17.605838	-20.631615	20.495586	23.726591	0.000000	0.000000	-0.000000	-0.000000	1.464960	0.396760	-0.686700	0.000000	0.981565	-0.033447	-1.000000	-1.000000	-1.000000	-1.000000	-1.000000	-1.000000	-1.000000	146.965517	0.000000	-1.000000	-1.000000	497491.000000	1772311654.482670
-20353.995000	-27897.210000	-26986.770000	-14604.345000	0.000000	0.000000	0.000000	0.000000	7.495717	-12.421457	10.157088	13.257794	0.000000	0.000000	-0.000000	-0.000000	1.464960	0.396760	-0.686700	0.000000	0.981565	-0.033447	-1.000000	-1.000000	-1.000000	-1.000000	-1.000000	-1.000000	-1.000000	146.965517	0.000000	-1.000000	-1.000000	497492.000000	1772311654.482673
-20344.140000	-27849.240000	-26975.250000	-14586.435000	0.000000	0.000000	0.000000	0.000000	-3.922672	2.059867	-3.291291	-2.349725	0.000000	0.000000	-0.000000	-0.000000	1.464960	0.396760	-0.686700	0.000000	0.981565	-0.033447	-1.000000	-1.000000	-1.000000	-1.000000	-1.000000	-1.000000	-1.000000	146.965517	0.000000	-1.000000	-1.000000	497493.000000	1772311654.486666
-20336.445000	-27841.590000	-26980.020000	-14603.490000	0.000000	0.000000	0.000000	0.000000	-10.268785	18.571263	-12.261192	-13.854427	0.000000	0.000000	-0.000000	-0.000000	1.464960	0.396760	-0.686700	0.000000	0.981565	-0.033447	-1.000000	-1.000000	-1.000000	-1.000000	-1.000000	-1.000000	-1.000000	146.965517	0.000000	-1.000000	-1.000000	497494.000000	1772311654.486670
-20330.505000	-27896.490000	-26968.815000	-14588.280000	0.000000	0.000000	0.000000	0.000000	-9.523886	28.250493	-13.315347	-16.397229	0.000000	0.000000	-0.000000	-0.000000	1.693860	0.396760	-0.717220	-0.001099	0.982480	-0.031250	-1.000000	-1.000000	-1.000000	-1.000000	-1.000000	-1.000000	-1.000000	146.965517	0.000000	-1.000000	-1.000000	497495.000000	1772311654.490754
-20335.185000	-27904.545000	-26971.020000	-14584.455000	0.000000	0.000000	0.000000	0.000000	-4.505450	22.405727	-8.225612	-11.155140	0.000000	0.000000	-0.000000	-0.000000	1.693860	0.396760	-0.717220	-0.001099	0.982480	-0.031250	-1.000000	-1.000000	-1.000000	-1.000000	-1.000000	-1.000000	-1.000000	146.965517	0.000000	-1.000000	-1.000000	497496.000000	1772311654.490758
-20337.120000	-27858.555000	-26971.335000	-14584.185000	0.000000	0.000000	0.000000	0.000000	0.102779	4.153588	-1.350611	-2.327464	0.000000	0.000000	-0.000000	-0.000000	1.693860	0.396760	-0.717220	-0.001099	0.982480	-0.031250	-1.000000	-1.000000	-1.000000	-1.000000	-1.000000	-1.000000	-1.000000	146.965517	0.000000	-1.000000	-1.000000	497497.000000	1772311654.494643
-20326.230000	-27855.765000	-26957.790000	-14568.120000	0.000000	0.000000	0.000000	0.000000	1.700103	-11.848284	3.577611	5.385166	0.000000	0.000000	-0.000000	-0.000000	1.693860	0.396760	-0.717220	-0.001099	0.982480	-0.031250	-1.000000	-1.000000	-1.000000	-1.000000	-1.000000	-1.000000	-1.000000	146.965517	0.000000	-1.000000	-1.000000	497498.000000	1772311654.494646
-20333.700000	-27849.465000	-26964.360000	-14574.240000	0.000000	0.000000	0.000000	0.000000	0.960658	-15.464178	5.355503	9.069163	0.000000	0.000000	-0.000000	-0.000000	1.693860	0.396760	-0.717220	-0.001099	0.982480	-0.031250	-1.000000	-1.000000	-1.000000	-1.000000	-1.000000	-1.000000	-1.000000	146.965517	0.000000	-1.000000	-1.000000	497499.000000	1772311654.498703
-20343.240000	-27841.275000	-26976.330000	-14585.850000	0.000000	0.000000	0.000000	0.000000	-0.709964	-9.077531	4.087031	7.789005	0.000000	0.000000	-0.000000	-0.000000	1.693860	0.396760	-0.717220	-0.001099	0.982480	-0.031250	-1.000000	-1.000000	-1.000000	-1.000000	-1.000000	-1.000000	-1.000000	146.965517	0.000000	-1.000000	-1.000000	497500.000000	1772311654.498707
-20337.660000	-27861.255000	-26970.525000	-14576.220000	0.000000	0.000000	0.000000	0.000000	-2.545391	-0.880527	0.408059	2.417071	0.000000	0.000000	-0.000000	-0.000000	1.693860	0.396760	-0.717220	-0.001099	0.982480	-0.031250	-1.000000	-1.000000	-1.000000	-1.000000	-1.000000	-1.000000	-1.000000	146.965517	0.000000	-1.000000	-1.000000	497501.000000	1772311654.502727
-20358.990000	-27841.140000	-26992.755000	-14594.085000	0.000000	0.000000	0.000000	0.000000	-3.719036	3.057385	-3.795568	-3.946718	0.000000	0.000000	-0.000000	-0.000000	1.693860	0.396760	-0.717220	-0.001099	0.982480	-0.031250	-1.000000	-1.000000	-1.000000	-1.000000	-1.000000	-1.000000	-1.000000	146.965517	0.000000	-1.000000	-1.000000	497502.000000	1772311654.502744
-20353.545000	-27836.235000	-26990.055000	-14601.780000	0.000000	0.000000	0.000000	0.000000	-3.745239	2.523537	-6.519630	-8.309788	0.000000	0.000000	-0.000000	-0.000000	1.693860	0.396760	-0.717220	-0.001099	0.982480	-0.031250	-1.000000	-1.000000	-1.000000	-1.000000	-1.000000	-1.000000	-1.000000	146.965517	0.000000	-1.000000	-1.000000	497503.000000	1772311654.506741
-20344.860000	-27851.940000	-26982.135000	-14599.665000	0.000000	0.000000	0.000000	0.000000	-2.179886	0.539893	-6.307170	-9.379731	0.000000	0.000000	-0.000000	-0.000000	1.693860	0.396760	-0.717220	-0.001099	0.982480	-0.031250	-1.000000	-1.000000	-1.000000	-1.000000	-1.000000	-1.000000	-1.000000	146.965517	0.000000	-1.000000	-1.000000	497504.000000	1772311654.506745
-20337.885000	-27880.920000	-26969.580000	-14583.015000	0.000000	0.000000	0.000000	0.000000	1.542419	-2.017312	-2.230312	-6.387952	0.000000	0.000000	-0.000000	-0.000000	2.639980	0.091560	-0.549360	-0.001770	0.981565	-0.028198	-1.000000	-1.000000	-1.000000	-1.000000	-1.000000	-1.000000	-1.000000	146.965517	0.000000	-1.000000	-1.000000	497505.000000	1772311654.517368
-20344.680000	-27849.420000	-26976.645000	-14588.280000	0.000000	0.000000	0.000000	0.000000	6.143410	-5.010074	4.284527	0.235229	0.000000	0.000000	-0.000000	-0.000000	2.639980	0.091560	-0.549360	-0.001770	0.981565	-0.028198	-1.000000	-1.000000	-1.000000	-1.000000	-1.000000	-1.000000	-1.000000	146.965517	0.000000	-1.000000	-1.000000	497506.000000	1772311654.517372
-20362.095000	-27774.270000	-26995.995000	-14610.735000	0.000000	0.000000	0.000000	0.000000	8.220138	-4.048101	8.862990	6.823809	0.000000	0.000000	-0.000000	-0.000000	2.639980	0.091560	-0.549360	-0.001770	0.981565	-0.028198	-1.000000	-1.000000	-1.000000	-1.000000	-1.000000	-1.000000	-1.000000	146.965517	0.000000	-1.000000	-1.000000	497507.000000	1772311654.517376
-20371.590000	-27754.200000	-27003.105000	-14619.195000	0.000000	0.000000	0.000000	0.000000	5.330986	5.410839	7.671768	8.544977	0.000000	0.000000	-0.000000	-0.000000	2.639980	0.091560	-0.549360	-0.001770	0.981565	-0.028198	-1.000000	-1.000000	-1.000000	-1.000000	-1.000000	-1.000000	-1.000000	146.965517	0.000000	-1.000000	-1.000000	497508.000000	1772311654.517379
-20358.360000	-27773.055000	-26987.670000	-14600.115000	0.000000	0.000000	0.000000	0.000000	-0.741165	17.943738	1.910440	5.013151	0.000000	0.000000	-0.000000	-0.000000	2.639980	0.091560	-0.549360	-0.001770	0.981565	-0.028198	-1.000000	-1.000000	-1.000000	-1.000000	-1.000000	-1.000000	-1.000000	146.965517	0.000000	-1.000000	-1.000000	497509.000000	1772311654.518664
-20334.105000	-27795.420000	-26965.485000	-14573.655000	0.000000	0.000000	0.000000	0.000000	-4.617670	20.549855	-2.675422	1.384650	0.000000	0.000000	-0.000000	-0.000000	2.639980	0.091560	-0.549360	-0.001770	0.981565	-0.028198	-1.000000	-1.000000	-1.000000	-1.000000	-1.000000	-1.000000	-1.000000	146.965517	0.000000	-1.000000	-1.000000	497510.000000	1772311654.518667
-20340.945000	-27809.955000	-26976.915000	-14584.230000	0.000000	0.000000	0.000000	0.000000	-2.816475	7.243939	-2.185164	1.806036	0.000000	0.000000	-0.000000	-0.000000	2.639980	0.091560	-0.549360	-0.001770	0.981565	-0.028198	-1.000000	-1.000000	-1.000000	-1.000000	-1.000000	-1.000000	-1.000000	146.965517	0.000000	-1.000000	-1.000000	497511.000000	1772311654.522746
-20326.410000	-27791.775000	-26960.625000	-14573.070000	0.000000	0.000000	0.000000	0.000000	2.322390	-13.755410	1.379078	4.350001	0.000000	0.000000	-0.000000	-0.000000	2.639980	0.091560	-0.549360	-0.001770	0.981565	-0.028198	-1.000000	-1.000000	-1.000000	-1.000000	-1.000000	-1.000000	-1.000000	146.965517	0.000000	-1.000000	-1.000000	497512.000000	1772311654.522749
-20323.755000	-27799.650000	-26960.175000	-14575.950000	0.000000	0.000000	0.000000	0.000000	5.974831	-27.900495	3.863757	4.705092	0.000000	0.000000	-0.000000	-0.000000	2.639980	0.091560	-0.549360	-0.001770	0.981565	-0.028198	-1.000000	-1.000000	-1.000000	-1.000000	-1.000000	-1.000000	-1.000000	146.965517	0.000000	-1.000000	-1.000000	497513.000000	1772311654.526805
-20326.545000	-27776.835000	-26958.195000	-14569.245000	0.000000	0.000000	0.000000	0.000000	5.502143	-26.840303	3.323881	1.509251	0.000000	0.000000	-0.000000	-0.000000	2.639980	0.091560	-0.549360	-0.001770	0.981565	-0.028198	-1.000000	-1.000000	-1.000000	-1.000000	-1.000000	-1.000000	-1.000000	146.965517	0.000000	-1.000000	-1.000000	497514.000000	1772311654.526816
-20330.820000	-27709.515000	-26960.850000	-14572.890000	0.000000	0.000000	0.000000	0.000000	1.056703	-11.659568	0.061636	-3.469100	0.000000	0.000000	-0.000000	-0.000000	3.128300	0.091560	-0.457800	-0.002625	0.981992	-0.027832	-1.000000	-1.000000	-1.000000	-1.000000	-1.000000	-1.000000	-1.000000	146.965517	0.000000	-1.000000	-1.000000	497515.000000	1772311654.530752
-20338.245000	-27695.745000	-26970.930000	-14586.165000	0.000000	0.000000	0.000000	0.000000	-5.211302	10.679309	-4.437948	-7.894989	0.000000	0.000000	-0.000000	-0.000000	3.128300	0.091560	-0.457800	-0.002625	0.981992	-0.027832	-1.000000	-1.000000	-1.000000	-1.000000	-1.000000	-1.000000	-1.000000	146.965517	0.000000	-1.000000	-1.000000	497516.000000	1772311654.530755
-20333.205000	-27696.330000	-26968.545000	-14581.755000	0.000000	0.000000	0.000000	0.000000	-10.082726	28.577389	-8.201937	-10.326073	-0.000000	0.000000	-0.000000	-0.000000	3.128300	0.091560	-0.457800	-0.002625	0.981992	-0.027832	-1.000000	-1.000000	-1.000000	-1.000000	-1.000000	-1.000000	-1.000000	146.965517	0.000000	-1.000000	-1.000000	497517.000000	1772311654.534731
-20343.690000	-27732.375000	-26977.455000	-14589.495000	0.000000	0.000000	0.000000	0.000000	-11.004608	30.294622	-9.400401	-9.819325	-0.000000	0.000000	-0.000000	-0.000000	3.128300	0.091560	-0.457800	-0.002625	0.981992	-0.027832	-1.000000	-1.000000	-1.000000	-1.000000	-1.000000	-1.000000	-1.000000	146.965517	0.000000	-1.000000	-1.000000	497518.000000	1772311654.534735
-20344.725000	-27754.515000	-26979.930000	-14594.310000	0.000000	0.000000	0.000000	0.000000	-7.828343	13.077313	-7.391804	-6.337219	-0.000000	0.000000	-0.000000	-0.000000	3.128300	0.091560	-0.457800	-0.002625	0.981992	-0.027832	-1.000000	-1.000000	-1.000000	-1.000000	-1.000000	-1.000000	-1.000000	146.965517	0.000000	-1.000000	-1.000000	497519.000000	1772311654.538847
-20326.995000	-27770.220000	-26959.455000	-14577.255000	0.000000	0.000000	0.000000	0.000000	-2.111867	-13.362569	-2.713119	-0.975652	-0.000000	0.000000	-0.000000	-0.000000	3.128300	0.091560	-0.457800	-0.002625	0.981992	-0.027832	-1.000000	-1.000000	-1.000000	-1.000000	-1.000000	-1.000000	-1.000000	146.965517	0.000000	-1.000000	-1.000000	497520.000000	1772311654.538850
-20337.930000	-27793.620000	-26974.755000	-14588.865000	0.000000	0.000000	0.000000	0.000000	4.353459	-33.635023	3.411134	4.845378	-0.000000	0.000000	-0.000000	-0.000000	3.128300	0.091560	-0.457800	-0.002625	0.981992	-0.027832	-1.000000	-1.000000	-1.000000	-1.000000	-1.000000	-1.000000	-1.000000	146.965517	0.000000	-1.000000	-1.000000	497521.000000	1772311654.543345
-20352.465000	-27866.880000	-26991.810000	-14598.855000	0.000000	0.000000	0.000000	0.000000	8.743587	-38.607886	7.929611	8.782780	-0.000000	0.000000	-0.000000	-0.000000	3.128300	0.091560	-0.457800	-0.002625	0.981992	-0.027832	-1.000000	-1.000000	-1.000000	-1.000000	-1.000000	-1.000000	-1.000000	146.965517	0.000000	-1.000000	-1.000000	497522.000000	1772311654.543348
-20338.695000	-27913.905000	-26969.490000	-14579.865000	0.000000	0.000000	0.000000	0.000000	8.641430	-30.484515	8.107552	8.924153	-0.000000	0.000000	-0.000000	-0.000000	3.128300	0.091560	-0.457800	-0.002625	0.981992	-0.027832	-1.000000	-1.000000	-1.000000	-1.000000	-1.000000	-1.000000	-1.000000	146.965517	0.000000	-1.000000	-1.000000	497523.000000	1772311654.546837
-20344.455000	-27914.445000	-26963.595000	-14575.140000	0.000000	0.000000	0.000000	0.000000	5.233668	-15.344462	5.583667	6.593629	-0.000000	0.000000	-0.000000	-0.000000	3.128300	0.091560	-0.457800	-0.002625	0.981992	-0.027832	-1.000000	-1.000000	-1.000000	-1.000000	-1.000000	-1.000000	-1.000000	146.965517	0.000000	-1.000000	-1.000000	497524.000000	1772311654.546840
-20337.030000	-27905.130000	-26963.415000	-14573.070000	0.000000	0.000000	0.000000	0.000000	1.635929	4.370766	3.631445	4.237857	-0.000000	0.000000	-0.000000	-0.000000	3.570840	0.396760	-0.350980	-0.002258	0.980161	-0.027954	-1.000000	-1.000000	-1.000000	-1.000000	-1.000000	-1.000000	-1.000000	146.965517	0.000000	-1.000000	-1.000000	497525.000000	1772311654.550850
-20328.165000	-27932.580000	-26952.435000	-14556.555000	0.000000	0.000000	0.000000	0.000000	-0.249587	25.972204	2.753014	2.478531	-0.000000	0.000000	-0.000000	-0.000000	3.570840	0.396760	-0.350980	-0.002258	0.980161	-0.027954	-1.000000	-1.000000	-1.000000	-1.000000	-1.000000	-1.000000	-1.000000	146.965517	0.000000	-1.000000	-1.000000	497526.000000	1772311654.550853
-20331.405000	-27968.040000	-26953.605000	-14551.605000	0.000000	0.000000	0.000000	0.000000	-0.288392	41.152545	1.785440	1.073409	-0.000000	0.000000	-0.000000	-0.000000	3.570840	0.396760	-0.350980	-0.002258	0.980161	-0.027954	-1.000000	-1.000000	-1.000000	-1.000000	-1.000000	-1.000000	-1.000000	146.965517	0.000000	-1.000000	-1.000000	497527.000000	1772311654.554841
-20319.390000	-28019.610000	-26939.340000	-14537.385000	0.000000	0.000000	0.000000	0.000000	0.329394	40.915090	0.150538	-0.141421	-0.000000	0.000000	-0.000000	-0.000000	3.570840	0.396760	-0.350980	-0.002258	0.980161	-0.027954	-1.000000	-1.000000	-1.000000	-1.000000	-1.000000	-1.000000	-1.000000	146.965517	0.000000	-1.000000	-1.000000	497528.000000	1772311654.554856
-20308.410000	-28064.430000	-26931.690000	-14548.230000	0.000000	0.000000	0.000000	0.000000	0.656245	24.205595	-1.627885	-1.657726	-0.000000	0.000000	-0.000000	-0.000000	3.570840	0.396760	-0.350980	-0.002258	0.980161	-0.027954	-1.000000	-1.000000	-1.000000	-1.000000	-1.000000	-1.000000	-1.000000	146.965517	0.000000	-1.000000	-1.000000	497529.000000	1772311654.558960
-20308.320000	-28081.620000	-26938.215000	-14568.930000	0.000000	0.000000	0.000000	0.000000	0.609730	0.024354	-2.938004	-4.548382	-0.000000	0.000000	-0.000000	-0.000000	3.570840	0.396760	-0.350980	-0.002258	0.980161	-0.027954	-1.000000	-1.000000	-1.000000	-1.000000	-1.000000	-1.000000	-1.000000	146.965517	0.000000	-1.000000	-1.000000	497530.000000	1772311654.558981
-20328.120000	-28070.685000	-26959.230000	-14588.505000	0.000000	0.000000	0.000000	0.000000	-0.532082	-17.776752	-4.557538	-9.358888	-0.000000	0.000000	-0.000000	-0.000000	3.570840	0.396760	-0.350980	-0.002258	0.980161	-0.027954	-1.000000	-1.000000	-1.000000	-1.000000	-1.000000	-1.000000	-1.000000	146.965517	0.000000	-1.000000	-1.000000	497531.000000	1772311654.562904
-20343.240000	-28094.715000	-26970.525000	-14586.705000	0.000000	0.000000	0.000000	0.000000	-3.978849	-20.156118	-7.514226	-13.906907	-0.000000	0.000000	-0.000000	-0.000000	3.570840	0.396760	-0.350980	-0.002258	0.980161	-0.027954	-1.000000	-1.000000	-1.000000	-1.000000	-1.000000	-1.000000	-1.000000	146.965517	0.000000	-1.000000	-1.000000	497532.000000	1772311654.562907
-20334.150000	-28106.190000	-26963.415000	-14577.120000	0.000000	0.000000	0.000000	0.000000	-8.576544	-9.749423	-10.286952	-13.707257	-0.000000	0.000000	-0.000000	-0.000000	3.570840	0.396760	-0.350980	-0.002258	0.980161	-0.027954	-1.000000	-1.000000	-1.000000	-1.000000	-1.000000	-1.000000	-1.000000	146.965517	0.000000	-1.000000	-1.000000	497533.000000	1772311654.566841
-20341.170000	-28082.385000	-26966.565000	-14581.620000	0.000000	0.000000	0.000000	0.000000	-10.423553	3.913589	-9.396830	-6.423130	-0.000000	0.000000	-0.000000	-0.000000	3.570840	0.396760	-0.350980	-0.002258	0.980161	-0.027954	-1.000000	-1.000000	-1.000000	-1.000000	-1.000000	-1.000000	-1.000000	146.965517	0.000000	-1.000000	-1.000000	497534.000000	1772311654.566844
-20354.040000	-28026.270000	-26981.955000	-14601.510000	0.000000	0.000000	0.000000	0.000000	-7.361677	14.810430	-3.884922	4.443237	-0.000000	0.000000	-0.000000	-0.000000	3.616620	0.228900	-0.045780	-0.000916	0.981260	-0.030395	-1.000000	-1.000000	-1.000000	-1.000000	-1.000000	-1.000000	-1.000000	146.965517	0.000000	-1.000000	-1.000000	497535.000000	1772311654.572022
-20343.645000	-27957.645000	-26977.455000	-14597.865000	0.000000	0.000000	0.000000	0.000000	-1.179616	22.699555	3.216964	12.351878	-0.000000	0.000000	-0.000000	-0.000000	3.616620	0.228900	-0.045780	-0.000916	0.981260	-0.030395	-1.000000	-1.000000	-1.000000	-1.000000	-1.000000	-1.000000	-1.000000	146.965517	0.000000	-1.000000	-1.000000	497536.000000	1772311654.572026
-20327.760000	-27953.190000	-26961.795000	-14573.295000	0.000000	0.000000	0.000000	0.000000	5.654821	26.666737	8.904187	14.559789	-0.000000	0.000000	-0.000000	-0.000000	3.616620	0.228900	-0.045780	-0.000916	0.981260	-0.030395	-1.000000	-1.000000	-1.000000	-1.000000	-1.000000	-1.000000	-1.000000	146.965517	0.000000	-1.000000	-1.000000	497537.000000	1772311654.577489
-20332.845000	-27956.745000	-26973.495000	-14594.265000	0.000000	0.000000	0.000000	0.000000	11.430998	21.169062	12.179401	12.944738	-0.000000	0.000000	-0.000000	-0.000000	3.616620	0.228900	-0.045780	-0.000916	0.981260	-0.030395	-1.000000	-1.000000	-1.000000	-1.000000	-1.000000	-1.000000	-1.000000	146.965517	0.000000	-1.000000	-1.000000	497538.000000	1772311654.577493
-20334.870000	-27963.765000	-26968.185000	-14586.255000	0.000000	0.000000	0.000000	0.000000	13.697631	2.391837	12.149694	8.991987	-0.000000	0.000000	-0.000000	-0.000000	3.616620	0.228900	-0.045780	-0.000916	0.981260	-0.030395	-1.000000	-1.000000	-1.000000	-1.000000	-1.000000	-1.000000	-1.000000	146.965517	0.000000	-1.000000	-1.000000	497539.000000	1772311654.579014
-20330.370000	-27987.435000	-26959.860000	-14577.255000	0.000000	0.000000	0.000000	0.000000	10.726234	-24.257289	8.586171	3.432529	-0.000000	0.000000	-0.000000	-0.000000	3.616620	0.228900	-0.045780	-0.000916	0.981260	-0.030395	-1.000000	-1.000000	-1.000000	-1.000000	-1.000000	-1.000000	-1.000000	146.965517	0.000000	-1.000000	-1.000000	497540.000000	1772311654.579018
-20330.280000	-28020.600000	-26959.905000	-14577.795000	0.000000	0.000000	0.000000	0.000000	3.994089	-47.193700	3.283857	-1.713655	-0.000000	0.000000	-0.000000	-0.000000	3.616620	0.228900	-0.045780	-0.000916	0.981260	-0.030395	-1.000000	-1.000000	-1.000000	-1.000000	-1.000000	-1.000000	-1.000000	146.965517	0.000000	-1.000000	-1.000000	497541.000000	1772311654.583016
-20330.640000	-28017.630000	-26959.050000	-14577.255000	0.000000	0.000000	0.000000	0.000000	-3.079909	-56.116969	-1.698004	-4.953806	-0.000000	0.000000	-0.000000	-0.000000	3.616620	0.228900	-0.045780	-0.000916	0.981260	-0.030395	-1.000000	-1.000000	-1.000000	-1.000000	-1.000000	-1.000000	-1.000000	146.965517	0.000000	-1.000000	-1.000000	497542.000000	1772311654.583019
-20335.140000	-27979.155000	-26964.765000	-14581.575000	0.000000	0.000000	0.000000	0.000000	-7.880895	-45.401526	-5.480094	-6.496809	-0.000000	0.000000	-0.000000	-0.000000	3.616620	0.228900	-0.045780	-0.000916	0.981260	-0.030395	-1.000000	-1.000000	-1.000000	-1.000000	-1.000000	-1.000000	-1.000000	146.965517	0.000000	-1.000000	-1.000000	497543.000000	1772311654.586920
-20310.930000	-27976.230000	-26942.625000	-14558.220000	0.000000	0.000000	0.000000	0.000000	-9.080410	-16.971651	-7.419807	-6.553337	-0.000000	0.000000	-0.000000	-0.000000	3.616620	0.228900	-0.045780	-0.000916	0.981260	-0.030395	-1.000000	-1.000000	-1.000000	-1.000000	-1.000000	-1.000000	-1.000000	146.965517	0.000000	-1.000000	-1.000000	497544.000000	1772311654.586925
-20296.395000	-28004.580000	-26929.125000	-14545.035000	0.000000	0.000000	0.000000	0.000000	-5.994634	16.604358	-6.306336	-4.337787	-0.000000	0.000000	-0.000000	-0.000000	2.685760	0.198380	-0.366240	-0.000732	0.981992	-0.032776	-1.000000	-1.000000	-1.000000	-1.000000	-1.000000	-1.000000	-1.000000	146.965517	0.000000	-1.000000	-1.000000	497545.000000	1772311654.591441
-20315.565000	-27980.100000	-26944.740000	-14555.160000	0.000000	0.000000	0.000000	0.000000	-0.298957	38.803692	-2.531382	-0.295723	-0.000000	0.000000	-0.000000	-0.000000	2.685760	0.198380	-0.366240	-0.000732	0.981992	-0.032776	-1.000000	-1.000000	-1.000000	-1.000000	-1.000000	-1.000000	-1.000000	146.965517	0.000000	-1.000000	-1.000000	497546.000000	1772311654.591443
-20341.575000	-27957.645000	-26970.435000	-14579.955000	0.000000	0.000000	0.000000	0.000000	2.920795	42.784526	0.050120	2.014055	-0.000000	0.000000	-0.000000	-0.000000	2.685760	0.198380	-0.366240	-0.000732	0.981992	-0.032776	-1.000000	-1.000000	-1.000000	-1.000000	-1.000000	-1.000000	-1.000000	146.965517	0.000000	-1.000000	-1.000000	497547.000000	1772311654.594975
-20351.340000	-27974.880000	-26981.055000	-14596.785000	0.000000	0.000000	0.000000	0.000000	0.001420	33.020516	-2.005919	-0.719624	-0.000000	0.000000	-0.000000	-0.000000	2.685760	0.198380	-0.366240	-0.000732	0.981992	-0.032776	-1.000000	-1.000000	-1.000000	-1.000000	-1.000000	-1.000000	-1.000000	146.965517	0.000000	-1.000000	-1.000000	497548.000000	1772311654.594978
-20363.670000	-27961.335000	-26991.495000	-14604.795000	0.000000	0.000000	0.000000	0.000000	-6.520232	16.434825	-6.985844	-6.962103	-0.000000	0.000000	-0.000000	-0.000000	2.685760	0.198380	-0.366240	-0.000732	0.981992	-0.032776	-1.000000	-1.000000	-1.000000	-1.000000	-1.000000	-1.000000	-1.000000	146.965517	0.000000	-1.000000	-1.000000	497549.000000	1772311654.599056
-20354.490000	-27941.490000	-26982.180000	-14596.920000	0.000000	0.000000	0.000000	0.000000	-10.362640	-0.514144	-9.526179	-11.007853	-0.000000	0.000000	-0.000000	-0.000000	2.685760	0.198380	-0.366240	-0.000732	0.981992	-0.032776	-1.000000	-1.000000	-1.000000	-1.000000	-1.000000	-1.000000	-1.000000	146.965517	0.000000	-1.000000	-1.000000	497550.000000	1772311654.599060
-20348.955000	-27934.155000	-26978.850000	-14595.480000	0.000000	0.000000	0.000000	0.000000	-7.196450	-11.830580	-5.793703	-8.201437	-0.000000	0.000000	-0.000000	-0.000000	2.685760	0.198380	-0.366240	-0.000732	0.981992	-0.032776	-1.000000	-1.000000	-1.000000	-1.000000	-1.000000	-1.000000	-1.000000	146.965517	0.000000	-1.000000	-1.000000	497551.000000	1772311654.603041
-20340.090000	-27973.170000	-26969.580000	-14584.815000	0.000000	0.000000	0.000000	0.000000	2.128547	-16.196980	3.250504	0.924068	-0.000000	0.000000	-0.000000	-0.000000	2.685760	0.198380	-0.366240	-0.000732	0.981992	-0.032776	-1.000000	-1.000000	-1.000000	-1.000000	-1.000000	-1.000000	-1.000000	146.965517	0.000000	-1.000000	-1.000000	497552.000000	1772311654.603044
-20333.160000	-28008.720000	-26962.110000	-14577.165000	0.000000	0.000000	0.000000	0.000000	12.446524	-17.933228	12.792682	11.466679	-0.000000	0.000000	-0.000000	-0.000000	2.685760	0.198380	-0.366240	-0.000732	0.981992	-0.032776	-1.000000	-1.000000	-1.000000	-1.000000	-1.000000	-1.000000	-1.000000	146.965517	0.000000	-1.000000	-1.000000	497553.000000	1772311654.609898
-20336.490000	-27988.470000	-26966.745000	-14584.815000	0.000000	0.000000	0.000000	0.000000	17.982581	-19.688203	17.646917	17.748545	-0.000000	0.000000	-0.000000	-0.000000	2.685760	0.198380	-0.366240	-0.000732	0.981992	-0.032776	-1.000000	-1.000000	-1.000000	-1.000000	-1.000000	-1.000000	-1.000000	146.965517	0.000000	-1.000000	-1.000000	497554.000000	1772311654.609902
-20340.945000	-27964.665000	-26969.130000	-14589.720000	0.000000	0.000000	0.000000	0.000000	15.682439	-17.172559	15.104811	16.260631	-0.000000	0.000000	-0.000000	-0.000000	2.243220	0.427280	-0.396760	-0.000916	0.981260	-0.032898	-1.000000	-1.000000	-1.000000	-1.000000	-1.000000	-1.000000	-1.000000	146.965517	0.000000	-1.000000	-1.000000	497555.000000	1772311654.610997
-20336.670000	-27959.805000	-26962.965000	-14581.755000	0.000000	0.000000	0.000000	0.000000	6.839072	-5.944530	6.520737	7.904007	-0.000000	0.000000	-0.000000	-0.000000	2.243220	0.427280	-0.396760	-0.000916	0.981260	-0.032898	-1.000000	-1.000000	-1.000000	-1.000000	-1.000000	-1.000000	-1.000000	146.965517	0.000000	-1.000000	-1.000000	497556.000000	1772311654.611001
-20338.425000	-27958.140000	-26965.035000	-14580.630000	0.000000	0.000000	0.000000	0.000000	-3.726682	10.075702	-3.451808	-2.287039	-0.000000	0.000000	-0.000000	-0.000000	2.243220	0.427280	-0.396760	-0.000916	0.981260	-0.032898	-1.000000	-1.000000	-1.000000	-1.000000	-1.000000	-1.000000	-1.000000	146.965517	0.000000	-1.000000	-1.000000	497557.000000	1772311654.617327
-20348.820000	-27957.555000	-26975.700000	-14591.070000	0.000000	0.000000	0.000000	0.000000	-11.289346	21.602329	-10.534854	-9.411160	-0.000000	0.000000	-0.000000	-0.000000	2.243220	0.427280	-0.396760	-0.000916	0.981260	-0.032898	-1.000000	-1.000000	-1.000000	-1.000000	-1.000000	-1.000000	-1.000000	146.965517	0.000000	-1.000000	-1.000000	497558.000000	1772311654.617331
-20340.630000	-27939.330000	-26967.645000	-14583.465000	0.000000	0.000000	0.000000	0.000000	-13.809492	22.964762	-13.093365	-11.834615	-0.000000	0.000000	-0.000000	-0.000000	2.243220	0.427280	-0.396760	-0.000916	0.981260	-0.032898	-1.000000	-1.000000	-1.000000	-1.000000	-1.000000	-1.000000	-1.000000	146.965517	0.000000	-1.000000	-1.000000	497559.000000	1772311654.618995
-20326.500000	-27941.040000	-26955.090000	-14570.505000	0.000000	0.000000	0.000000	0.000000	-11.075046	15.578800	-10.916129	-9.828527	-0.000000	0.000000	-0.000000	-0.000000	2.243220	0.427280	-0.396760	-0.000916	0.981260	-0.032898	-1.000000	-1.000000	-1.000000	-1.000000	-1.000000	-1.000000	-1.000000	146.965517	0.000000	-1.000000	-1.000000	497560.000000	1772311654.619000
-20329.650000	-27962.370000	-26959.005000	-14572.530000	0.000000	0.000000	0.000000	0.000000	-4.310195	3.945034	-4.909619	-4.478904	-0.000000	0.000000	-0.000000	-0.000000	2.243220	0.427280	-0.396760	-0.000916	0.981260	-0.032898	-1.000000	-1.000000	-1.000000	-1.000000	-1.000000	-1.000000	-1.000000	146.965517	0.000000	-1.000000	-1.000000	497561.000000	1772311654.623165
-20336.445000	-27966.915000	-26966.340000	-14581.755000	0.000000	0.000000	0.000000	0.000000	2.855684	-8.178108	1.699778	1.280501	-0.000000	0.000000	-0.000000	-0.000000	2.243220	0.427280	-0.396760	-0.000916	0.981260	-0.032898	-1.000000	-1.000000	-1.000000	-1.000000	-1.000000	-1.000000	-1.000000	146.965517	0.000000	-1.000000	-1.000000	497562.000000	1772311654.623177
-20353.005000	-27926.370000	-26981.550000	-14597.865000	0.000000	0.000000	0.000000	0.000000	6.096598	-16.281862	4.916752	3.752692	-0.000000	0.000000	-0.000000	-0.000000	2.243220	0.427280	-0.396760	-0.000916	0.981260	-0.032898	-1.000000	-1.000000	-1.000000	-1.000000	-1.000000	-1.000000	-1.000000	146.965517	0.000000	-1.000000	-1.000000	497563.000000	1772311654.634585
-20348.370000	-27903.465000	-26974.350000	-14593.410000	0.000000	0.000000	0.000000	0.000000	4.134892	-15.164390	3.591703	1.898730	-0.000000	0.000000	-0.000000	-0.000000	2.243220	0.427280	-0.396760	-0.000916	0.981260	-0.032898	-1.000000	-1.000000	-1.000000	-1.000000	-1.000000	-1.000000	-1.000000	146.965517	0.000000	-1.000000	-1.000000	497564.000000	1772311654.634591
-20341.080000	-27910.935000	-26966.520000	-14586.705000	0.000000	0.000000	0.000000	0.000000	0.072582	-5.201124	0.611606	-1.305768	-0.000000	0.000000	-0.000000	-0.000000	2.044840	0.473060	-0.518840	-0.000916	0.982358	-0.031921	-1.000000	-1.000000	-1.000000	-1.000000	-1.000000	-1.000000	-1.000000	146.965517	0.000000	-1.000000	-1.000000	497565.000000	1772311654.654678
-20333.880000	-27952.740000	-26961.165000	-14581.080000	0.000000	0.000000	0.000000	0.000000	-1.714901	4.790551	-0.267710	-1.942563	-0.000000	0.000000	-0.000000	-0.000000	2.044840	0.473060	-0.518840	-0.000916	0.982358	-0.031921	-1.000000	-1.000000	-1.000000	-1.000000	-1.000000	-1.000000	-1.000000	146.965517	0.000000	-1.000000	-1.000000	497566.000000	1772311654.654683
-20336.040000	-27967.905000	-26963.145000	-14581.485000	0.000000	0.000000	0.000000	0.000000	0.059719	5.541799	1.596279	0.775253	-0.000000	0.000000	-0.000000	-0.000000	2.044840	0.473060	-0.518840	-0.000916	0.982358	-0.031921	-1.000000	-1.000000	-1.000000	-1.000000	-1.000000	-1.000000	-1.000000	146.965517	0.000000	-1.000000	-1.000000	497567.000000	1772311654.654688
-20323.530000	-27986.805000	-26952.930000	-14571.540000	0.000000	0.000000	0.000000	0.000000	3.231299	-2.941086	3.955379	4.453024	-0.000000	0.000000	-0.000000	-0.000000	2.044840	0.473060	-0.518840	-0.000916	0.982358	-0.031921	-1.000000	-1.000000	-1.000000	-1.000000	-1.000000	-1.000000	-1.000000	146.965517	0.000000	-1.000000	-1.000000	497568.000000	1772311654.654691
-20311.470000	-27999.405000	-26943.705000	-14562.585000	0.000000	0.000000	0.000000	0.000000	5.427171	-12.330069	4.900843	6.618432	-0.000000	0.000000	-0.000000	-0.000000	2.044840	0.473060	-0.518840	-0.000916	0.982358	-0.031921	-1.000000	-1.000000	-1.000000	-1.000000	-1.000000	-1.000000	-1.000000	146.965517	0.000000	-1.000000	-1.000000	497569.000000	1772311654.654695
-20329.965000	-27981.900000	-26960.760000	-14577.120000	0.000000	0.000000	0.000000	0.000000	5.354849	-14.216274	3.789095	6.056639	-0.000000	0.000000	-0.000000	-0.000000	2.044840	0.473060	-0.518840	-0.000916	0.982358	-0.031921	-1.000000	-1.000000	-1.000000	-1.000000	-1.000000	-1.000000	-1.000000	146.965517	0.000000	-1.000000	-1.000000	497570.000000	1772311654.654697
-20340.765000	-27999.180000	-26968.050000	-14584.770000	0.000000	0.000000	0.000000	0.000000	1.882834	-6.110745	0.162521	2.196180	-0.000000	0.000000	-0.000000	-0.000000	2.044840	0.473060	-0.518840	-0.000916	0.982358	-0.031921	-1.000000	-1.000000	-1.000000	-1.000000	-1.000000	-1.000000	-1.000000	146.965517	0.000000	-1.000000	-1.000000	497571.000000	1772311654.654701
-20334.375000	-28031.265000	-26963.865000	-14581.890000	0.000000	0.000000	0.000000	0.000000	-4.261671	6.486061	-5.022958	-3.816779	-0.000000	0.000000	-0.000000	-0.000000	2.044840	0.473060	-0.518840	-0.000916	0.982358	-0.031921	-1.000000	-1.000000	-1.000000	-1.000000	-1.000000	-1.000000	-1.000000	146.965517	0.000000	-1.000000	-1.000000	497572.000000	1772311654.654704
-20333.520000	-28050.975000	-26963.730000	-14583.015000	0.000000	0.000000	0.000000	0.000000	-9.146068	14.425130	-8.530897	-8.522391	-0.000000	0.000000	-0.000000	-0.000000	2.044840	0.473060	-0.518840	-0.000916	0.982358	-0.031921	-1.000000	-1.000000	-1.000000	-1.000000	-1.000000	-1.000000	-1.000000	146.965517	0.000000	-1.000000	-1.000000	497573.000000	1772311654.654707
-20328.480000	-28077.840000	-26955.630000	-14581.665000	0.000000	0.000000	0.000000	0.000000	-9.155707	13.352663	-7.688301	-9.001234	-0.000000	0.000000	-0.000000	-0.000000	2.044840	0.473060	-0.518840	-0.000916	0.982358	-0.031921	-1.000000	-1.000000	-1.000000	-1.000000	-1.000000	-1.000000	-1.000000	146.965517	0.000000	-1.000000	-1.000000	497574.000000	1772311654.654710
-20336.400000	-28068.885000	-26964.720000	-14589.090000	0.000000	0.000000	0.000000	0.000000	-4.584030	6.607556	-3.047986	-5.459232	-0.000000	0.000000	-0.000000	-0.000000	1.922760	0.595140	-0.625660	-0.000610	0.980771	-0.030334	-1.000000	-1.000000	-1.000000	-1.000000	-1.000000	-1.000000	-1.000000	146.965517	0.000000	-1.000000	-1.000000	497575.000000	1772311654.654713
-20338.695000	-28016.550000	-26968.590000	-14584.905000	0.000000	0.000000	0.000000	0.000000	1.106103	2.057143	2.114046	-0.431996	-0.000000	0.000000	-0.000000	-0.000000	1.922760	0.595140	-0.625660	-0.000610	0.980771	-0.030334	-1.000000	-1.000000	-1.000000	-1.000000	-1.000000	-1.000000	-1.000000	146.965517	0.000000	-1.000000	-1.000000	497576.000000	1772311654.654716
-20334.870000	-28006.515000	-26966.115000	-14578.065000	0.000000	0.000000	0.000000	0.000000	4.735524	5.490461	4.812330	3.825631	-0.000000	0.000000	-0.000000	-0.000000	1.922760	0.595140	-0.625660	-0.000610	0.980771	-0.030334	-1.000000	-1.000000	-1.000000	-1.000000	-1.000000	-1.000000	-1.000000	146.965517	0.000000	-1.000000	-1.000000	497577.000000	1772311654.655158
-20330.505000	-28012.185000	-26961.120000	-14577.165000	0.000000	0.000000	0.000000	0.000000	5.726580	13.519808	4.827130	6.449266	-0.000000	0.000000	-0.000000	-0.000000	1.922760	0.595140	-0.625660	-0.000610	0.980771	-0.030334	-1.000000	-1.000000	-1.000000	-1.000000	-1.000000	-1.000000	-1.000000	146.965517	0.000000	-1.000000	-1.000000	497578.000000	1772311654.655161
-20323.665000	-28023.705000	-26954.460000	-14574.555000	0.000000	0.000000	0.000000	0.000000	5.247834	16.112025	3.839897	7.068328	-0.000000	0.000000	-0.000000	-0.000000	1.922760	0.595140	-0.625660	-0.000610	0.980771	-0.030334	-1.000000	-1.000000	-1.000000	-1.000000	-1.000000	-1.000000	-1.000000	146.965517	0.000000	-1.000000	-1.000000	497579.000000	1772311654.659137
-20331.270000	-28027.890000	-26961.345000	-14581.890000	0.000000	0.000000	0.000000	0.000000	4.114847	7.636674	2.933723	5.380174	-0.000000	0.000000	-0.000000	-0.000000	1.922760	0.595140	-0.625660	-0.000610	0.980771	-0.030334	-1.000000	-1.000000	-1.000000	-1.000000	-1.000000	-1.000000	-1.000000	146.965517	0.000000	-1.000000	-1.000000	497580.000000	1772311654.659139
-20339.190000	-28042.740000	-26967.690000	-14587.335000	0.000000	0.000000	0.000000	0.000000	1.964470	-8.006599	1.583673	1.613370	-0.000000	0.000000	-0.000000	-0.000000	1.922760	0.595140	-0.625660	-0.000610	0.980771	-0.030334	-1.000000	-1.000000	-1.000000	-1.000000	-1.000000	-1.000000	-1.000000	146.965517	0.000000	-1.000000	-1.000000	497581.000000	1772311654.663193
-20330.730000	-28027.665000	-26957.925000	-14576.175000	0.000000	0.000000	0.000000	0.000000	-1.253665	-21.696827	-0.663329	-2.732209	-0.000000	0.000000	-0.000000	-0.000000	1.922760	0.595140	-0.625660	-0.000610	0.980771	-0.030334	-1.000000	-1.000000	-1.000000	-1.000000	-1.000000	-1.000000	-1.000000	146.965517	0.000000	-1.000000	-1.000000	497582.000000	1772311654.663196
-20320.515000	-28053.765000	-26947.530000	-14564.115000	0.000000	0.000000	0.000000	0.000000	-3.695683	-26.184512	-2.409993	-4.932047	-0.000000	0.000000	-0.000000	-0.000000	1.922760	0.595140	-0.625660	-0.000610	0.980771	-0.030334	-1.000000	-1.000000	-1.000000	-1.000000	-1.000000	-1.000000	-1.000000	146.965517	0.000000	-1.000000	-1.000000	497583.000000	1772311654.667218
-20324.115000	-28061.505000	-26951.580000	-14566.725000	0.000000	0.000000	0.000000	0.000000	-3.489895	-20.944092	-2.135109	-3.520219	-0.000000	0.000000	-0.000000	-0.000000	1.922760	0.595140	-0.625660	-0.000610	0.980771	-0.030334	-1.000000	-1.000000	-1.000000	-1.000000	-1.000000	-1.000000	-1.000000	146.965517	0.000000	-1.000000	-1.000000	497584.000000	1772311654.667222
-20343.015000	-28058.940000	-26973.000000	-14588.325000	0.000000	0.000000	0.000000	0.000000	-1.720543	-10.398143	-1.021373	-0.694953	-0.000000	0.000000	-0.000000	-0.000000	2.502640	0.228900	-0.534100	-0.001160	0.982358	-0.029968	-1.000000	-1.000000	-1.000000	-1.000000	-1.000000	-1.000000	-1.000000	146.965517	0.000000	-1.000000	-1.000000	497585.000000	1772311654.671949
-20327.895000	-28068.480000	-26957.790000	-14574.915000	0.000000	0.000000	0.000000	0.000000	-0.884169	1.046627	-1.301915	0.148757	-0.000000	0.000000	-0.000000	-0.000000	2.502640	0.228900	-0.534100	-0.001160	0.982358	-0.029968	-1.000000	-1.000000	-1.000000	-1.000000	-1.000000	-1.000000	-1.000000	146.965517	0.000000	-1.000000	-1.000000	497586.000000	1772311654.671952
-20330.100000	-28064.610000	-26959.140000	-14574.465000	0.000000	0.000000	0.000000	0.000000	-1.031326	10.242395	-2.412096	-0.982984	-0.000000	0.000000	-0.000000	-0.000000	2.502640	0.228900	-0.534100	-0.001160	0.982358	-0.029968	-1.000000	-1.000000	-1.000000	-1.000000	-1.000000	-1.000000	-1.000000	146.965517	0.000000	-1.000000	-1.000000	497587.000000	1772311654.674936
-20332.530000	-28056.330000	-26960.580000	-14578.110000	0.000000	0.000000	0.000000	0.000000	-0.661174	15.378945	-2.234107	-1.665912	-0.000000	0.000000	-0.000000	-0.000000	2.502640	0.228900	-0.534100	-0.001160	0.982358	-0.029968	-1.000000	-1.000000	-1.000000	-1.000000	-1.000000	-1.000000	-1.000000	146.965517	0.000000	-1.000000	-1.000000	497588.000000	1772311654.674939
-20333.070000	-28034.370000	-26962.515000	-14583.375000	0.000000	0.000000	0.000000	0.000000	0.327137	16.701850	-0.596524	-1.110448	-0.000000	0.000000	-0.000000	-0.000000	2.502640	0.228900	-0.534100	-0.001160	0.982358	-0.029968	-1.000000	-1.000000	-1.000000	-1.000000	-1.000000	-1.000000	-1.000000	146.965517	0.000000	-1.000000	-1.000000	497589.000000	1772311654.679169
-20350.530000	-27988.470000	-26979.030000	-14599.485000	0.000000	0.000000	0.000000	0.000000	0.829520	16.063699	0.874239	-0.498129	-0.000000	0.000000	-0.000000	-0.000000	2.502640	0.228900	-0.534100	-0.001160	0.982358	-0.029968	-1.000000	-1.000000	-1.000000	-1.000000	-1.000000	-1.000000	-1.000000	146.965517	0.000000	-1.000000	-1.000000	497590.000000	1772311654.679176
-20349.135000	-27971.820000	-26977.005000	-14596.830000	0.000000	0.000000	0.000000	0.000000	0.045001	14.955550	0.826367	-0.776714	-0.000000	0.000000	-0.000000	-0.000000	2.502640	0.228900	-0.534100	-0.001160	0.982358	-0.029968	-1.000000	-1.000000	-1.000000	-1.000000	-1.000000	-1.000000	-1.000000	146.965517	0.000000	-1.000000	-1.000000	497591.000000	1772311654.683634
-20345.760000	-27943.740000	-26973.180000	-14594.985000	0.000000	0.000000	0.000000	0.000000	-1.202697	12.340547	-0.117926	-1.125067	-0.000000	0.000000	-0.000000	-0.000000	2.502640	0.228900	-0.534100	-0.001160	0.982358	-0.029968	-1.000000	-1.000000	-1.000000	-1.000000	-1.000000	-1.000000	-1.000000	146.965517	0.000000	-1.000000	-1.000000	497592.000000	1772311654.683637
-20340.810000	-27911.700000	-26968.140000	-14590.215000	0.000000	0.000000	0.000000	0.000000	-0.974016	6.401574	0.009797	0.059713	-0.000000	0.000000	-0.000000	-0.000000	2.502640	0.228900	-0.534100	-0.001160	0.982358	-0.029968	-1.000000	-1.000000	-1.000000	-1.000000	-1.000000	-1.000000	-1.000000	146.965517	0.000000	-1.000000	-1.000000	497593.000000	1772311654.687246
-20324.430000	-27881.370000	-26953.110000	-14572.665000	0.000000	0.000000	0.000000	0.000000	1.573086	-2.022956	2.133249	3.145161	-0.000000	0.000000	-0.000000	-0.000000	2.502640	0.228900	-0.534100	-0.001160	0.982358	-0.029968	-1.000000	-1.000000	-1.000000	-1.000000	-1.000000	-1.000000	-1.000000	146.965517	0.000000	-1.000000	-1.000000	497594.000000	1772311654.687254
-20320.920000	-27856.890000	-26951.535000	-14572.395000	0.000000	0.000000	0.000000	0.000000	5.322744	-10.101868	5.227522	6.831702	-0.000000	0.000000	-0.000000	-0.000000	3.021480	-0.030520	-0.198380	-0.001404	0.982053	-0.030701	-1.000000	-1.000000	-1.000000	-1.000000	-1.000000	-1.000000	-1.000000	146.965517	0.000000	-1.000000	-1.000000	497595.000000	1772311654.691336
-20374.965000	-27813.870000	-27004.770000	-14623.470000	0.000000	0.000000	0.000000	0.000000	6.756976	-15.240250	5.977977	7.699318	-0.000000	0.000000	-0.000000	-0.000000	3.021480	-0.030520	-0.198380	-0.001404	0.982053	-0.030701	-1.000000	-1.000000	-1.000000	-1.000000	-1.000000	-1.000000	-1.000000	146.965517	0.000000	-1.000000	-1.000000	497596.000000	1772311654.691338
-20378.970000	-27828.765000	-27004.275000	-14621.985000	0.000000	0.000000	0.000000	0.000000	1.967078	-16.656723	0.928279	2.307556	0.000000	0.000000	-0.000000	-0.000000	3.021480	-0.030520	-0.198380	-0.001404	0.982053	-0.030701	-1.000000	-1.000000	-1.000000	-1.000000	-1.000000	-1.000000	-1.000000	146.965517	0.000000	-1.000000	-1.000000	497597.000000	1772311654.695376
-20357.415000	-27818.550000	-26982.315000	-14600.520000	0.000000	0.000000	0.000000	0.000000	-6.737611	-16.362411	-7.237186	-6.496784	0.000000	0.000000	-0.000000	-0.000000	3.021480	-0.030520	-0.198380	-0.001404	0.982053	-0.030701	-1.000000	-1.000000	-1.000000	-1.000000	-1.000000	-1.000000	-1.000000	146.965517	0.000000	-1.000000	-1.000000	497598.000000	1772311654.695379
-20349.000000	-27811.260000	-26974.485000	-14585.175000	0.000000	0.000000	0.000000	0.000000	-10.940098	-16.100122	-10.428985	-10.352064	0.000000	0.000000	-0.000000	-0.000000	3.021480	-0.030520	-0.198380	-0.001404	0.982053	-0.030701	-1.000000	-1.000000	-1.000000	-1.000000	-1.000000	-1.000000	-1.000000	146.965517	0.000000	-1.000000	-1.000000	497599.000000	1772311654.699307
-20352.375000	-27805.095000	-26982.945000	-14591.970000	0.000000	0.000000	0.000000	0.000000	-6.316499	-14.460799	-5.263275	-5.483047	0.000000	0.000000	-0.000000	-0.000000	3.021480	-0.030520	-0.198380	-0.001404	0.982053	-0.030701	-1.000000	-1.000000	-1.000000	-1.000000	-1.000000	-1.000000	-1.000000	146.965517	0.000000	-1.000000	-1.000000	497600.000000	1772311654.699310
-20329.470000	-27786.645000	-26957.115000	-14563.395000	0.000000	0.000000	0.000000	0.000000	3.153866	-9.318896	3.717990	3.639950	0.000000	0.000000	-0.000000	-0.000000	3.021480	-0.030520	-0.198380	-0.001404	0.982053	-0.030701	-1.000000	-1.000000	-1.000000	-1.000000	-1.000000	-1.000000	-1.000000	146.965517	0.000000	-1.000000	-1.000000	497601.000000	1772311654.703340
-20326.725000	-27786.015000	-26953.515000	-14558.670000	0.000000	0.000000	0.000000	0.000000	11.134435	-0.851808	10.712590	10.754759	0.000000	0.000000	-0.000000	-0.000000	3.021480	-0.030520	-0.198380	-0.001404	0.982053	-0.030701	-1.000000	-1.000000	-1.000000	-1.000000	-1.000000	-1.000000	-1.000000	146.965517	0.000000	-1.000000	-1.000000	497602.000000	1772311654.703343
-20348.505000	-27771.390000	-26986.545000	-14620.365000	0.000000	0.000000	0.000000	0.000000	13.124015	8.126231	11.989216	11.188124	0.000000	0.000000	-0.000000	-0.000000	3.021480	-0.030520	-0.198380	-0.001404	0.982053	-0.030701	-1.000000	-1.000000	-1.000000	-1.000000	-1.000000	-1.000000	-1.000000	146.965517	0.000000	-1.000000	-1.000000	497603.000000	1772311654.707403
-20363.805000	-27774.405000	-27003.645000	-14639.670000	0.000000	0.000000	0.000000	0.000000	7.145117	14.056812	5.516857	2.073413	0.000000	0.000000	-0.000000	-0.000000	3.021480	-0.030520	-0.198380	-0.001404	0.982053	-0.030701	-1.000000	-1.000000	-1.000000	-1.000000	-1.000000	-1.000000	-1.000000	146.965517	0.000000	-1.000000	-1.000000	497604.000000	1772311654.707405
