Channel1	Channel2	Channel3	Channel4	Channel5	Channel6	Channel7	Channel8	FilteredChannel1	FilteredChannel2	FilteredChannel3	FilteredChannel4	FilteredChannel5	FilteredChannel6	FilteredChannel7	FilteredChannel8	GyroX	GyroY	GyroZ	AccX	AccY	AccZ	PPG1	PPG2	rawPPG1	rawPPG2	rawPPG3	Hr	Hrv	Battery	Trigger	PhysicalTrigger	AutoTrigger	NumMeasurements	Timestamp
-20409.390000	-26420.220000	-26898.750000	-14485.095000	0.000000	0.000000	0.000000	0.000000	-4.325245	0.215267	-5.652151	-7.286701	-0.000000	0.000000	-0.000000	-0.000000	7.965720	-0.915600	1.861720	-0.010559	0.979856	-0.024780	-1.000000	-1.000000	-1.000000	-1.000000	-1.000000	-1.000000	-1.000000	146.827586	0.000000	-1.000000	-1.000000	487003.000000	1772311633.443724
-20409.885000	-26427.060000	-26899.020000	-14485.545000	0.000000	0.000000	0.000000	0.000000	-8.666888	1.716189	-10.547976	-10.661851	-0.000000	0.000000	-0.000000	-0.000000	7.965720	-0.915600	1.861720	-0.010559	0.979856	-0.024780	-1.000000	-1.000000	-1.000000	-1.000000	-1.000000	-1.000000	-1.000000	146.827586	0.000000	-1.000000	-1.000000	487004.000000	1772311633.443727
-20407.815000	-26463.330000	-26897.895000	-14484.870000	0.000000	0.000000	0.000000	0.000000	-8.766743	1.243693	-10.173813	-9.106596	-0.000000	0.000000	-0.000000	-0.000000	7.965720	-0.915600	1.861720	-0.010559	0.979856	-0.024780	-1.000000	-1.000000	-1.000000	-1.000000	-1.000000	-1.000000	-1.000000	146.827586	0.000000	-1.000000	-1.000000	487005.000000	1772311633.447732
-20406.645000	-26454.780000	-26892.405000	-14478.570000	0.000000	0.000000	0.000000	0.000000	-7.116166	-1.736428	-7.508748	-5.935085	-0.000000	0.000000	-0.000000	-0.000000	7.965720	-0.915600	1.861720	-0.010559	0.979856	-0.024780	-1.000000	-1.000000	-1.000000	-1.000000	-1.000000	-1.000000	-1.000000	146.827586	0.000000	-1.000000	-1.000000	487006.000000	1772311633.447734
-20410.695000	-26461.215000	-26896.905000	-14484.555000	0.000000	0.000000	0.000000	0.000000	-5.247441	-5.348700	-4.631203	-3.206734	-0.000000	0.000000	-0.000000	-0.000000	7.965720	-0.915600	1.861720	-0.010559	0.979856	-0.024780	-1.000000	-1.000000	-1.000000	-1.000000	-1.000000	-1.000000	-1.000000	146.827586	0.000000	-1.000000	-1.000000	487007.000000	1772311633.451593
-20417.535000	-26517.330000	-26906.130000	-14492.430000	0.000000	0.000000	0.000000	0.000000	-3.861607	-6.831407	-2.699080	-1.830693	-0.000000	0.000000	-0.000000	-0.000000	7.965720	-0.915600	1.861720	-0.010559	0.979856	-0.024780	-1.000000	-1.000000	-1.000000	-1.000000	-1.000000	-1.000000	-1.000000	146.827586	0.000000	-1.000000	-1.000000	487008.000000	1772311633.451597
-20417.310000	-26570.385000	-26902.980000	-14480.370000	0.000000	0.000000	0.000000	0.000000	-3.020111	-7.593726	-2.081044	-1.672568	-0.000000	0.000000	-0.000000	-0.000000	7.965720	-0.915600	1.861720	-0.010559	0.979856	-0.024780	-1.000000	-1.000000	-1.000000	-1.000000	-1.000000	-1.000000	-1.000000	146.827586	0.000000	-1.000000	-1.000000	487009.000000	1772311633.455728
-20413.980000	-26583.705000	-26901.270000	-14474.295000	0.000000	0.000000	0.000000	0.000000	-1.962438	-9.471908	-1.770111	-1.129695	-0.000000	0.000000	-0.000000	-0.000000	7.965720	-0.915600	1.861720	-0.010559	0.979856	-0.024780	-1.000000	-1.000000	-1.000000	-1.000000	-1.000000	-1.000000	-1.000000	146.827586	0.000000	-1.000000	-1.000000	487010.000000	1772311633.455731
-20396.925000	-26578.575000	-26882.820000	-14455.620000	0.000000	0.000000	0.000000	0.000000	0.421022	-8.785361	-0.098107	1.302769	-0.000000	0.000000	-0.000000	-0.000000	7.965720	-0.915600	1.861720	-0.010559	0.979856	-0.024780	-1.000000	-1.000000	-1.000000	-1.000000	-1.000000	-1.000000	-1.000000	146.827586	0.000000	-1.000000	-1.000000	487011.000000	1772311633.459714
-20389.635000	-26590.905000	-26884.215000	-14482.260000	0.000000	0.000000	0.000000	0.000000	4.365705	-0.739614	3.371351	4.537558	-0.000000	0.000000	-0.000000	-0.000000	7.965720	-0.915600	1.861720	-0.010559	0.979856	-0.024780	-1.000000	-1.000000	-1.000000	-1.000000	-1.000000	-1.000000	-1.000000	146.827586	0.000000	-1.000000	-1.000000	487012.000000	1772311633.459718
-20398.995000	-26591.400000	-26891.325000	-14497.875000	0.000000	0.000000	0.000000	0.000000	7.954663	12.818436	6.569619	4.898011	-0.000000	0.000000	-0.000000	-0.000000	5.569900	-0.442540	1.327620	-0.006653	0.982114	-0.030701	-1.000000	-1.000000	-1.000000	-1.000000	-1.000000	-1.000000	-1.000000	146.827586	0.000000	-1.000000	-1.000000	487013.000000	1772311633.464555
-20422.890000	-26571.690000	-26908.920000	-14500.665000	0.000000	0.000000	0.000000	0.000000	7.645293	24.908806	6.250066	0.508273	-0.000000	0.000000	-0.000000	-0.000000	5.569900	-0.442540	1.327620	-0.006653	0.982114	-0.030701	-1.000000	-1.000000	-1.000000	-1.000000	-1.000000	-1.000000	-1.000000	146.827586	0.000000	-1.000000	-1.000000	487014.000000	1772311633.464560
-20407.725000	-26544.690000	-26892.765000	-14481.945000	0.000000	0.000000	0.000000	0.000000	2.196263	30.409641	1.833268	-4.976226	-0.000000	0.000000	-0.000000	-0.000000	5.569900	-0.442540	1.327620	-0.006653	0.982114	-0.030701	-1.000000	-1.000000	-1.000000	-1.000000	-1.000000	-1.000000	-1.000000	146.827586	0.000000	-1.000000	-1.000000	487015.000000	1772311633.467657
-20401.965000	-26554.860000	-26888.940000	-14476.230000	0.000000	0.000000	0.000000	0.000000	-4.399926	27.728704	-3.012773	-5.879409	-0.000000	0.000000	-0.000000	-0.000000	5.569900	-0.442540	1.327620	-0.006653	0.982114	-0.030701	-1.000000	-1.000000	-1.000000	-1.000000	-1.000000	-1.000000	-1.000000	146.827586	0.000000	-1.000000	-1.000000	487016.000000	1772311633.467660
-20424.870000	-26557.245000	-26911.305000	-14497.200000	0.000000	0.000000	0.000000	0.000000	-7.331561	16.609628	-4.813591	-1.414830	-0.000000	0.000000	-0.000000	-0.000000	5.569900	-0.442540	1.327620	-0.006653	0.982114	-0.030701	-1.000000	-1.000000	-1.000000	-1.000000	-1.000000	-1.000000	-1.000000	146.827586	0.000000	-1.000000	-1.000000	487017.000000	1772311633.471735
-20422.350000	-26556.615000	-26911.935000	-14499.765000	0.000000	0.000000	0.000000	0.000000	-6.394341	-0.675292	-4.235092	3.525606	-0.000000	0.000000	-0.000000	-0.000000	5.569900	-0.442540	1.327620	-0.006653	0.982114	-0.030701	-1.000000	-1.000000	-1.000000	-1.000000	-1.000000	-1.000000	-1.000000	146.827586	0.000000	-1.000000	-1.000000	487018.000000	1772311633.471738
-20410.740000	-26542.845000	-26898.345000	-14490.180000	0.000000	0.000000	0.000000	0.000000	-3.491652	-17.628794	-2.868569	4.980885	-0.000000	0.000000	-0.000000	-0.000000	5.569900	-0.442540	1.327620	-0.006653	0.982114	-0.030701	-1.000000	-1.000000	-1.000000	-1.000000	-1.000000	-1.000000	-1.000000	146.827586	0.000000	-1.000000	-1.000000	487019.000000	1772311633.475823
-20417.940000	-26507.610000	-26906.535000	-14499.000000	0.000000	0.000000	0.000000	0.000000	0.563436	-26.447865	-0.466228	3.647873	-0.000000	0.000000	-0.000000	-0.000000	5.569900	-0.442540	1.327620	-0.006653	0.982114	-0.030701	-1.000000	-1.000000	-1.000000	-1.000000	-1.000000	-1.000000	-1.000000	146.827586	0.000000	-1.000000	-1.000000	487020.000000	1772311633.475826
-20416.095000	-26471.205000	-26902.980000	-14490.180000	0.000000	0.000000	0.000000	0.000000	4.450978	-22.962675	2.604553	1.767989	-0.000000	0.000000	-0.000000	-0.000000	5.569900	-0.442540	1.327620	-0.006653	0.982114	-0.030701	-1.000000	-1.000000	-1.000000	-1.000000	-1.000000	-1.000000	-1.000000	146.827586	0.000000	-1.000000	-1.000000	487021.000000	1772311633.480091
-20415.645000	-26465.400000	-26905.005000	-14490.945000	0.000000	0.000000	0.000000	0.000000	6.286764	-10.199487	4.668134	0.594849	-0.000000	0.000000	-0.000000	-0.000000	5.569900	-0.442540	1.327620	-0.006653	0.982114	-0.030701	-1.000000	-1.000000	-1.000000	-1.000000	-1.000000	-1.000000	-1.000000	146.827586	0.000000	-1.000000	-1.000000	487022.000000	1772311633.480094
-20425.095000	-26446.860000	-26914.680000	-14503.545000	0.000000	0.000000	0.000000	0.000000	5.367502	2.926194	4.533838	0.066641	-0.000000	0.000000	-0.000000	-0.000000	3.418240	0.106820	-0.747740	-0.002869	0.982969	-0.034119	-1.000000	-1.000000	-1.000000	-1.000000	-1.000000	-1.000000	-1.000000	146.827586	0.000000	-1.000000	-1.000000	487023.000000	1772311633.483769
-20418.120000	-26412.165000	-26904.555000	-14492.520000	0.000000	0.000000	0.000000	0.000000	2.396383	9.168436	2.369607	-0.659248	-0.000000	0.000000	-0.000000	-0.000000	3.418240	0.106820	-0.747740	-0.002869	0.982969	-0.034119	-1.000000	-1.000000	-1.000000	-1.000000	-1.000000	-1.000000	-1.000000	146.827586	0.000000	-1.000000	-1.000000	487024.000000	1772311633.483772
-20377.170000	-26422.965000	-26861.895000	-14440.050000	0.000000	0.000000	0.000000	0.000000	-0.080797	7.627632	0.609102	-0.486625	-0.000000	0.000000	-0.000000	-0.000000	3.418240	0.106820	-0.747740	-0.002869	0.982969	-0.034119	-1.000000	-1.000000	-1.000000	-1.000000	-1.000000	-1.000000	-1.000000	146.827586	0.000000	-1.000000	-1.000000	487025.000000	1772311633.487832
-20359.080000	-26418.555000	-26843.490000	-14417.955000	0.000000	0.000000	0.000000	0.000000	1.123591	0.652432	2.411679	3.291239	-0.000000	0.000000	-0.000000	-0.000000	3.418240	0.106820	-0.747740	-0.002869	0.982969	-0.034119	-1.000000	-1.000000	-1.000000	-1.000000	-1.000000	-1.000000	-1.000000	146.827586	0.000000	-1.000000	-1.000000	487026.000000	1772311633.487836
-20434.590000	-26414.595000	-26923.005000	-14494.815000	0.000000	0.000000	0.000000	0.000000	3.908219	-8.307954	5.313126	7.847896	-0.000000	0.000000	-0.000000	-0.000000	3.418240	0.106820	-0.747740	-0.002869	0.982969	-0.034119	-1.000000	-1.000000	-1.000000	-1.000000	-1.000000	-1.000000	-1.000000	146.827586	0.000000	-1.000000	-1.000000	487027.000000	1772311633.491809
-20466.810000	-26407.710000	-26964.585000	-14560.245000	0.000000	0.000000	0.000000	0.000000	0.315325	-14.537520	0.841386	3.451565	-0.000000	0.000000	-0.000000	-0.000000	3.418240	0.106820	-0.747740	-0.002869	0.982969	-0.034119	-1.000000	-1.000000	-1.000000	-1.000000	-1.000000	-1.000000	-1.000000	146.827586	0.000000	-1.000000	-1.000000	487028.000000	1772311633.491812
-20429.820000	-26430.255000	-26922.240000	-14514.615000	0.000000	0.000000	0.000000	0.000000	-10.859738	-15.066556	-12.062311	-12.073184	-0.000000	0.000000	-0.000000	-0.000000	3.418240	0.106820	-0.747740	-0.002869	0.982969	-0.034119	-1.000000	-1.000000	-1.000000	-1.000000	-1.000000	-1.000000	-1.000000	146.827586	0.000000	-1.000000	-1.000000	487029.000000	1772311633.495893
-20421.945000	-26455.050000	-26906.355000	-14481.630000	0.000000	0.000000	0.000000	0.000000	-18.426116	-11.398737	-20.740909	-24.309865	-0.000000	0.000000	-0.000000	-0.000000	3.418240	0.106820	-0.747740	-0.002869	0.982969	-0.034119	-1.000000	-1.000000	-1.000000	-1.000000	-1.000000	-1.000000	-1.000000	146.827586	0.000000	-1.000000	-1.000000	487030.000000	1772311633.495896
-20433.555000	-26451.945000	-26912.385000	-14479.245000	0.000000	0.000000	0.000000	0.000000	-13.367580	-6.603489	-14.637224	-18.773227	-0.000000	0.000000	-0.000000	-0.000000	3.418240	0.106820	-0.747740	-0.002869	0.982969	-0.034119	-1.000000	-1.000000	-1.000000	-1.000000	-1.000000	-1.000000	-1.000000	146.827586	0.000000	-1.000000	-1.000000	487031.000000	1772311633.500270
-20423.385000	-26472.330000	-26914.905000	-14498.595000	0.000000	0.000000	0.000000	0.000000	0.381707	-1.417656	1.626656	0.744795	-0.000000	0.000000	-0.000000	-0.000000	3.418240	0.106820	-0.747740	-0.002869	0.982969	-0.034119	-1.000000	-1.000000	-1.000000	-1.000000	-1.000000	-1.000000	-1.000000	146.827586	0.000000	-1.000000	-1.000000	487032.000000	1772311633.500273
-20424.015000	-26465.220000	-26918.370000	-14511.240000	0.000000	0.000000	0.000000	0.000000	13.113985	4.592237	15.694961	18.030127	-0.000000	0.000000	-0.000000	-0.000000	1.587040	0.350980	-0.549360	-0.004883	0.983579	-0.034851	-1.000000	-1.000000	-1.000000	-1.000000	-1.000000	-1.000000	-1.000000	146.827586	0.000000	-1.000000	-1.000000	487033.000000	1772311633.503913
-20421.180000	-26437.590000	-26919.315000	-14515.290000	0.000000	0.000000	0.000000	0.000000	18.520102	11.453374	19.796729	21.888809	-0.000000	0.000000	-0.000000	-0.000000	1.587040	0.350980	-0.549360	-0.004883	0.983579	-0.034851	-1.000000	-1.000000	-1.000000	-1.000000	-1.000000	-1.000000	-1.000000	146.827586	0.000000	-1.000000	-1.000000	487034.000000	1772311633.503916
-20412.360000	-26427.645000	-26913.150000	-14508.990000	0.000000	0.000000	0.000000	0.000000	15.795700	18.619276	14.388314	13.712728	-0.000000	0.000000	-0.000000	-0.000000	1.587040	0.350980	-0.549360	-0.004883	0.983579	-0.034851	-1.000000	-1.000000	-1.000000	-1.000000	-1.000000	-1.000000	-1.000000	146.827586	0.000000	-1.000000	-1.000000	487035.000000	1772311633.507907
-20417.535000	-26408.205000	-26911.125000	-14493.240000	0.000000	0.000000	0.000000	0.000000	8.030615	23.516460	4.932694	2.475359	-0.000000	0.000000	-0.000000	-0.000000	1.587040	0.350980	-0.549360	-0.004883	0.983579	-0.034851	-1.000000	-1.000000	-1.000000	-1.000000	-1.000000	-1.000000	-1.000000	146.827586	0.000000	-1.000000	-1.000000	487036.000000	1772311633.507910
-20414.970000	-26392.275000	-26907.300000	-14493.015000	0.000000	0.000000	0.000000	0.000000	-0.814415	22.701687	-3.115040	-4.156051	-0.000000	0.000000	-0.000000	-0.000000	1.587040	0.350980	-0.549360	-0.004883	0.983579	-0.034851	-1.000000	-1.000000	-1.000000	-1.000000	-1.000000	-1.000000	-1.000000	146.827586	0.000000	-1.000000	-1.000000	487037.000000	1772311633.511720
-20409.210000	-26415.000000	-26902.530000	-14496.705000	0.000000	0.000000	0.000000	0.000000	-7.608945	14.568696	-7.154478	-4.935587	-0.000000	0.000000	-0.000000	-0.000000	1.587040	0.350980	-0.549360	-0.004883	0.983579	-0.034851	-1.000000	-1.000000	-1.000000	-1.000000	-1.000000	-1.000000	-1.000000	146.827586	0.000000	-1.000000	-1.000000	487038.000000	1772311633.511723
-20429.415000	-26426.790000	-26923.770000	-14514.885000	0.000000	0.000000	0.000000	0.000000	-10.784965	-0.053776	-7.743097	-3.649069	-0.000000	0.000000	-0.000000	-0.000000	1.587040	0.350980	-0.549360	-0.004883	0.983579	-0.034851	-1.000000	-1.000000	-1.000000	-1.000000	-1.000000	-1.000000	-1.000000	146.827586	0.000000	-1.000000	-1.000000	487039.000000	1772311633.515836
-20429.505000	-26413.515000	-26922.465000	-14513.085000	0.000000	0.000000	0.000000	0.000000	-10.955071	-16.430032	-7.206064	-3.889563	-0.000000	0.000000	-0.000000	-0.000000	1.587040	0.350980	-0.549360	-0.004883	0.983579	-0.034851	-1.000000	-1.000000	-1.000000	-1.000000	-1.000000	-1.000000	-1.000000	146.827586	0.000000	-1.000000	-1.000000	487040.000000	1772311633.515839
-20423.430000	-26386.965000	-26917.695000	-14505.390000	0.000000	0.000000	0.000000	0.000000	-9.012856	-26.070357	-6.505947	-5.300245	-0.000000	0.000000	-0.000000	-0.000000	1.587040	0.350980	-0.549360	-0.004883	0.983579	-0.034851	-1.000000	-1.000000	-1.000000	-1.000000	-1.000000	-1.000000	-1.000000	146.827586	0.000000	-1.000000	-1.000000	487041.000000	1772311633.520157
-20433.375000	-26399.340000	-26928.945000	-14511.330000	0.000000	0.000000	0.000000	0.000000	-4.987721	-23.514419	-4.664061	-5.133152	-0.000000	0.000000	-0.000000	-0.000000	1.587040	0.350980	-0.549360	-0.004883	0.983579	-0.034851	-1.000000	-1.000000	-1.000000	-1.000000	-1.000000	-1.000000	-1.000000	146.827586	0.000000	-1.000000	-1.000000	487042.000000	1772311633.520160
-20414.340000	-26415.000000	-26909.190000	-14491.935000	0.000000	0.000000	0.000000	0.000000	0.439148	-12.489229	-1.228287	-2.167366	-0.000000	0.000000	-0.000000	-0.000000	0.610400	0.412020	-0.350980	-0.005310	0.982969	-0.034180	-1.000000	-1.000000	-1.000000	-1.000000	-1.000000	-1.000000	-1.000000	146.827586	0.000000	-1.000000	-1.000000	487043.000000	1772311633.523928
-20410.470000	-26415.990000	-26907.120000	-14490.900000	0.000000	0.000000	0.000000	0.000000	5.943992	-1.641284	3.260481	2.559015	-0.000000	0.000000	-0.000000	-0.000000	0.610400	0.412020	-0.350980	-0.005310	0.982969	-0.034180	-1.000000	-1.000000	-1.000000	-1.000000	-1.000000	-1.000000	-1.000000	146.827586	0.000000	-1.000000	-1.000000	487044.000000	1772311633.523933
-20410.110000	-26421.480000	-26905.995000	-14489.955000	0.000000	0.000000	0.000000	0.000000	9.885550	4.207177	7.352017	6.638070	-0.000000	0.000000	-0.000000	-0.000000	0.610400	0.412020	-0.350980	-0.005310	0.982969	-0.034180	-1.000000	-1.000000	-1.000000	-1.000000	-1.000000	-1.000000	-1.000000	146.827586	0.000000	-1.000000	-1.000000	487045.000000	1772311633.527850
-20406.375000	-26447.625000	-26901.090000	-14485.860000	0.000000	0.000000	0.000000	0.000000	10.344869	5.342792	8.832013	7.549022	-0.000000	0.000000	-0.000000	-0.000000	0.610400	0.412020	-0.350980	-0.005310	0.982969	-0.034180	-1.000000	-1.000000	-1.000000	-1.000000	-1.000000	-1.000000	-1.000000	146.827586	0.000000	-1.000000	-1.000000	487046.000000	1772311633.527853
-20396.340000	-26454.015000	-26888.400000	-14474.385000	0.000000	0.000000	0.000000	0.000000	7.029226	3.555418	6.958117	4.986017	-0.000000	0.000000	-0.000000	-0.000000	0.610400	0.412020	-0.350980	-0.005310	0.982969	-0.034180	-1.000000	-1.000000	-1.000000	-1.000000	-1.000000	-1.000000	-1.000000	146.827586	0.000000	-1.000000	-1.000000	487047.000000	1772311633.532016
-20418.120000	-26440.380000	-26908.515000	-14492.070000	0.000000	0.000000	0.000000	0.000000	1.507872	1.574886	2.818182	0.650686	-0.000000	0.000000	-0.000000	-0.000000	0.610400	0.412020	-0.350980	-0.005310	0.982969	-0.034180	-1.000000	-1.000000	-1.000000	-1.000000	-1.000000	-1.000000	-1.000000	146.827586	0.000000	-1.000000	-1.000000	487048.000000	1772311633.532019
-20424.420000	-26448.570000	-26915.715000	-14500.080000	0.000000	0.000000	0.000000	0.000000	-4.782941	2.392011	-2.677580	-4.199939	-0.000000	0.000000	-0.000000	-0.000000	0.610400	0.412020	-0.350980	-0.005310	0.982969	-0.034180	-1.000000	-1.000000	-1.000000	-1.000000	-1.000000	-1.000000	-1.000000	146.827586	0.000000	-1.000000	-1.000000	487049.000000	1772311633.535869
-20413.530000	-26441.370000	-26905.725000	-14490.945000	0.000000	0.000000	0.000000	0.000000	-9.933273	6.003878	-8.040274	-8.319949	-0.000000	0.000000	-0.000000	-0.000000	0.610400	0.412020	-0.350980	-0.005310	0.982969	-0.034180	-1.000000	-1.000000	-1.000000	-1.000000	-1.000000	-1.000000	-1.000000	146.827586	0.000000	-1.000000	-1.000000	487050.000000	1772311633.535872
-20417.265000	-26463.420000	-26912.745000	-14497.335000	0.000000	0.000000	0.000000	0.000000	-10.975975	9.098364	-10.301664	-9.406195	-0.000000	0.000000	-0.000000	-0.000000	0.610400	0.412020	-0.350980	-0.005310	0.982969	-0.034180	-1.000000	-1.000000	-1.000000	-1.000000	-1.000000	-1.000000	-1.000000	146.827586	0.000000	-1.000000	-1.000000	487051.000000	1772311633.539983
-20428.065000	-26457.165000	-26923.635000	-14510.205000	0.000000	0.000000	0.000000	0.000000	-7.228212	8.477948	-8.219388	-6.719381	-0.000000	0.000000	-0.000000	-0.000000	0.610400	0.412020	-0.350980	-0.005310	0.982969	-0.034180	-1.000000	-1.000000	-1.000000	-1.000000	-1.000000	-1.000000	-1.000000	146.827586	0.000000	-1.000000	-1.000000	487052.000000	1772311633.539986
-20433.195000	-26444.520000	-26927.370000	-14515.740000	0.000000	0.000000	0.000000	0.000000	-1.635081	4.510254	-3.814235	-2.421867	-0.000000	0.000000	-0.000000	-0.000000	1.281840	0.427280	-0.076300	-0.006226	0.981931	-0.031311	-1.000000	-1.000000	-1.000000	-1.000000	-1.000000	-1.000000	-1.000000	146.827586	0.000000	-1.000000	-1.000000	487053.000000	1772311633.543981
-20387.295000	-26420.805000	-26883.360000	-14474.520000	0.000000	0.000000	0.000000	0.000000	3.506668	0.953653	1.309474	2.013130	-0.000000	0.000000	-0.000000	-0.000000	1.281840	0.427280	-0.076300	-0.006226	0.981931	-0.031311	-1.000000	-1.000000	-1.000000	-1.000000	-1.000000	-1.000000	-1.000000	146.827586	0.000000	-1.000000	-1.000000	487054.000000	1772311633.543986
-20373.615000	-26424.630000	-26868.015000	-14456.790000	0.000000	0.000000	0.000000	0.000000	8.930255	0.350605	7.778422	7.652875	-0.000000	0.000000	-0.000000	-0.000000	1.281840	0.427280	-0.076300	-0.006226	0.981931	-0.031311	-1.000000	-1.000000	-1.000000	-1.000000	-1.000000	-1.000000	-1.000000	146.827586	0.000000	-1.000000	-1.000000	487055.000000	1772311633.548091
-20417.895000	-26442.630000	-26908.380000	-14493.555000	0.000000	0.000000	0.000000	0.000000	13.168040	0.630107	13.526051	13.108120	-0.000000	0.000000	-0.000000	-0.000000	1.281840	0.427280	-0.076300	-0.006226	0.981931	-0.031311	-1.000000	-1.000000	-1.000000	-1.000000	-1.000000	-1.000000	-1.000000	146.827586	0.000000	-1.000000	-1.000000	487056.000000	1772311633.548095
-20423.745000	-26448.165000	-26914.365000	-14499.630000	0.000000	0.000000	0.000000	0.000000	10.627645	-2.002397	12.384791	12.549498	-0.000000	0.000000	-0.000000	-0.000000	1.281840	0.427280	-0.076300	-0.006226	0.981931	-0.031311	-1.000000	-1.000000	-1.000000	-1.000000	-1.000000	-1.000000	-1.000000	146.827586	0.000000	-1.000000	-1.000000	487057.000000	1772311633.551935
-20427.030000	-26449.695000	-26918.865000	-14501.475000	0.000000	0.000000	0.000000	0.000000	0.176176	-7.520237	2.613031	3.753300	-0.000000	0.000000	-0.000000	-0.000000	1.281840	0.427280	-0.076300	-0.006226	0.981931	-0.031311	-1.000000	-1.000000	-1.000000	-1.000000	-1.000000	-1.000000	-1.000000	146.827586	0.000000	-1.000000	-1.000000	487058.000000	1772311633.551938
-20423.205000	-26424.540000	-26916.120000	-14500.305000	0.000000	0.000000	0.000000	0.000000	-11.055106	-11.343933	-9.119529	-7.463832	0.000000	0.000000	-0.000000	-0.000000	1.281840	0.427280	-0.076300	-0.006226	0.981931	-0.031311	-1.000000	-1.000000	-1.000000	-1.000000	-1.000000	-1.000000	-1.000000	146.827586	0.000000	-1.000000	-1.000000	487059.000000	1772311633.556009
-20418.570000	-26404.785000	-26910.765000	-14493.825000	0.000000	0.000000	0.000000	0.000000	-15.215687	-8.837461	-14.730832	-13.499564	0.000000	0.000000	-0.000000	-0.000000	1.281840	0.427280	-0.076300	-0.006226	0.981931	-0.031311	-1.000000	-1.000000	-1.000000	-1.000000	-1.000000	-1.000000	-1.000000	146.827586	0.000000	-1.000000	-1.000000	487060.000000	1772311633.556012
-20416.905000	-26412.120000	-26907.885000	-14490.405000	0.000000	0.000000	0.000000	0.000000	-10.465731	-0.515043	-11.486424	-11.410999	0.000000	0.000000	-0.000000	-0.000000	1.281840	0.427280	-0.076300	-0.006226	0.981931	-0.031311	-1.000000	-1.000000	-1.000000	-1.000000	-1.000000	-1.000000	-1.000000	146.827586	0.000000	-1.000000	-1.000000	487061.000000	1772311633.559980
-20427.255000	-26417.340000	-26919.720000	-14505.300000	0.000000	0.000000	0.000000	0.000000	-1.098681	7.360586	-2.870239	-4.059443	0.000000	0.000000	-0.000000	-0.000000	1.281840	0.427280	-0.076300	-0.006226	0.981931	-0.031311	-1.000000	-1.000000	-1.000000	-1.000000	-1.000000	-1.000000	-1.000000	146.827586	0.000000	-1.000000	-1.000000	487062.000000	1772311633.559983
-20421.405000	-26415.945000	-26914.050000	-14502.825000	0.000000	0.000000	0.000000	0.000000	6.700429	8.947314	5.050334	2.918005	0.000000	0.000000	-0.000000	-0.000000	2.105880	-0.152600	0.350980	-0.006165	0.981565	-0.029480	-1.000000	-1.000000	-1.000000	-1.000000	-1.000000	-1.000000	-1.000000	146.827586	0.000000	-1.000000	-1.000000	487063.000000	1772311633.564069
-20391.750000	-26411.445000	-26879.805000	-14465.340000	0.000000	0.000000	0.000000	0.000000	10.171606	4.374964	9.221499	6.714043	0.000000	0.000000	-0.000000	-0.000000	2.105880	-0.152600	0.350980	-0.006165	0.981565	-0.029480	-1.000000	-1.000000	-1.000000	-1.000000	-1.000000	-1.000000	-1.000000	146.827586	0.000000	-1.000000	-1.000000	487064.000000	1772311633.564072
-20401.515000	-26391.915000	-26891.370000	-14473.665000	0.000000	0.000000	0.000000	0.000000	10.474348	-1.505024	10.526132	8.611200	0.000000	0.000000	-0.000000	-0.000000	2.105880	-0.152600	0.350980	-0.006165	0.981565	-0.029480	-1.000000	-1.000000	-1.000000	-1.000000	-1.000000	-1.000000	-1.000000	146.827586	0.000000	-1.000000	-1.000000	487065.000000	1772311633.567947
-20425.680000	-26396.505000	-26916.255000	-14498.865000	0.000000	0.000000	0.000000	0.000000	7.866223	-4.224973	8.760613	8.467782	0.000000	0.000000	-0.000000	-0.000000	2.105880	-0.152600	0.350980	-0.006165	0.981565	-0.029480	-1.000000	-1.000000	-1.000000	-1.000000	-1.000000	-1.000000	-1.000000	146.827586	0.000000	-1.000000	-1.000000	487066.000000	1772311633.567949
-20420.505000	-26403.705000	-26913.195000	-14497.110000	0.000000	0.000000	0.000000	0.000000	1.346198	-3.576938	2.372029	3.875785	0.000000	0.000000	-0.000000	-0.000000	2.105880	-0.152600	0.350980	-0.006165	0.981565	-0.029480	-1.000000	-1.000000	-1.000000	-1.000000	-1.000000	-1.000000	-1.000000	146.827586	0.000000	-1.000000	-1.000000	487067.000000	1772311633.572091
-20420.730000	-26407.755000	-26915.130000	-14500.080000	0.000000	0.000000	0.000000	0.000000	-6.649952	-2.440562	-6.281066	-3.952715	0.000000	0.000000	-0.000000	-0.000000	2.105880	-0.152600	0.350980	-0.006165	0.981565	-0.029480	-1.000000	-1.000000	-1.000000	-1.000000	-1.000000	-1.000000	-1.000000	146.827586	0.000000	-1.000000	-1.000000	487068.000000	1772311633.572094
-20426.175000	-26410.230000	-26918.730000	-14503.095000	0.000000	0.000000	0.000000	0.000000	-11.262654	-2.533185	-11.801417	-9.978257	0.000000	0.000000	-0.000000	-0.000000	2.105880	-0.152600	0.350980	-0.006165	0.981565	-0.029480	-1.000000	-1.000000	-1.000000	-1.000000	-1.000000	-1.000000	-1.000000	146.827586	0.000000	-1.000000	-1.000000	487069.000000	1772311633.576075
-20413.755000	-26399.430000	-26904.645000	-14488.695000	0.000000	0.000000	0.000000	0.000000	-10.127200	-2.841964	-11.047807	-10.449524	0.000000	0.000000	-0.000000	-0.000000	2.105880	-0.152600	0.350980	-0.006165	0.981565	-0.029480	-1.000000	-1.000000	-1.000000	-1.000000	-1.000000	-1.000000	-1.000000	146.827586	0.000000	-1.000000	-1.000000	487070.000000	1772311633.576078
-20404.710000	-26411.940000	-26895.195000	-14479.695000	0.000000	0.000000	0.000000	0.000000	-4.182559	-1.762910	-4.604937	-5.088325	0.000000	0.000000	-0.000000	-0.000000	2.105880	-0.152600	0.350980	-0.006165	0.981565	-0.029480	-1.000000	-1.000000	-1.000000	-1.000000	-1.000000	-1.000000	-1.000000	146.827586	0.000000	-1.000000	-1.000000	487071.000000	1772311633.580621
-20436.975000	-26444.880000	-26926.020000	-14507.910000	0.000000	0.000000	0.000000	0.000000	2.941358	-0.166793	3.499762	2.569972	0.000000	0.000000	-0.000000	-0.000000	2.105880	-0.152600	0.350980	-0.006165	0.981565	-0.029480	-1.000000	-1.000000	-1.000000	-1.000000	-1.000000	-1.000000	-1.000000	146.827586	0.000000	-1.000000	-1.000000	487072.000000	1772311633.580625
-20441.205000	-26480.160000	-26929.350000	-14508.585000	0.000000	0.000000	0.000000	0.000000	6.160626	-1.040432	7.484597	6.835972	0.000000	0.000000	-0.000000	-0.000000	2.426340	-0.457800	0.778260	-0.006653	0.981016	-0.029053	-1.000000	-1.000000	-1.000000	-1.000000	-1.000000	-1.000000	-1.000000	146.827586	0.000000	-1.000000	-1.000000	487073.000000	1772311633.584101
-20412.990000	-26478.405000	-26900.910000	-14475.105000	0.000000	0.000000	0.000000	0.000000	4.351579	-4.690692	5.787816	5.975551	0.000000	0.000000	-0.000000	-0.000000	2.426340	-0.457800	0.778260	-0.006653	0.981016	-0.029053	-1.000000	-1.000000	-1.000000	-1.000000	-1.000000	-1.000000	-1.000000	146.827586	0.000000	-1.000000	-1.000000	487074.000000	1772311633.584105
-20410.470000	-26441.235000	-26897.445000	-14469.165000	0.000000	0.000000	0.000000	0.000000	2.047348	-5.886526	2.926081	4.089460	0.000000	0.000000	-0.000000	-0.000000	2.426340	-0.457800	0.778260	-0.006653	0.981016	-0.029053	-1.000000	-1.000000	-1.000000	-1.000000	-1.000000	-1.000000	-1.000000	146.827586	0.000000	-1.000000	-1.000000	487075.000000	1772311633.589622
-20422.350000	-26410.185000	-26914.230000	-14494.320000	0.000000	0.000000	0.000000	0.000000	2.289398	1.266006	2.175691	3.684660	0.000000	0.000000	-0.000000	-0.000000	2.426340	-0.457800	0.778260	-0.006653	0.981016	-0.029053	-1.000000	-1.000000	-1.000000	-1.000000	-1.000000	-1.000000	-1.000000	146.827586	0.000000	-1.000000	-1.000000	487076.000000	1772311633.589625
-20407.995000	-26369.100000	-26904.735000	-14502.690000	0.000000	0.000000	0.000000	0.000000	3.180592	15.682943	1.835390	1.987855	0.000000	0.000000	-0.000000	-0.000000	2.426340	-0.457800	0.778260	-0.006653	0.981016	-0.029053	-1.000000	-1.000000	-1.000000	-1.000000	-1.000000	-1.000000	-1.000000	146.827586	0.000000	-1.000000	-1.000000	487077.000000	1772311633.592231
-20398.590000	-26347.050000	-26894.295000	-14493.060000	0.000000	0.000000	0.000000	0.000000	2.831703	28.844372	0.363089	-2.667544	0.000000	0.000000	-0.000000	-0.000000	2.426340	-0.457800	0.778260	-0.006653	0.981016	-0.029053	-1.000000	-1.000000	-1.000000	-1.000000	-1.000000	-1.000000	-1.000000	146.827586	0.000000	-1.000000	-1.000000	487078.000000	1772311633.592233
-20421.990000	-26348.580000	-26917.245000	-14511.330000	0.000000	0.000000	0.000000	0.000000	1.219615	31.085103	-1.499188	-7.311591	0.000000	0.000000	-0.000000	-0.000000	2.426340	-0.457800	0.778260	-0.006653	0.981016	-0.029053	-1.000000	-1.000000	-1.000000	-1.000000	-1.000000	-1.000000	-1.000000	146.827586	0.000000	-1.000000	-1.000000	487079.000000	1772311633.596203
-20456.235000	-26341.605000	-26948.835000	-14536.125000	0.000000	0.000000	0.000000	0.000000	-2.566872	18.323411	-4.111767	-9.273963	0.000000	0.000000	-0.000000	-0.000000	2.426340	-0.457800	0.778260	-0.006653	0.981016	-0.029053	-1.000000	-1.000000	-1.000000	-1.000000	-1.000000	-1.000000	-1.000000	146.827586	0.000000	-1.000000	-1.000000	487080.000000	1772311633.596206
-20454.705000	-26330.490000	-26947.125000	-14528.835000	0.000000	0.000000	0.000000	0.000000	-8.704744	-4.283882	-8.059337	-8.584813	0.000000	0.000000	-0.000000	-0.000000	2.426340	-0.457800	0.778260	-0.006653	0.981016	-0.029053	-1.000000	-1.000000	-1.000000	-1.000000	-1.000000	-1.000000	-1.000000	146.827586	0.000000	-1.000000	-1.000000	487081.000000	1772311633.600185
-20420.955000	-26342.550000	-26911.305000	-14491.215000	0.000000	0.000000	0.000000	0.000000	-12.564554	-25.766663	-9.855338	-4.426560	0.000000	0.000000	-0.000000	-0.000000	2.426340	-0.457800	0.778260	-0.006653	0.981016	-0.029053	-1.000000	-1.000000	-1.000000	-1.000000	-1.000000	-1.000000	-1.000000	146.827586	0.000000	-1.000000	-1.000000	487082.000000	1772311633.600187
-20382.930000	-26364.195000	-26872.470000	-14452.065000	0.000000	0.000000	0.000000	0.000000	-7.646855	-37.723615	-4.023527	4.996872	0.000000	0.000000	-0.000000	-0.000000	2.823100	-0.335720	0.564620	-0.005310	0.980832	-0.028625	-1.000000	-1.000000	-1.000000	-1.000000	-1.000000	-1.000000	-1.000000	146.827586	0.000000	-1.000000	-1.000000	487083.000000	1772311633.604208
-20417.580000	-26371.035000	-26911.305000	-14491.890000	0.000000	0.000000	0.000000	0.000000	5.221284	-38.025034	8.213492	16.421998	0.000000	0.000000	-0.000000	-0.000000	2.823100	-0.335720	0.564620	-0.005310	0.980832	-0.028625	-1.000000	-1.000000	-1.000000	-1.000000	-1.000000	-1.000000	-1.000000	146.827586	0.000000	-1.000000	-1.000000	487084.000000	1772311633.604211
-20435.625000	-26385.030000	-26930.790000	-14512.545000	0.000000	0.000000	0.000000	0.000000	15.450625	-28.414114	16.485000	20.152877	0.000000	0.000000	-0.000000	-0.000000	2.823100	-0.335720	0.564620	-0.005310	0.980832	-0.028625	-1.000000	-1.000000	-1.000000	-1.000000	-1.000000	-1.000000	-1.000000	146.827586	0.000000	-1.000000	-1.000000	487085.000000	1772311633.608139
-20432.565000	-26358.930000	-26924.490000	-14495.940000	0.000000	0.000000	0.000000	0.000000	14.028215	-11.975158	12.712820	10.845314	0.000000	0.000000	-0.000000	-0.000000	2.823100	-0.335720	0.564620	-0.005310	0.980832	-0.028625	-1.000000	-1.000000	-1.000000	-1.000000	-1.000000	-1.000000	-1.000000	146.827586	0.000000	-1.000000	-1.000000	487086.000000	1772311633.608143
-20422.485000	-26342.055000	-26910.900000	-14471.415000	0.000000	0.000000	0.000000	0.000000	3.679502	7.694017	1.024227	-4.167274	0.000000	0.000000	-0.000000	-0.000000	2.823100	-0.335720	0.564620	-0.005310	0.980832	-0.028625	-1.000000	-1.000000	-1.000000	-1.000000	-1.000000	-1.000000	-1.000000	146.827586	0.000000	-1.000000	-1.000000	487087.000000	1772311633.612131
-20420.280000	-26329.635000	-26912.520000	-14490.855000	0.000000	0.000000	0.000000	0.000000	-6.068128	25.605148	-8.392643	-13.595200	0.000000	0.000000	-0.000000	-0.000000	2.823100	-0.335720	0.564620	-0.005310	0.980832	-0.028625	-1.000000	-1.000000	-1.000000	-1.000000	-1.000000	-1.000000	-1.000000	146.827586	0.000000	-1.000000	-1.000000	487088.000000	1772311633.612134
-20412.135000	-26324.280000	-26896.545000	-14476.005000	0.000000	0.000000	0.000000	0.000000	-9.115431	35.375231	-10.058403	-14.019158	0.000000	0.000000	-0.000000	-0.000000	2.823100	-0.335720	0.564620	-0.005310	0.980832	-0.028625	-1.000000	-1.000000	-1.000000	-1.000000	-1.000000	-1.000000	-1.000000	146.827586	0.000000	-1.000000	-1.000000	487089.000000	1772311633.616214
-20406.645000	-26346.870000	-26893.530000	-14480.865000	0.000000	0.000000	0.000000	0.000000	-5.807568	32.391340	-5.274484	-8.911428	0.000000	0.000000	-0.000000	-0.000000	2.823100	-0.335720	0.564620	-0.005310	0.980832	-0.028625	-1.000000	-1.000000	-1.000000	-1.000000	-1.000000	-1.000000	-1.000000	146.827586	0.000000	-1.000000	-1.000000	487090.000000	1772311633.616216
-20409.615000	-26389.395000	-26911.755000	-14519.790000	0.000000	0.000000	0.000000	0.000000	-0.192668	16.550974	0.908829	-3.385799	0.000000	0.000000	-0.000000	-0.000000	2.823100	-0.335720	0.564620	-0.005310	0.980832	-0.028625	-1.000000	-1.000000	-1.000000	-1.000000	-1.000000	-1.000000	-1.000000	146.827586	0.000000	-1.000000	-1.000000	487091.000000	1772311633.627150
-20403.315000	-26377.920000	-26896.815000	-14490.225000	0.000000	0.000000	0.000000	0.000000	3.582986	-6.053114	3.656414	-1.013658	0.000000	0.000000	-0.000000	-0.000000	2.823100	-0.335720	0.564620	-0.005310	0.980832	-0.028625	-1.000000	-1.000000	-1.000000	-1.000000	-1.000000	-1.000000	-1.000000	146.827586	0.000000	-1.000000	-1.000000	487092.000000	1772311633.627153
-20391.705000	-26347.230000	-26891.550000	-14484.015000	0.000000	0.000000	0.000000	0.000000	4.085146	-23.240088	2.490897	-0.284453	0.000000	0.000000	-0.000000	-0.000000	3.204600	-0.091560	-0.152600	-0.003357	0.980893	-0.028198	-1.000000	-1.000000	-1.000000	-1.000000	-1.000000	-1.000000	-1.000000	146.827586	0.000000	-1.000000	-1.000000	487093.000000	1772311633.627157
-20429.055000	-26298.990000	-26932.455000	-14524.380000	0.000000	0.000000	0.000000	0.000000	1.906348	-23.917945	-0.397214	1.649559	0.000000	0.000000	-0.000000	-0.000000	3.204600	-0.091560	-0.152600	-0.003357	0.980893	-0.028198	-1.000000	-1.000000	-1.000000	-1.000000	-1.000000	-1.000000	-1.000000	146.827586	0.000000	-1.000000	-1.000000	487094.000000	1772311633.627160
-20447.325000	-26277.615000	-26945.595000	-14531.445000	0.000000	0.000000	0.000000	0.000000	-2.929503	-7.938457	-4.533023	2.947811	0.000000	0.000000	-0.000000	-0.000000	3.204600	-0.091560	-0.152600	-0.003357	0.980893	-0.028198	-1.000000	-1.000000	-1.000000	-1.000000	-1.000000	-1.000000	-1.000000	146.827586	0.000000	-1.000000	-1.000000	487095.000000	1772311633.628271
-20431.935000	-26268.885000	-26926.650000	-14514.885000	0.000000	0.000000	0.000000	0.000000	-8.816184	12.740076	-8.547934	1.867640	0.000000	0.000000	-0.000000	-0.000000	3.204600	-0.091560	-0.152600	-0.003357	0.980893	-0.028198	-1.000000	-1.000000	-1.000000	-1.000000	-1.000000	-1.000000	-1.000000	146.827586	0.000000	-1.000000	-1.000000	487096.000000	1772311633.628275
-20435.850000	-26275.860000	-26928.900000	-14515.515000	0.000000	0.000000	0.000000	0.000000	-10.791067	23.350633	-8.114912	1.213012	0.000000	0.000000	-0.000000	-0.000000	3.204600	-0.091560	-0.152600	-0.003357	0.980893	-0.028198	-1.000000	-1.000000	-1.000000	-1.000000	-1.000000	-1.000000	-1.000000	146.827586	0.000000	-1.000000	-1.000000	487097.000000	1772311633.632069
-20441.790000	-26274.600000	-26933.670000	-14515.560000	0.000000	0.000000	0.000000	0.000000	-6.105805	17.348875	-1.729743	3.208384	0.000000	0.000000	-0.000000	-0.000000	3.204600	-0.091560	-0.152600	-0.003357	0.980893	-0.028198	-1.000000	-1.000000	-1.000000	-1.000000	-1.000000	-1.000000	-1.000000	146.827586	0.000000	-1.000000	-1.000000	487098.000000	1772311633.632073
-20437.920000	-26262.855000	-26931.780000	-14512.815000	0.000000	0.000000	0.000000	0.000000	2.248751	0.131027	6.510721	6.121665	0.000000	0.000000	-0.000000	-0.000000	3.204600	-0.091560	-0.152600	-0.003357	0.980893	-0.028198	-1.000000	-1.000000	-1.000000	-1.000000	-1.000000	-1.000000	-1.000000	146.827586	0.000000	-1.000000	-1.000000	487099.000000	1772311633.636325
-20431.395000	-26269.740000	-26926.920000	-14509.305000	0.000000	0.000000	0.000000	0.000000	9.547295	-16.745229	11.737409	7.260474	0.000000	0.000000	-0.000000	-0.000000	3.204600	-0.091560	-0.152600	-0.003357	0.980893	-0.028198	-1.000000	-1.000000	-1.000000	-1.000000	-1.000000	-1.000000	-1.000000	146.827586	0.000000	-1.000000	-1.000000	487100.000000	1772311633.636328
-20441.340000	-26216.595000	-26940.645000	-14524.155000	0.000000	0.000000	0.000000	0.000000	12.828067	-23.848353	11.881447	5.373058	0.000000	0.000000	-0.000000	-0.000000	3.204600	-0.091560	-0.152600	-0.003357	0.980893	-0.028198	-1.000000	-1.000000	-1.000000	-1.000000	-1.000000	-1.000000	-1.000000	146.827586	0.000000	-1.000000	-1.000000	487101.000000	1772311633.642778
-20448.495000	-26143.020000	-26949.690000	-14532.840000	0.000000	0.000000	0.000000	0.000000	10.907997	-16.799925	7.153375	0.547209	0.000000	0.000000	-0.000000	-0.000000	3.204600	-0.091560	-0.152600	-0.003357	0.980893	-0.028198	-1.000000	-1.000000	-1.000000	-1.000000	-1.000000	-1.000000	-1.000000	146.827586	0.000000	-1.000000	-1.000000	487102.000000	1772311633.642781
-20430.270000	-26132.040000	-26928.045000	-14510.430000	0.000000	0.000000	0.000000	0.000000	5.079765	1.541231	0.125129	-5.029480	0.000000	0.000000	-0.000000	-0.000000	3.662400	0.320460	-0.686700	-0.003174	0.980771	-0.028686	-1.000000	-1.000000	-1.000000	-1.000000	-1.000000	-1.000000	-1.000000	146.827586	0.000000	-1.000000	-1.000000	487103.000000	1772311633.644315
-20426.445000	-26121.600000	-26924.625000	-14507.145000	0.000000	0.000000	0.000000	0.000000	-0.716546	19.109986	-4.653864	-7.363151	0.000000	0.000000	-0.000000	-0.000000	3.662400	0.320460	-0.686700	-0.003174	0.980771	-0.028686	-1.000000	-1.000000	-1.000000	-1.000000	-1.000000	-1.000000	-1.000000	146.827586	0.000000	-1.000000	-1.000000	487104.000000	1772311633.644318
-20425.815000	-26144.820000	-26920.845000	-14502.915000	0.000000	0.000000	0.000000	0.000000	-3.483684	22.518381	-4.730883	-4.797342	0.000000	0.000000	-0.000000	-0.000000	3.662400	0.320460	-0.686700	-0.003174	0.980771	-0.028686	-1.000000	-1.000000	-1.000000	-1.000000	-1.000000	-1.000000	-1.000000	146.827586	0.000000	-1.000000	-1.000000	487105.000000	1772311633.648341
-20428.920000	-26179.290000	-26924.220000	-14505.615000	0.000000	0.000000	0.000000	0.000000	-3.789548	8.069213	-2.091966	-0.102518	0.000000	0.000000	-0.000000	-0.000000	3.662400	0.320460	-0.686700	-0.003174	0.980771	-0.028686	-1.000000	-1.000000	-1.000000	-1.000000	-1.000000	-1.000000	-1.000000	146.827586	0.000000	-1.000000	-1.000000	487106.000000	1772311633.648344
-20429.100000	-26188.020000	-26924.715000	-14505.570000	0.000000	0.000000	0.000000	0.000000	-3.710339	-15.890015	-0.216646	2.805258	0.000000	0.000000	-0.000000	-0.000000	3.662400	0.320460	-0.686700	-0.003174	0.980771	-0.028686	-1.000000	-1.000000	-1.000000	-1.000000	-1.000000	-1.000000	-1.000000	146.827586	0.000000	-1.000000	-1.000000	487107.000000	1772311633.652269
-20426.310000	-26208.540000	-26920.980000	-14502.420000	0.000000	0.000000	0.000000	0.000000	-4.062903	-34.719890	-0.571666	2.419621	0.000000	0.000000	-0.000000	-0.000000	3.662400	0.320460	-0.686700	-0.003174	0.980771	-0.028686	-1.000000	-1.000000	-1.000000	-1.000000	-1.000000	-1.000000	-1.000000	146.827586	0.000000	-1.000000	-1.000000	487108.000000	1772311633.652272
-20421.135000	-26232.660000	-26916.705000	-14498.820000	0.000000	0.000000	0.000000	0.000000	-4.088872	-37.728948	-2.039861	0.083623	0.000000	0.000000	-0.000000	-0.000000	3.662400	0.320460	-0.686700	-0.003174	0.980771	-0.028686	-1.000000	-1.000000	-1.000000	-1.000000	-1.000000	-1.000000	-1.000000	146.827586	0.000000	-1.000000	-1.000000	487109.000000	1772311633.656511
-20425.590000	-26236.890000	-26919.990000	-14499.630000	0.000000	0.000000	0.000000	0.000000	-3.016788	-24.481403	-2.896514	-2.017134	0.000000	0.000000	-0.000000	-0.000000	3.662400	0.320460	-0.686700	-0.003174	0.980771	-0.028686	-1.000000	-1.000000	-1.000000	-1.000000	-1.000000	-1.000000	-1.000000	146.827586	0.000000	-1.000000	-1.000000	487110.000000	1772311633.656514
-20422.440000	-26243.145000	-26916.750000	-14494.140000	0.000000	0.000000	0.000000	0.000000	-1.237385	-2.059172	-2.611479	-2.718263	0.000000	0.000000	-0.000000	-0.000000	3.662400	0.320460	-0.686700	-0.003174	0.980771	-0.028686	-1.000000	-1.000000	-1.000000	-1.000000	-1.000000	-1.000000	-1.000000	146.827586	0.000000	-1.000000	-1.000000	487111.000000	1772311633.660453
-20419.335000	-26244.765000	-26911.170000	-14485.230000	0.000000	0.000000	0.000000	0.000000	0.435113	20.254907	-1.478901	-1.873647	0.000000	0.000000	-0.000000	-0.000000	3.662400	0.320460	-0.686700	-0.003174	0.980771	-0.028686	-1.000000	-1.000000	-1.000000	-1.000000	-1.000000	-1.000000	-1.000000	146.827586	0.000000	-1.000000	-1.000000	487112.000000	1772311633.660455
-20425.770000	-26236.620000	-26912.745000	-14484.105000	0.000000	0.000000	0.000000	0.000000	1.529226	34.813519	0.105002	0.047121	0.000000	0.000000	-0.000000	-0.000000	4.150720	0.320460	-0.778260	-0.003113	0.980588	-0.028381	-1.000000	-1.000000	-1.000000	-1.000000	-1.000000	-1.000000	-1.000000	146.827586	0.000000	-1.000000	-1.000000	487113.000000	1772311633.664286
-20431.485000	-26205.930000	-26923.770000	-14504.580000	0.000000	0.000000	0.000000	0.000000	1.559800	38.670543	1.217703	1.443521	0.000000	0.000000	-0.000000	-0.000000	4.150720	0.320460	-0.778260	-0.003113	0.980588	-0.028381	-1.000000	-1.000000	-1.000000	-1.000000	-1.000000	-1.000000	-1.000000	146.827586	0.000000	-1.000000	-1.000000	487114.000000	1772311633.664288
-20418.840000	-26190.675000	-26917.020000	-14509.440000	0.000000	0.000000	0.000000	0.000000	0.658583	33.627877	0.946205	0.341771	0.000000	0.000000	-0.000000	-0.000000	4.150720	0.320460	-0.778260	-0.003113	0.980588	-0.028381	-1.000000	-1.000000	-1.000000	-1.000000	-1.000000	-1.000000	-1.000000	146.827586	0.000000	-1.000000	-1.000000	487115.000000	1772311633.668288
-20410.560000	-26205.660000	-26905.455000	-14490.315000	0.000000	0.000000	0.000000	0.000000	0.327556	22.264727	0.114206	-2.474826	0.000000	0.000000	-0.000000	-0.000000	4.150720	0.320460	-0.778260	-0.003113	0.980588	-0.028381	-1.000000	-1.000000	-1.000000	-1.000000	-1.000000	-1.000000	-1.000000	146.827586	0.000000	-1.000000	-1.000000	487116.000000	1772311633.668291
-20424.870000	-26217.450000	-26916.750000	-14494.140000	0.000000	0.000000	0.000000	0.000000	1.312592	5.739839	0.260088	-3.442328	0.000000	0.000000	-0.000000	-0.000000	4.150720	0.320460	-0.778260	-0.003113	0.980588	-0.028381	-1.000000	-1.000000	-1.000000	-1.000000	-1.000000	-1.000000	-1.000000	146.827586	0.000000	-1.000000	-1.000000	487117.000000	1772311633.672269
-20423.250000	-26205.345000	-26914.905000	-14488.965000	0.000000	0.000000	0.000000	0.000000	1.977481	-12.794567	1.017502	-0.966801	0.000000	0.000000	-0.000000	-0.000000	4.150720	0.320460	-0.778260	-0.003113	0.980588	-0.028381	-1.000000	-1.000000	-1.000000	-1.000000	-1.000000	-1.000000	-1.000000	146.827586	0.000000	-1.000000	-1.000000	487118.000000	1772311633.672272
-20416.770000	-26177.220000	-26913.690000	-14489.685000	0.000000	0.000000	0.000000	0.000000	1.059558	-25.955275	1.118958	2.844580	0.000000	0.000000	-0.000000	-0.000000	4.150720	0.320460	-0.778260	-0.003113	0.980588	-0.028381	-1.000000	-1.000000	-1.000000	-1.000000	-1.000000	-1.000000	-1.000000	146.827586	0.000000	-1.000000	-1.000000	487119.000000	1772311633.676455
-20429.100000	-26176.365000	-26927.055000	-14515.155000	0.000000	0.000000	0.000000	0.000000	-0.581145	-27.459493	0.303502	4.685672	0.000000	0.000000	-0.000000	-0.000000	4.150720	0.320460	-0.778260	-0.003113	0.980588	-0.028381	-1.000000	-1.000000	-1.000000	-1.000000	-1.000000	-1.000000	-1.000000	146.827586	0.000000	-1.000000	-1.000000	487120.000000	1772311633.676458
-20433.915000	-26219.025000	-26924.040000	-14500.530000	0.000000	0.000000	0.000000	0.000000	-2.077648	-19.473585	-1.092421	2.840096	0.000000	0.000000	-0.000000	-0.000000	4.150720	0.320460	-0.778260	-0.003113	0.980588	-0.028381	-1.000000	-1.000000	-1.000000	-1.000000	-1.000000	-1.000000	-1.000000	146.827586	0.000000	-1.000000	-1.000000	487121.000000	1772311633.683821
-20435.985000	-26237.385000	-26922.780000	-14492.610000	0.000000	0.000000	0.000000	0.000000	-3.186729	-10.886274	-2.148014	-0.564707	0.000000	0.000000	-0.000000	-0.000000	4.150720	0.320460	-0.778260	-0.003113	0.980588	-0.028381	-1.000000	-1.000000	-1.000000	-1.000000	-1.000000	-1.000000	-1.000000	146.827586	0.000000	-1.000000	-1.000000	487122.000000	1772311633.683824
-20419.155000	-26230.545000	-26911.125000	-14497.740000	0.000000	0.000000	0.000000	0.000000	-2.936134	-6.806155	-1.503202	-1.894737	0.000000	0.000000	-0.000000	-0.000000	4.990020	0.473060	-0.900340	-0.002686	0.979612	-0.028076	-1.000000	-1.000000	-1.000000	-1.000000	-1.000000	-1.000000	-1.000000	146.827586	0.000000	-1.000000	-1.000000	487123.000000	1772311633.684518
-20413.620000	-26231.715000	-26912.790000	-14509.350000	0.000000	0.000000	0.000000	0.000000	-0.200553	-4.162254	1.066820	-0.913912	0.000000	0.000000	-0.000000	-0.000000	4.990020	0.473060	-0.900340	-0.002686	0.979612	-0.028076	-1.000000	-1.000000	-1.000000	-1.000000	-1.000000	-1.000000	-1.000000	146.827586	0.000000	-1.000000	-1.000000	487124.000000	1772311633.684520
-20431.080000	-26264.790000	-26930.340000	-14524.380000	0.000000	0.000000	0.000000	0.000000	3.755836	0.732290	3.524322	-0.331358	0.000000	0.000000	-0.000000	-0.000000	4.990020	0.473060	-0.900340	-0.002686	0.979612	-0.028076	-1.000000	-1.000000	-1.000000	-1.000000	-1.000000	-1.000000	-1.000000	146.827586	0.000000	-1.000000	-1.000000	487125.000000	1772311633.688392
-20425.320000	-26289.630000	-26922.510000	-14513.805000	0.000000	0.000000	0.000000	0.000000	5.493201	5.987708	3.315816	-1.412671	0.000000	0.000000	-0.000000	-0.000000	4.990020	0.473060	-0.900340	-0.002686	0.979612	-0.028076	-1.000000	-1.000000	-1.000000	-1.000000	-1.000000	-1.000000	-1.000000	146.827586	0.000000	-1.000000	-1.000000	487126.000000	1772311633.688397
-20399.265000	-26287.875000	-26894.880000	-14480.460000	0.000000	0.000000	0.000000	0.000000	4.077600	8.333470	1.216327	-1.691182	0.000000	0.000000	-0.000000	-0.000000	4.990020	0.473060	-0.900340	-0.002686	0.979612	-0.028076	-1.000000	-1.000000	-1.000000	-1.000000	-1.000000	-1.000000	-1.000000	146.827586	0.000000	-1.000000	-1.000000	487127.000000	1772311633.692412
-20415.240000	-26300.745000	-26909.730000	-14490.945000	0.000000	0.000000	0.000000	0.000000	1.962058	8.339496	0.319171	1.574244	0.000000	0.000000	-0.000000	-0.000000	4.990020	0.473060	-0.900340	-0.002686	0.979612	-0.028076	-1.000000	-1.000000	-1.000000	-1.000000	-1.000000	-1.000000	-1.000000	146.827586	0.000000	-1.000000	-1.000000	487128.000000	1772311633.692415
-20437.515000	-26298.135000	-26932.230000	-14512.590000	0.000000	0.000000	0.000000	0.000000	-0.204974	8.338615	0.359860	5.828038	0.000000	0.000000	-0.000000	-0.000000	4.990020	0.473060	-0.900340	-0.002686	0.979612	-0.028076	-1.000000	-1.000000	-1.000000	-1.000000	-1.000000	-1.000000	-1.000000	146.827586	0.000000	-1.000000	-1.000000	487129.000000	1772311633.696369
-20428.920000	-26289.225000	-26922.645000	-14510.295000	0.000000	0.000000	0.000000	0.000000	-3.731505	9.243723	-1.425076	5.680273	0.000000	0.000000	-0.000000	-0.000000	4.990020	0.473060	-0.900340	-0.002686	0.979612	-0.028076	-1.000000	-1.000000	-1.000000	-1.000000	-1.000000	-1.000000	-1.000000	146.827586	0.000000	-1.000000	-1.000000	487130.000000	1772311633.696377
-20430.765000	-26287.920000	-26921.070000	-14508.810000	0.000000	0.000000	0.000000	0.000000	-7.147066	10.445863	-4.369777	0.610420	0.000000	0.000000	-0.000000	-0.000000	4.990020	0.473060	-0.900340	-0.002686	0.979612	-0.028076	-1.000000	-1.000000	-1.000000	-1.000000	-1.000000	-1.000000	-1.000000	146.827586	0.000000	-1.000000	-1.000000	487131.000000	1772311633.700377
-20427.795000	-26276.535000	-26917.695000	-14495.670000	0.000000	0.000000	0.000000	0.000000	-7.282637	10.391556	-5.142811	-4.562528	0.000000	0.000000	-0.000000	-0.000000	4.990020	0.473060	-0.900340	-0.002686	0.979612	-0.028076	-1.000000	-1.000000	-1.000000	-1.000000	-1.000000	-1.000000	-1.000000	146.827586	0.000000	-1.000000	-1.000000	487132.000000	1772311633.700382
-20403.855000	-26242.200000	-26896.095000	-14468.535000	0.000000	0.000000	0.000000	0.000000	-3.120505	8.366278	-2.241184	-5.140062	0.000000	0.000000	-0.000000	-0.000000	5.035800	0.350980	-1.052940	-0.003845	0.980955	-0.030151	-1.000000	-1.000000	-1.000000	-1.000000	-1.000000	-1.000000	-1.000000	146.827586	0.000000	-1.000000	-1.000000	487133.000000	1772311633.704498
-20407.140000	-26233.290000	-26897.175000	-14468.805000	0.000000	0.000000	0.000000	0.000000	3.659342	5.363031	3.048724	-0.521243	0.000000	0.000000	-0.000000	-0.000000	5.035800	0.350980	-1.052940	-0.003845	0.980955	-0.030151	-1.000000	-1.000000	-1.000000	-1.000000	-1.000000	-1.000000	-1.000000	146.827586	0.000000	-1.000000	-1.000000	487134.000000	1772311633.704501
-20439.045000	-26277.075000	-26928.945000	-14489.865000	0.000000	0.000000	0.000000	0.000000	8.619162	0.787350	6.812579	4.711053	0.000000	0.000000	-0.000000	-0.000000	5.035800	0.350980	-1.052940	-0.003845	0.980955	-0.030151	-1.000000	-1.000000	-1.000000	-1.000000	-1.000000	-1.000000	-1.000000	146.827586	0.000000	-1.000000	-1.000000	487135.000000	1772311633.708790
-20447.460000	-26298.405000	-26946.855000	-14523.165000	0.000000	0.000000	0.000000	0.000000	7.000677	-8.190307	4.611633	4.191166	0.000000	0.000000	-0.000000	-0.000000	5.035800	0.350980	-1.052940	-0.003845	0.980955	-0.030151	-1.000000	-1.000000	-1.000000	-1.000000	-1.000000	-1.000000	-1.000000	146.827586	0.000000	-1.000000	-1.000000	487136.000000	1772311633.708794
-20417.355000	-26308.485000	-26909.820000	-14485.770000	0.000000	0.000000	0.000000	0.000000	0.056567	-20.318754	-2.427330	-2.789917	0.000000	0.000000	-0.000000	-0.000000	5.035800	0.350980	-1.052940	-0.003845	0.980955	-0.030151	-1.000000	-1.000000	-1.000000	-1.000000	-1.000000	-1.000000	-1.000000	146.827586	0.000000	-1.000000	-1.000000	487137.000000	1772311633.712398
-20407.815000	-26313.795000	-26900.955000	-14473.845000	0.000000	0.000000	0.000000	0.000000	-4.857200	-28.104588	-6.780235	-8.802284	0.000000	0.000000	-0.000000	-0.000000	5.035800	0.350980	-1.052940	-0.003845	0.980955	-0.030151	-1.000000	-1.000000	-1.000000	-1.000000	-1.000000	-1.000000	-1.000000	146.827586	0.000000	-1.000000	-1.000000	487138.000000	1772311633.712401
-20405.745000	-26329.095000	-26902.350000	-14499.630000	0.000000	0.000000	0.000000	0.000000	-3.215283	-25.163961	-3.771982	-7.609687	0.000000	0.000000	-0.000000	-0.000000	5.035800	0.350980	-1.052940	-0.003845	0.980955	-0.030151	-1.000000	-1.000000	-1.000000	-1.000000	-1.000000	-1.000000	-1.000000	146.827586	0.000000	-1.000000	-1.000000	487139.000000	1772311633.716516
-20407.905000	-26330.715000	-26899.785000	-14494.815000	0.000000	0.000000	0.000000	0.000000	1.944197	-12.282297	2.944535	-1.886962	0.000000	0.000000	-0.000000	-0.000000	5.035800	0.350980	-1.052940	-0.003845	0.980955	-0.030151	-1.000000	-1.000000	-1.000000	-1.000000	-1.000000	-1.000000	-1.000000	146.827586	0.000000	-1.000000	-1.000000	487140.000000	1772311633.716552
-20423.880000	-26309.700000	-26914.095000	-14497.065000	0.000000	0.000000	0.000000	0.000000	4.717164	4.831393	6.857794	2.721438	-0.000000	0.000000	-0.000000	-0.000000	5.035800	0.350980	-1.052940	-0.003845	0.980955	-0.030151	-1.000000	-1.000000	-1.000000	-1.000000	-1.000000	-1.000000	-1.000000	146.827586	0.000000	-1.000000	-1.000000	487141.000000	1772311633.720018
-20436.615000	-26272.530000	-26927.865000	-14505.390000	0.000000	0.000000	0.000000	0.000000	2.049887	20.777061	4.704298	4.224205	-0.000000	0.000000	-0.000000	-0.000000	5.035800	0.350980	-1.052940	-0.003845	0.980955	-0.030151	-1.000000	-1.000000	-1.000000	-1.000000	-1.000000	-1.000000	-1.000000	146.827586	0.000000	-1.000000	-1.000000	487142.000000	1772311633.720028
-20406.060000	-26233.740000	-26901.315000	-14484.420000	0.000000	0.000000	0.000000	0.000000	-3.673659	32.054052	-1.433309	3.673293	-0.000000	0.000000	-0.000000	-0.000000	4.333840	0.335720	-0.625660	-0.004578	0.982786	-0.032288	-1.000000	-1.000000	-1.000000	-1.000000	-1.000000	-1.000000	-1.000000	146.827586	0.000000	-1.000000	-1.000000	487143.000000	1772311633.724810
-20391.795000	-26247.870000	-26888.445000	-14476.995000	0.000000	0.000000	0.000000	0.000000	-6.292196	35.001743	-5.522909	3.371824	-0.000000	0.000000	-0.000000	-0.000000	4.333840	0.335720	-0.625660	-0.004578	0.982786	-0.032288	-1.000000	-1.000000	-1.000000	-1.000000	-1.000000	-1.000000	-1.000000	146.827586	0.000000	-1.000000	-1.000000	487144.000000	1772311633.724822
-20422.665000	-26270.730000	-26916.480000	-14502.465000	0.000000	0.000000	0.000000	0.000000	-3.231870	25.345090	-4.309981	3.891238	-0.000000	0.000000	-0.000000	-0.000000	4.333840	0.335720	-0.625660	-0.004578	0.982786	-0.032288	-1.000000	-1.000000	-1.000000	-1.000000	-1.000000	-1.000000	-1.000000	146.827586	0.000000	-1.000000	-1.000000	487145.000000	1772311633.728563
-20446.200000	-26241.030000	-26935.020000	-14515.740000	0.000000	0.000000	0.000000	0.000000	0.533239	4.081312	-1.500753	2.545938	-0.000000	0.000000	-0.000000	-0.000000	4.333840	0.335720	-0.625660	-0.004578	0.982786	-0.032288	-1.000000	-1.000000	-1.000000	-1.000000	-1.000000	-1.000000	-1.000000	146.827586	0.000000	-1.000000	-1.000000	487146.000000	1772311633.728567
-20431.800000	-26219.295000	-26920.080000	-14501.610000	0.000000	0.000000	0.000000	0.000000	0.051279	-18.157870	-1.354160	-1.802652	-0.000000	0.000000	-0.000000	-0.000000	4.333840	0.335720	-0.625660	-0.004578	0.982786	-0.032288	-1.000000	-1.000000	-1.000000	-1.000000	-1.000000	-1.000000	-1.000000	146.827586	0.000000	-1.000000	-1.000000	487147.000000	1772311633.732548
-20457.225000	-26221.635000	-26945.595000	-14523.615000	0.000000	0.000000	0.000000	0.000000	-2.965746	-29.472255	-2.831594	-5.978014	-0.000000	0.000000	-0.000000	-0.000000	4.333840	0.335720	-0.625660	-0.004578	0.982786	-0.032288	-1.000000	-1.000000	-1.000000	-1.000000	-1.000000	-1.000000	-1.000000	146.827586	0.000000	-1.000000	-1.000000	487148.000000	1772311633.732554
-20452.860000	-26205.345000	-26943.030000	-14522.490000	0.000000	0.000000	0.000000	0.000000	-4.454465	-27.212064	-3.249741	-7.049790	-0.000000	0.000000	-0.000000	-0.000000	4.333840	0.335720	-0.625660	-0.004578	0.982786	-0.032288	-1.000000	-1.000000	-1.000000	-1.000000	-1.000000	-1.000000	-1.000000	146.827586	0.000000	-1.000000	-1.000000	487149.000000	1772311633.736808
-20430.900000	-26217.405000	-26921.970000	-14499.900000	0.000000	0.000000	0.000000	0.000000	-2.274251	-16.949235	-1.268967	-4.472057	-0.000000	0.000000	-0.000000	-0.000000	4.333840	0.335720	-0.625660	-0.004578	0.982786	-0.032288	-1.000000	-1.000000	-1.000000	-1.000000	-1.000000	-1.000000	-1.000000	146.827586	0.000000	-1.000000	-1.000000	487150.000000	1772311633.736824
-20416.455000	-26271.900000	-26907.525000	-14486.985000	0.000000	0.000000	0.000000	0.000000	3.960820	-7.010169	3.807580	1.551558	-0.000000	0.000000	-0.000000	-0.000000	4.333840	0.335720	-0.625660	-0.004578	0.982786	-0.032288	-1.000000	-1.000000	-1.000000	-1.000000	-1.000000	-1.000000	-1.000000	146.827586	0.000000	-1.000000	-1.000000	487151.000000	1772311633.740516
-20408.310000	-26316.855000	-26898.345000	-14479.425000	0.000000	0.000000	0.000000	0.000000	11.686470	-4.222235	10.399678	8.899106	-0.000000	0.000000	-0.000000	-0.000000	4.333840	0.335720	-0.625660	-0.004578	0.982786	-0.032288	-1.000000	-1.000000	-1.000000	-1.000000	-1.000000	-1.000000	-1.000000	146.827586	0.000000	-1.000000	-1.000000	487152.000000	1772311633.740520
-20410.065000	-26361.180000	-26902.665000	-14482.800000	0.000000	0.000000	0.000000	0.000000	15.760749	-8.797319	14.126431	13.086862	-0.000000	0.000000	-0.000000	-0.000000	3.662400	0.305200	-0.701960	-0.005005	0.982664	-0.033569	-1.000000	-1.000000	-1.000000	-1.000000	-1.000000	-1.000000	-1.000000	146.827586	0.000000	-1.000000	-1.000000	487153.000000	1772311633.745589
-20432.970000	-26375.445000	-26922.915000	-14501.565000	0.000000	0.000000	0.000000	0.000000	12.138532	-13.557557	10.992633	10.406337	-0.000000	0.000000	-0.000000	-0.000000	3.662400	0.305200	-0.701960	-0.005005	0.982664	-0.033569	-1.000000	-1.000000	-1.000000	-1.000000	-1.000000	-1.000000	-1.000000	146.827586	0.000000	-1.000000	-1.000000	487154.000000	1772311633.745599
-20428.380000	-26392.320000	-26918.820000	-14498.820000	0.000000	0.000000	0.000000	0.000000	1.291744	-10.298267	1.109928	1.232112	-0.000000	0.000000	-0.000000	-0.000000	3.662400	0.305200	-0.701960	-0.005005	0.982664	-0.033569	-1.000000	-1.000000	-1.000000	-1.000000	-1.000000	-1.000000	-1.000000	146.827586	0.000000	-1.000000	-1.000000	487155.000000	1772311633.748618
-20409.570000	-26407.125000	-26897.175000	-14476.770000	0.000000	0.000000	0.000000	0.000000	-10.625678	2.834532	-9.777702	-8.879312	-0.000000	0.000000	-0.000000	-0.000000	3.662400	0.305200	-0.701960	-0.005005	0.982664	-0.033569	-1.000000	-1.000000	-1.000000	-1.000000	-1.000000	-1.000000	-1.000000	146.827586	0.000000	-1.000000	-1.000000	487156.000000	1772311633.748621
-20409.030000	-26405.505000	-26896.140000	-14475.240000	0.000000	0.000000	0.000000	0.000000	-16.003952	20.079844	-14.422803	-13.052427	-0.000000	0.000000	-0.000000	-0.000000	3.662400	0.305200	-0.701960	-0.005005	0.982664	-0.033569	-1.000000	-1.000000	-1.000000	-1.000000	-1.000000	-1.000000	-1.000000	146.827586	0.000000	-1.000000	-1.000000	487157.000000	1772311633.752483
-20404.125000	-26384.220000	-26892.270000	-14473.350000	0.000000	0.000000	0.000000	0.000000	-12.701923	33.698643	-10.972930	-9.604853	-0.000000	0.000000	-0.000000	-0.000000	3.662400	0.305200	-0.701960	-0.005005	0.982664	-0.033569	-1.000000	-1.000000	-1.000000	-1.000000	-1.000000	-1.000000	-1.000000	146.827586	0.000000	-1.000000	-1.000000	487158.000000	1772311633.752489
-20421.630000	-26355.555000	-26910.180000	-14491.755000	0.000000	0.000000	0.000000	0.000000	-5.111924	39.326341	-3.969105	-3.062032	-0.000000	0.000000	-0.000000	-0.000000	3.662400	0.305200	-0.701960	-0.005005	0.982664	-0.033569	-1.000000	-1.000000	-1.000000	-1.000000	-1.000000	-1.000000	-1.000000	146.827586	0.000000	-1.000000	-1.000000	487159.000000	1772311633.756590
-20439.225000	-26302.770000	-26931.465000	-14510.295000	0.000000	0.000000	0.000000	0.000000	0.528000	36.721797	0.503362	0.752106	-0.000000	0.000000	-0.000000	-0.000000	3.662400	0.305200	-0.701960	-0.005005	0.982664	-0.033569	-1.000000	-1.000000	-1.000000	-1.000000	-1.000000	-1.000000	-1.000000	146.827586	0.000000	-1.000000	-1.000000	487160.000000	1772311633.756616
-20426.265000	-26293.095000	-26919.720000	-14499.900000	0.000000	0.000000	0.000000	0.000000	1.526525	27.423274	0.196812	0.029789	-0.000000	0.000000	-0.000000	-0.000000	3.662400	0.305200	-0.701960	-0.005005	0.982664	-0.033569	-1.000000	-1.000000	-1.000000	-1.000000	-1.000000	-1.000000	-1.000000	146.827586	0.000000	-1.000000	-1.000000	487161.000000	1772311633.760805
-20424.870000	-26287.965000	-26917.650000	-14498.460000	0.000000	0.000000	0.000000	0.000000	0.570109	12.034551	-1.585703	-1.806438	-0.000000	0.000000	-0.000000	-0.000000	3.662400	0.305200	-0.701960	-0.005005	0.982664	-0.033569	-1.000000	-1.000000	-1.000000	-1.000000	-1.000000	-1.000000	-1.000000	146.827586	0.000000	-1.000000	-1.000000	487162.000000	1772311633.760810
-20435.265000	-26277.840000	-26923.995000	-14502.645000	0.000000	0.000000	0.000000	0.000000	1.117062	-8.271848	-0.783616	-0.916993	-0.000000	0.000000	-0.000000	-0.000000	3.311420	0.442540	-0.732480	-0.004944	0.982664	-0.034119	-1.000000	-1.000000	-1.000000	-1.000000	-1.000000	-1.000000	-1.000000	146.827586	0.000000	-1.000000	-1.000000	487163.000000	1772311633.764802
-20442.465000	-26261.055000	-26929.665000	-14508.630000	0.000000	0.000000	0.000000	0.000000	2.898525	-28.120368	2.443340	2.426023	-0.000000	0.000000	-0.000000	-0.000000	3.311420	0.442540	-0.732480	-0.004944	0.982664	-0.034119	-1.000000	-1.000000	-1.000000	-1.000000	-1.000000	-1.000000	-1.000000	146.827586	0.000000	-1.000000	-1.000000	487164.000000	1772311633.764807
-20430.315000	-26239.770000	-26923.590000	-14504.400000	0.000000	0.000000	0.000000	0.000000	4.076772	-39.660436	5.399849	5.460398	-0.000000	0.000000	-0.000000	-0.000000	3.311420	0.442540	-0.732480	-0.004944	0.982664	-0.034119	-1.000000	-1.000000	-1.000000	-1.000000	-1.000000	-1.000000	-1.000000	146.827586	0.000000	-1.000000	-1.000000	487165.000000	1772311633.768969
-20419.335000	-26222.490000	-26914.140000	-14497.695000	0.000000	0.000000	0.000000	0.000000	4.692655	-38.304893	6.747006	6.636946	-0.000000	0.000000	-0.000000	-0.000000	3.311420	0.442540	-0.732480	-0.004944	0.982664	-0.034119	-1.000000	-1.000000	-1.000000	-1.000000	-1.000000	-1.000000	-1.000000	146.827586	0.000000	-1.000000	-1.000000	487166.000000	1772311633.768973
-20431.755000	-26198.190000	-26919.990000	-14503.680000	0.000000	0.000000	0.000000	0.000000	5.272219	-25.775211	6.644353	6.070514	-0.000000	0.000000	-0.000000	-0.000000	3.311420	0.442540	-0.732480	-0.004944	0.982664	-0.034119	-1.000000	-1.000000	-1.000000	-1.000000	-1.000000	-1.000000	-1.000000	146.827586	0.000000	-1.000000	-1.000000	487167.000000	1772311633.772603
-20442.420000	-26155.215000	-26928.810000	-14508.765000	0.000000	0.000000	0.000000	0.000000	4.390073	-7.911184	4.792232	3.896217	-0.000000	0.000000	-0.000000	-0.000000	3.311420	0.442540	-0.732480	-0.004944	0.982664	-0.034119	-1.000000	-1.000000	-1.000000	-1.000000	-1.000000	-1.000000	-1.000000	146.827586	0.000000	-1.000000	-1.000000	487168.000000	1772311633.772607
-20440.395000	-26141.040000	-26931.645000	-14507.820000	0.000000	0.000000	0.000000	0.000000	0.784463	8.853923	0.830776	0.364558	-0.000000	0.000000	-0.000000	-0.000000	3.311420	0.442540	-0.732480	-0.004944	0.982664	-0.034119	-1.000000	-1.000000	-1.000000	-1.000000	-1.000000	-1.000000	-1.000000	146.827586	0.000000	-1.000000	-1.000000	487169.000000	1772311633.776754
-20436.615000	-26139.240000	-26930.115000	-14508.405000	0.000000	0.000000	0.000000	0.000000	-3.696888	18.518676	-3.824683	-3.147330	-0.000000	0.000000	-0.000000	-0.000000	3.311420	0.442540	-0.732480	-0.004944	0.982664	-0.034119	-1.000000	-1.000000	-1.000000	-1.000000	-1.000000	-1.000000	-1.000000	146.827586	0.000000	-1.000000	-1.000000	487170.000000	1772311633.776757
-20424.195000	-26159.580000	-26916.975000	-14497.290000	0.000000	0.000000	0.000000	0.000000	-5.651275	16.949783	-6.350376	-4.774358	-0.000000	0.000000	-0.000000	-0.000000	3.311420	0.442540	-0.732480	-0.004944	0.982664	-0.034119	-1.000000	-1.000000	-1.000000	-1.000000	-1.000000	-1.000000	-1.000000	146.827586	0.000000	-1.000000	-1.000000	487171.000000	1772311633.780731
-20429.505000	-26168.715000	-26917.920000	-14498.415000	0.000000	0.000000	0.000000	0.000000	-3.779839	5.143401	-5.026838	-3.684856	-0.000000	0.000000	-0.000000	-0.000000	3.311420	0.442540	-0.732480	-0.004944	0.982664	-0.034119	-1.000000	-1.000000	-1.000000	-1.000000	-1.000000	-1.000000	-1.000000	146.827586	0.000000	-1.000000	-1.000000	487172.000000	1772311633.780734
-20426.715000	-26171.730000	-26917.245000	-14503.635000	0.000000	0.000000	0.000000	0.000000	-0.110548	-9.809349	-1.147981	-1.095023	-0.000000	0.000000	-0.000000	-0.000000	3.647140	0.457800	-0.686700	-0.005371	0.982175	-0.033203	-1.000000	-1.000000	-1.000000	-1.000000	-1.000000	-1.000000	-1.000000	146.827586	0.000000	-1.000000	-1.000000	487173.000000	1772311633.784825
-20423.790000	-26163.090000	-26915.445000	-14500.530000	0.000000	0.000000	0.000000	0.000000	2.426600	-18.631036	2.228464	0.727494	-0.000000	0.000000	-0.000000	-0.000000	3.647140	0.457800	-0.686700	-0.005371	0.982175	-0.033203	-1.000000	-1.000000	-1.000000	-1.000000	-1.000000	-1.000000	-1.000000	146.827586	0.000000	-1.000000	-1.000000	487174.000000	1772311633.784829
-20448.090000	-26133.570000	-26941.590000	-14518.260000	0.000000	0.000000	0.000000	0.000000	2.259036	-15.650218	2.722198	0.539300	-0.000000	0.000000	-0.000000	-0.000000	3.647140	0.457800	-0.686700	-0.005371	0.982175	-0.033203	-1.000000	-1.000000	-1.000000	-1.000000	-1.000000	-1.000000	-1.000000	146.827586	0.000000	-1.000000	-1.000000	487175.000000	1772311633.788619
-20433.690000	-26117.100000	-26927.190000	-14505.300000	0.000000	0.000000	0.000000	0.000000	-0.485966	-2.045140	0.004270	-1.173806	-0.000000	0.000000	-0.000000	-0.000000	3.647140	0.457800	-0.686700	-0.005371	0.982175	-0.033203	-1.000000	-1.000000	-1.000000	-1.000000	-1.000000	-1.000000	-1.000000	146.827586	0.000000	-1.000000	-1.000000	487176.000000	1772311633.788621
-20405.025000	-26117.415000	-26894.385000	-14475.105000	0.000000	0.000000	0.000000	0.000000	-2.905809	14.395714	-2.705654	-1.895169	-0.000000	0.000000	-0.000000	-0.000000	3.647140	0.457800	-0.686700	-0.005371	0.982175	-0.033203	-1.000000	-1.000000	-1.000000	-1.000000	-1.000000	-1.000000	-1.000000	146.827586	0.000000	-1.000000	-1.000000	487177.000000	1772311633.792788
-20399.040000	-26128.530000	-26884.215000	-14462.100000	0.000000	0.000000	0.000000	0.000000	-1.298291	23.556976	-1.024816	1.087280	-0.000000	0.000000	-0.000000	-0.000000	3.647140	0.457800	-0.686700	-0.005371	0.982175	-0.033203	-1.000000	-1.000000	-1.000000	-1.000000	-1.000000	-1.000000	-1.000000	146.827586	0.000000	-1.000000	-1.000000	487178.000000	1772311633.792790
-20457.135000	-26150.445000	-26942.355000	-14502.555000	0.000000	0.000000	0.000000	0.000000	2.463790	19.752894	3.373647	5.672142	-0.000000	0.000000	-0.000000	-0.000000	3.647140	0.457800	-0.686700	-0.005371	0.982175	-0.033203	-1.000000	-1.000000	-1.000000	-1.000000	-1.000000	-1.000000	-1.000000	146.827586	0.000000	-1.000000	-1.000000	487179.000000	1772311633.796702
-20432.025000	-26137.935000	-26917.920000	-14476.545000	0.000000	0.000000	0.000000	0.000000	2.282826	5.884726	3.729258	6.100017	-0.000000	0.000000	-0.000000	-0.000000	3.647140	0.457800	-0.686700	-0.005371	0.982175	-0.033203	-1.000000	-1.000000	-1.000000	-1.000000	-1.000000	-1.000000	-1.000000	146.827586	0.000000	-1.000000	-1.000000	487180.000000	1772311633.796705
-20412.495000	-26142.345000	-26905.770000	-14503.140000	0.000000	0.000000	0.000000	0.000000	-1.867440	-8.629678	-0.890635	0.910853	-0.000000	0.000000	-0.000000	-0.000000	3.647140	0.457800	-0.686700	-0.005371	0.982175	-0.033203	-1.000000	-1.000000	-1.000000	-1.000000	-1.000000	-1.000000	-1.000000	146.827586	0.000000	-1.000000	-1.000000	487181.000000	1772311633.800647
-20442.240000	-26146.080000	-26937.855000	-14533.470000	0.000000	0.000000	0.000000	0.000000	-4.289046	-15.569035	-5.020301	-6.619195	-0.000000	0.000000	-0.000000	-0.000000	3.647140	0.457800	-0.686700	-0.005371	0.982175	-0.033203	-1.000000	-1.000000	-1.000000	-1.000000	-1.000000	-1.000000	-1.000000	146.827586	0.000000	-1.000000	-1.000000	487182.000000	1772311633.800651
-20440.035000	-26155.845000	-26932.590000	-14517.405000	0.000000	0.000000	0.000000	0.000000	-3.450644	-13.633735	-6.143871	-12.737334	-0.000000	0.000000	-0.000000	-0.000000	2.960440	0.228900	-1.129240	-0.005066	0.981992	-0.034180	-1.000000	-1.000000	-1.000000	-1.000000	-1.000000	-1.000000	-1.000000	146.827586	0.000000	-1.000000	-1.000000	487183.000000	1772311633.804814
-20427.975000	-26170.920000	-26922.240000	-14506.875000	0.000000	0.000000	0.000000	0.000000	-1.474034	-6.944044	-4.816999	-13.052927	-0.000000	0.000000	-0.000000	-0.000000	2.960440	0.228900	-1.129240	-0.005066	0.981992	-0.034180	-1.000000	-1.000000	-1.000000	-1.000000	-1.000000	-1.000000	-1.000000	146.827586	0.000000	-1.000000	-1.000000	487184.000000	1772311633.804817
-20424.825000	-26176.725000	-26917.605000	-14503.050000	0.000000	0.000000	0.000000	0.000000	1.164059	-0.356759	-0.932422	-5.318515	-0.000000	0.000000	-0.000000	-0.000000	2.960440	0.228900	-1.129240	-0.005066	0.981992	-0.034180	-1.000000	-1.000000	-1.000000	-1.000000	-1.000000	-1.000000	-1.000000	146.827586	0.000000	-1.000000	-1.000000	487185.000000	1772311633.808737
-20429.595000	-26150.040000	-26923.455000	-14508.135000	0.000000	0.000000	0.000000	0.000000	4.109850	4.381182	4.310851	6.374091	-0.000000	0.000000	-0.000000	-0.000000	2.960440	0.228900	-1.129240	-0.005066	0.981992	-0.034180	-1.000000	-1.000000	-1.000000	-1.000000	-1.000000	-1.000000	-1.000000	146.827586	0.000000	-1.000000	-1.000000	487186.000000	1772311633.808739
-20423.565000	-26139.195000	-26915.220000	-14501.520000	0.000000	0.000000	0.000000	0.000000	5.629167	8.704701	7.871707	14.813222	-0.000000	0.000000	-0.000000	-0.000000	2.960440	0.228900	-1.129240	-0.005066	0.981992	-0.034180	-1.000000	-1.000000	-1.000000	-1.000000	-1.000000	-1.000000	-1.000000	146.827586	0.000000	-1.000000	-1.000000	487187.000000	1772311633.812794
-20429.280000	-26155.665000	-26917.470000	-14503.725000	0.000000	0.000000	0.000000	0.000000	4.644343	12.546915	7.891539	15.914265	-0.000000	0.000000	-0.000000	-0.000000	2.960440	0.228900	-1.129240	-0.005066	0.981992	-0.034180	-1.000000	-1.000000	-1.000000	-1.000000	-1.000000	-1.000000	-1.000000	146.758621	0.000000	-1.000000	-1.000000	487188.000000	1772311633.812797
-20443.455000	-26153.730000	-26930.565000	-14513.670000	0.000000	0.000000	0.000000	0.000000	1.423070	12.521851	4.594252	10.292704	-0.000000	0.000000	-0.000000	-0.000000	2.960440	0.228900	-1.129240	-0.005066	0.981992	-0.034180	-1.000000	-1.000000	-1.000000	-1.000000	-1.000000	-1.000000	-1.000000	146.758621	0.000000	-1.000000	-1.000000	487189.000000	1772311633.816548
-20436.390000	-26140.455000	-26926.650000	-14506.020000	0.000000	0.000000	0.000000	0.000000	-2.836872	7.168947	-0.655571	1.377520	-0.000000	0.000000	-0.000000	-0.000000	2.960440	0.228900	-1.129240	-0.005066	0.981992	-0.034180	-1.000000	-1.000000	-1.000000	-1.000000	-1.000000	-1.000000	-1.000000	146.758621	0.000000	-1.000000	-1.000000	487190.000000	1772311633.816551
-20418.615000	-26117.865000	-26910.315000	-14493.195000	0.000000	0.000000	0.000000	0.000000	-5.445695	0.156327	-5.045101	-6.083376	-0.000000	0.000000	-0.000000	-0.000000	2.960440	0.228900	-1.129240	-0.005066	0.981992	-0.034180	-1.000000	-1.000000	-1.000000	-1.000000	-1.000000	-1.000000	-1.000000	146.758621	0.000000	-1.000000	-1.000000	487191.000000	1772311633.820865
-20417.805000	-26110.665000	-26907.705000	-14492.115000	0.000000	0.000000	0.000000	0.000000	-3.949131	-3.911243	-5.584641	-8.505224	-0.000000	0.000000	-0.000000	-0.000000	2.960440	0.228900	-1.129240	-0.005066	0.981992	-0.034180	-1.000000	-1.000000	-1.000000	-1.000000	-1.000000	-1.000000	-1.000000	146.758621	0.000000	-1.000000	-1.000000	487192.000000	1772311633.820867
-20443.770000	-26092.395000	-26936.910000	-14519.475000	0.000000	0.000000	0.000000	0.000000	0.038445	-4.091687	-2.952313	-6.754027	-0.000000	0.000000	-0.000000	-0.000000	2.792580	0.198380	-0.793520	-0.005432	0.981870	-0.034119	-1.000000	-1.000000	-1.000000	-1.000000	-1.000000	-1.000000	-1.000000	146.758621	0.000000	-1.000000	-1.000000	487193.000000	1772311633.828169
-20436.480000	-26089.425000	-26930.295000	-14510.700000	0.000000	0.000000	0.000000	0.000000	2.068719	-2.618602	-1.082232	-4.735680	-0.000000	0.000000	-0.000000	-0.000000	2.792580	0.198380	-0.793520	-0.005432	0.981870	-0.034119	-1.000000	-1.000000	-1.000000	-1.000000	-1.000000	-1.000000	-1.000000	146.758621	0.000000	-1.000000	-1.000000	487194.000000	1772311633.828173
-20425.185000	-26101.305000	-26919.000000	-14499.765000	0.000000	0.000000	0.000000	0.000000	0.991424	-2.414140	-1.295639	-3.743988	-0.000000	0.000000	-0.000000	-0.000000	2.792580	0.198380	-0.793520	-0.005432	0.981870	-0.034119	-1.000000	-1.000000	-1.000000	-1.000000	-1.000000	-1.000000	-1.000000	146.758621	0.000000	-1.000000	-1.000000	487195.000000	1772311633.828729
-20396.160000	-26109.135000	-26884.170000	-14468.490000	0.000000	0.000000	0.000000	0.000000	0.260364	-5.216332	-0.467777	-1.261509	-0.000000	0.000000	-0.000000	-0.000000	2.792580	0.198380	-0.793520	-0.005432	0.981870	-0.034119	-1.000000	-1.000000	-1.000000	-1.000000	-1.000000	-1.000000	-1.000000	146.758621	0.000000	-1.000000	-1.000000	487196.000000	1772311633.828732
-20396.295000	-26130.555000	-26882.505000	-14467.455000	0.000000	0.000000	0.000000	0.000000	2.535538	-10.117242	3.748444	4.128396	-0.000000	0.000000	-0.000000	-0.000000	2.792580	0.198380	-0.793520	-0.005432	0.981870	-0.034119	-1.000000	-1.000000	-1.000000	-1.000000	-1.000000	-1.000000	-1.000000	146.758621	0.000000	-1.000000	-1.000000	487197.000000	1772311633.832870
-20456.820000	-26158.860000	-26947.395000	-14526.180000	0.000000	0.000000	0.000000	0.000000	4.670349	-14.399179	7.460572	8.290842	-0.000000	0.000000	-0.000000	-0.000000	2.792580	0.198380	-0.793520	-0.005432	0.981870	-0.034119	-1.000000	-1.000000	-1.000000	-1.000000	-1.000000	-1.000000	-1.000000	146.758621	0.000000	-1.000000	-1.000000	487198.000000	1772311633.832874
-20439.495000	-26183.430000	-26928.630000	-14510.430000	0.000000	0.000000	0.000000	0.000000	1.122836	-15.695321	4.117192	5.195037	-0.000000	0.000000	-0.000000	-0.000000	2.792580	0.198380	-0.793520	-0.005432	0.981870	-0.034119	-1.000000	-1.000000	-1.000000	-1.000000	-1.000000	-1.000000	-1.000000	146.758621	0.000000	-1.000000	-1.000000	487199.000000	1772311633.836743
-20433.825000	-26193.690000	-26912.700000	-14498.595000	0.000000	0.000000	0.000000	0.000000	-6.510619	-12.502162	-4.641749	-3.403268	-0.000000	0.000000	-0.000000	-0.000000	2.792580	0.198380	-0.793520	-0.005432	0.981870	-0.034119	-1.000000	-1.000000	-1.000000	-1.000000	-1.000000	-1.000000	-1.000000	146.758621	0.000000	-1.000000	-1.000000	487200.000000	1772311633.836747
-20425.095000	-26180.055000	-26909.010000	-14494.365000	0.000000	0.000000	0.000000	0.000000	-10.324972	-3.939314	-9.756323	-8.884998	-0.000000	0.000000	-0.000000	-0.000000	2.792580	0.198380	-0.793520	-0.005432	0.981870	-0.034119	-1.000000	-1.000000	-1.000000	-1.000000	-1.000000	-1.000000	-1.000000	146.758621	0.000000	-1.000000	-1.000000	487201.000000	1772311633.840773
-20411.415000	-26167.500000	-26897.490000	-14476.815000	0.000000	0.000000	0.000000	0.000000	-6.241587	9.232818	-6.657922	-6.487448	-0.000000	0.000000	-0.000000	-0.000000	2.792580	0.198380	-0.793520	-0.005432	0.981870	-0.034119	-1.000000	-1.000000	-1.000000	-1.000000	-1.000000	-1.000000	-1.000000	146.758621	0.000000	-1.000000	-1.000000	487202.000000	1772311633.840776
-20418.345000	-26181.675000	-26904.465000	-14487.570000	0.000000	0.000000	0.000000	0.000000	2.561163	22.554475	1.107385	1.006254	-0.000000	0.000000	-0.000000	-0.000000	3.479280	0.061040	-0.839300	-0.005493	0.981931	-0.034058	-1.000000	-1.000000	-1.000000	-1.000000	-1.000000	-1.000000	-1.000000	146.758621	0.000000	-1.000000	-1.000000	487203.000000	1772311633.845010
-20450.295000	-26185.005000	-26931.915000	-14508.945000	0.000000	0.000000	0.000000	0.000000	9.000847	28.872019	6.671091	6.894925	-0.000000	0.000000	-0.000000	-0.000000	3.479280	0.061040	-0.839300	-0.005493	0.981931	-0.034058	-1.000000	-1.000000	-1.000000	-1.000000	-1.000000	-1.000000	-1.000000	146.758621	0.000000	-1.000000	-1.000000	487204.000000	1772311633.845013
-20433.645000	-26216.955000	-26913.195000	-14485.635000	0.000000	0.000000	0.000000	0.000000	8.100231	23.675656	5.858079	6.674728	-0.000000	0.000000	-0.000000	-0.000000	3.479280	0.061040	-0.839300	-0.005493	0.981931	-0.034058	-1.000000	-1.000000	-1.000000	-1.000000	-1.000000	-1.000000	-1.000000	146.758621	0.000000	-1.000000	-1.000000	487205.000000	1772311633.848921
-20435.130000	-26250.660000	-26909.640000	-14473.350000	0.000000	0.000000	0.000000	0.000000	2.077197	8.407344	1.135824	2.645397	-0.000000	0.000000	-0.000000	-0.000000	3.479280	0.061040	-0.839300	-0.005493	0.981931	-0.034058	-1.000000	-1.000000	-1.000000	-1.000000	-1.000000	-1.000000	-1.000000	146.758621	0.000000	-1.000000	-1.000000	487206.000000	1772311633.848924
-20436.075000	-26279.955000	-26909.820000	-14470.335000	0.000000	0.000000	0.000000	0.000000	-3.036696	-10.554015	-2.150496	-0.067805	-0.000000	0.000000	-0.000000	-0.000000	3.479280	0.061040	-0.839300	-0.005493	0.981931	-0.034058	-1.000000	-1.000000	-1.000000	-1.000000	-1.000000	-1.000000	-1.000000	146.758621	0.000000	-1.000000	-1.000000	487207.000000	1772311633.852754
-20428.020000	-26318.340000	-26912.790000	-14486.040000	0.000000	0.000000	0.000000	0.000000	-4.104061	-24.986280	-2.185739	-0.471247	-0.000000	0.000000	-0.000000	-0.000000	3.479280	0.061040	-0.839300	-0.005493	0.981931	-0.034058	-1.000000	-1.000000	-1.000000	-1.000000	-1.000000	-1.000000	-1.000000	146.758621	0.000000	-1.000000	-1.000000	487208.000000	1772311633.852757
-20417.355000	-26315.595000	-26914.905000	-14516.955000	0.000000	0.000000	0.000000	0.000000	-1.586747	-28.612047	-0.736550	-1.748046	-0.000000	0.000000	-0.000000	-0.000000	3.479280	0.061040	-0.839300	-0.005493	0.981931	-0.034058	-1.000000	-1.000000	-1.000000	-1.000000	-1.000000	-1.000000	-1.000000	146.758621	0.000000	-1.000000	-1.000000	487209.000000	1772311633.856935
-20413.305000	-26304.345000	-26904.780000	-14500.710000	0.000000	0.000000	0.000000	0.000000	2.436773	-19.147459	0.431880	-5.604396	-0.000000	0.000000	-0.000000	-0.000000	3.479280	0.061040	-0.839300	-0.005493	0.981931	-0.034058	-1.000000	-1.000000	-1.000000	-1.000000	-1.000000	-1.000000	-1.000000	146.758621	0.000000	-1.000000	-1.000000	487210.000000	1772311633.856940
-20400.930000	-26302.455000	-26888.940000	-14478.390000	0.000000	0.000000	0.000000	0.000000	5.437966	0.199018	1.402468	-8.290331	-0.000000	0.000000	-0.000000	-0.000000	3.479280	0.061040	-0.839300	-0.005493	0.981931	-0.034058	-1.000000	-1.000000	-1.000000	-1.000000	-1.000000	-1.000000	-1.000000	146.758621	0.000000	-1.000000	-1.000000	487211.000000	1772311633.860881
-20398.770000	-26286.480000	-26883.000000	-14472.765000	0.000000	0.000000	0.000000	0.000000	5.779193	20.651588	2.904998	-4.929861	-0.000000	0.000000	-0.000000	-0.000000	3.479280	0.061040	-0.839300	-0.005493	0.981931	-0.034058	-1.000000	-1.000000	-1.000000	-1.000000	-1.000000	-1.000000	-1.000000	146.758621	0.000000	-1.000000	-1.000000	487212.000000	1772311633.860885
-20398.680000	-26259.570000	-26882.370000	-14480.820000	0.000000	0.000000	0.000000	0.000000	3.230263	33.141254	4.173806	3.117900	-0.000000	0.000000	-0.000000	-0.000000	3.296160	0.167860	-0.534100	-0.005493	0.981321	-0.034790	-1.000000	-1.000000	-1.000000	-1.000000	-1.000000	-1.000000	-1.000000	146.758621	0.000000	-1.000000	-1.000000	487213.000000	1772311633.864896
-20437.560000	-26238.150000	-26917.245000	-14505.390000	0.000000	0.000000	0.000000	0.000000	-1.994495	33.829837	2.777309	8.925127	-0.000000	0.000000	-0.000000	-0.000000	3.296160	0.167860	-0.534100	-0.005493	0.981321	-0.034790	-1.000000	-1.000000	-1.000000	-1.000000	-1.000000	-1.000000	-1.000000	146.758621	0.000000	-1.000000	-1.000000	487214.000000	1772311633.864901
-20436.570000	-26225.055000	-26917.335000	-14489.100000	0.000000	0.000000	0.000000	0.000000	-9.092840	24.006481	-2.774288	7.751537	-0.000000	0.000000	-0.000000	-0.000000	3.296160	0.167860	-0.534100	-0.005493	0.981321	-0.034790	-1.000000	-1.000000	-1.000000	-1.000000	-1.000000	-1.000000	-1.000000	146.758621	0.000000	-1.000000	-1.000000	487215.000000	1772311633.868992
-20429.055000	-26247.555000	-26907.120000	-14471.910000	0.000000	0.000000	0.000000	0.000000	-14.429179	7.007487	-9.453887	2.297695	-0.000000	0.000000	-0.000000	-0.000000	3.296160	0.167860	-0.534100	-0.005493	0.981321	-0.034790	-1.000000	-1.000000	-1.000000	-1.000000	-1.000000	-1.000000	-1.000000	146.758621	0.000000	-1.000000	-1.000000	487216.000000	1772311633.869001
-20401.020000	-26233.515000	-26881.425000	-14467.770000	0.000000	0.000000	0.000000	0.000000	-12.660966	-12.766097	-10.970276	-1.305552	-0.000000	0.000000	-0.000000	-0.000000	3.296160	0.167860	-0.534100	-0.005493	0.981321	-0.034790	-1.000000	-1.000000	-1.000000	-1.000000	-1.000000	-1.000000	-1.000000	146.758621	0.000000	-1.000000	-1.000000	487217.000000	1772311633.872966
-20430.675000	-26200.170000	-26910.630000	-14495.580000	0.000000	0.000000	0.000000	0.000000	-3.123852	-28.134174	-5.039234	-1.511276	-0.000000	0.000000	-0.000000	-0.000000	3.296160	0.167860	-0.534100	-0.005493	0.981321	-0.034790	-1.000000	-1.000000	-1.000000	-1.000000	-1.000000	-1.000000	-1.000000	146.758621	0.000000	-1.000000	-1.000000	487218.000000	1772311633.872972
-20463.390000	-26177.220000	-26943.570000	-14516.055000	0.000000	0.000000	0.000000	0.000000	6.960145	-31.515549	2.547389	-2.117542	-0.000000	0.000000	-0.000000	-0.000000	3.296160	0.167860	-0.534100	-0.005493	0.981321	-0.034790	-1.000000	-1.000000	-1.000000	-1.000000	-1.000000	-1.000000	-1.000000	146.758621	0.000000	-1.000000	-1.000000	487219.000000	1772311633.876952
-20437.920000	-26178.480000	-26924.355000	-14516.550000	0.000000	0.000000	0.000000	0.000000	10.118481	-22.300380	4.968425	-5.484718	-0.000000	0.000000	-0.000000	-0.000000	3.296160	0.167860	-0.534100	-0.005493	0.981321	-0.034790	-1.000000	-1.000000	-1.000000	-1.000000	-1.000000	-1.000000	-1.000000	146.758621	0.000000	-1.000000	-1.000000	487220.000000	1772311633.876956
-20402.055000	-26206.020000	-26898.255000	-14503.995000	0.000000	0.000000	0.000000	0.000000	8.136843	-8.806125	3.554974	-8.408590	0.000000	0.000000	-0.000000	-0.000000	3.296160	0.167860	-0.534100	-0.005493	0.981321	-0.034790	-1.000000	-1.000000	-1.000000	-1.000000	-1.000000	-1.000000	-1.000000	146.758621	0.000000	-1.000000	-1.000000	487221.000000	1772311633.882813
-20412.090000	-26228.610000	-26914.365000	-14512.320000	0.000000	0.000000	0.000000	0.000000	7.451581	-0.968566	3.816421	-6.454117	0.000000	0.000000	-0.000000	-0.000000	3.296160	0.167860	-0.534100	-0.005493	0.981321	-0.034790	-1.000000	-1.000000	-1.000000	-1.000000	-1.000000	-1.000000	-1.000000	146.758621	0.000000	-1.000000	-1.000000	487222.000000	1772311633.882818
-20443.050000	-26233.695000	-26934.120000	-14517.990000	0.000000	0.000000	0.000000	0.000000	7.927456	-1.570895	5.626625	-0.054994	0.000000	0.000000	-0.000000	-0.000000	2.502640	0.137340	-0.412020	-0.006104	0.981931	-0.036987	-1.000000	-1.000000	-1.000000	-1.000000	-1.000000	-1.000000	-1.000000	146.758621	0.000000	-1.000000	-1.000000	487223.000000	1772311633.887176
-20459.070000	-26222.130000	-26934.390000	-14508.945000	0.000000	0.000000	0.000000	0.000000	4.113187	-4.815453	4.717263	6.502781	0.000000	0.000000	-0.000000	-0.000000	2.502640	0.137340	-0.412020	-0.006104	0.981931	-0.036987	-1.000000	-1.000000	-1.000000	-1.000000	-1.000000	-1.000000	-1.000000	146.758621	0.000000	-1.000000	-1.000000	487224.000000	1772311633.887181
-20434.095000	-26203.230000	-26916.300000	-14489.505000	0.000000	0.000000	0.000000	0.000000	-4.334163	-3.008616	0.796368	10.424181	0.000000	0.000000	-0.000000	-0.000000	2.502640	0.137340	-0.412020	-0.006104	0.981931	-0.036987	-1.000000	-1.000000	-1.000000	-1.000000	-1.000000	-1.000000	-1.000000	146.758621	0.000000	-1.000000	-1.000000	487225.000000	1772311633.888993
-20420.595000	-26200.305000	-26910.945000	-14491.530000	0.000000	0.000000	0.000000	0.000000	-10.374763	5.812919	-2.003946	11.511526	0.000000	0.000000	-0.000000	-0.000000	2.502640	0.137340	-0.412020	-0.006104	0.981931	-0.036987	-1.000000	-1.000000	-1.000000	-1.000000	-1.000000	-1.000000	-1.000000	146.758621	0.000000	-1.000000	-1.000000	487226.000000	1772311633.888997
-20416.320000	-26258.445000	-26907.975000	-14493.330000	0.000000	0.000000	0.000000	0.000000	-8.489684	15.238855	-1.288632	9.500684	0.000000	0.000000	-0.000000	-0.000000	2.502640	0.137340	-0.412020	-0.006104	0.981931	-0.036987	-1.000000	-1.000000	-1.000000	-1.000000	-1.000000	-1.000000	-1.000000	146.758621	0.000000	-1.000000	-1.000000	487227.000000	1772311633.896779
-20421.315000	-26331.030000	-26909.865000	-14486.985000	0.000000	0.000000	0.000000	0.000000	-1.134298	14.979055	1.060647	4.164482	0.000000	0.000000	-0.000000	-0.000000	2.502640	0.137340	-0.412020	-0.006104	0.981931	-0.036987	-1.000000	-1.000000	-1.000000	-1.000000	-1.000000	-1.000000	-1.000000	146.758621	0.000000	-1.000000	-1.000000	487228.000000	1772311633.896783
-20424.240000	-26340.435000	-26903.835000	-14484.465000	0.000000	0.000000	0.000000	0.000000	4.961423	1.928130	2.052840	-2.659647	0.000000	0.000000	-0.000000	-0.000000	2.502640	0.137340	-0.412020	-0.006104	0.981931	-0.036987	-1.000000	-1.000000	-1.000000	-1.000000	-1.000000	-1.000000	-1.000000	146.758621	0.000000	-1.000000	-1.000000	487229.000000	1772311633.896787
-20422.035000	-26325.450000	-26897.220000	-14481.315000	0.000000	0.000000	0.000000	0.000000	5.744323	-13.215140	0.893918	-7.962371	0.000000	0.000000	-0.000000	-0.000000	2.502640	0.137340	-0.412020	-0.006104	0.981931	-0.036987	-1.000000	-1.000000	-1.000000	-1.000000	-1.000000	-1.000000	-1.000000	146.758621	0.000000	-1.000000	-1.000000	487230.000000	1772311633.896789
-20423.115000	-26288.730000	-26906.895000	-14486.310000	0.000000	0.000000	0.000000	0.000000	2.195098	-15.248433	-1.349342	-10.048059	0.000000	0.000000	-0.000000	-0.000000	2.502640	0.137340	-0.412020	-0.006104	0.981931	-0.036987	-1.000000	-1.000000	-1.000000	-1.000000	-1.000000	-1.000000	-1.000000	146.758621	0.000000	-1.000000	-1.000000	487231.000000	1772311633.901015
-20420.865000	-26279.505000	-26906.490000	-14484.375000	0.000000	0.000000	0.000000	0.000000	-2.194460	-0.022860	-3.735922	-9.175793	0.000000	0.000000	-0.000000	-0.000000	2.502640	0.137340	-0.412020	-0.006104	0.981931	-0.036987	-1.000000	-1.000000	-1.000000	-1.000000	-1.000000	-1.000000	-1.000000	146.758621	0.000000	-1.000000	-1.000000	487232.000000	1772311633.901018
-20433.555000	-26261.505000	-26919.990000	-14503.185000	0.000000	0.000000	0.000000	0.000000	-4.855307	21.786953	-5.734855	-6.745855	0.000000	0.000000	-0.000000	-0.000000	1.205540	0.457800	-0.274680	-0.005798	0.983091	-0.037659	-1.000000	-1.000000	-1.000000	-1.000000	-1.000000	-1.000000	-1.000000	146.758621	0.000000	-1.000000	-1.000000	487233.000000	1772311633.904928
-20439.405000	-26269.605000	-26918.730000	-14499.180000	0.000000	0.000000	0.000000	0.000000	-5.479996	34.663308	-6.662497	-4.219152	0.000000	0.000000	-0.000000	-0.000000	1.205540	0.457800	-0.274680	-0.005798	0.983091	-0.037659	-1.000000	-1.000000	-1.000000	-1.000000	-1.000000	-1.000000	-1.000000	146.758621	0.000000	-1.000000	-1.000000	487234.000000	1772311633.904931
-20425.905000	-26278.875000	-26910.945000	-14491.215000	0.000000	0.000000	0.000000	0.000000	-4.457138	29.860400	-5.505905	-1.648501	0.000000	0.000000	-0.000000	-0.000000	1.205540	0.457800	-0.274680	-0.005798	0.983091	-0.037659	-1.000000	-1.000000	-1.000000	-1.000000	-1.000000	-1.000000	-1.000000	146.758621	0.000000	-1.000000	-1.000000	487235.000000	1772311633.909261
-20420.280000	-26300.565000	-26907.345000	-14489.910000	0.000000	0.000000	0.000000	0.000000	-1.389559	9.628898	-1.608299	1.932164	0.000000	0.000000	-0.000000	-0.000000	1.205540	0.457800	-0.274680	-0.005798	0.983091	-0.037659	-1.000000	-1.000000	-1.000000	-1.000000	-1.000000	-1.000000	-1.000000	146.758621	0.000000	-1.000000	-1.000000	487236.000000	1772311633.909265
-20418.795000	-26323.740000	-26905.590000	-14489.325000	0.000000	0.000000	0.000000	0.000000	3.268992	-15.860478	3.814351	6.019232	0.000000	0.000000	-0.000000	-0.000000	1.205540	0.457800	-0.274680	-0.005798	0.983091	-0.037659	-1.000000	-1.000000	-1.000000	-1.000000	-1.000000	-1.000000	-1.000000	146.758621	0.000000	-1.000000	-1.000000	487237.000000	1772311633.913024
-20433.690000	-26349.165000	-26917.470000	-14499.900000	0.000000	0.000000	0.000000	0.000000	6.781203	-35.094912	7.726979	8.310157	0.000000	0.000000	-0.000000	-0.000000	1.205540	0.457800	-0.274680	-0.005798	0.983091	-0.037659	-1.000000	-1.000000	-1.000000	-1.000000	-1.000000	-1.000000	-1.000000	146.758621	0.000000	-1.000000	-1.000000	487238.000000	1772311633.913027
-20435.580000	-26357.895000	-26915.445000	-14497.200000	0.000000	0.000000	0.000000	0.000000	6.301007	-40.608441	7.651551	7.088157	0.000000	0.000000	-0.000000	-0.000000	1.205540	0.457800	-0.274680	-0.005798	0.983091	-0.037659	-1.000000	-1.000000	-1.000000	-1.000000	-1.000000	-1.000000	-1.000000	146.758621	0.000000	-1.000000	-1.000000	487239.000000	1772311633.919657
-20397.870000	-26365.905000	-26879.715000	-14461.380000	0.000000	0.000000	0.000000	0.000000	2.789389	-31.096195	4.669782	3.820928	0.000000	0.000000	-0.000000	-0.000000	1.205540	0.457800	-0.274680	-0.005798	0.983091	-0.037659	-1.000000	-1.000000	-1.000000	-1.000000	-1.000000	-1.000000	-1.000000	146.758621	0.000000	-1.000000	-1.000000	487240.000000	1772311633.919660
-20400.885000	-26380.845000	-26883.180000	-14464.845000	0.000000	0.000000	0.000000	0.000000	0.520841	-11.463757	2.520441	2.014883	0.000000	0.000000	-0.000000	-0.000000	1.205540	0.457800	-0.274680	-0.005798	0.983091	-0.037659	-1.000000	-1.000000	-1.000000	-1.000000	-1.000000	-1.000000	-1.000000	146.758621	0.000000	-1.000000	-1.000000	487241.000000	1772311633.921087
-20434.725000	-26406.765000	-26916.075000	-14493.375000	0.000000	0.000000	0.000000	0.000000	0.397512	9.127668	1.632385	1.659222	0.000000	0.000000	-0.000000	-0.000000	1.205540	0.457800	-0.274680	-0.005798	0.983091	-0.037659	-1.000000	-1.000000	-1.000000	-1.000000	-1.000000	-1.000000	-1.000000	146.758621	0.000000	-1.000000	-1.000000	487242.000000	1772311633.921090
-20418.750000	-26462.385000	-26904.690000	-14482.755000	0.000000	0.000000	0.000000	0.000000	-1.087783	21.383201	-1.272518	-0.771859	0.000000	0.000000	-0.000000	-0.000000	1.068200	0.686700	-0.335720	-0.005737	0.982847	-0.035828	-1.000000	-1.000000	-1.000000	-1.000000	-1.000000	-1.000000	-1.000000	146.758621	0.000000	-1.000000	-1.000000	487243.000000	1772311633.925153
-20408.220000	-26498.700000	-26892.720000	-14476.815000	0.000000	0.000000	0.000000	0.000000	-4.287888	20.713970	-5.920764	-5.341053	0.000000	0.000000	-0.000000	-0.000000	1.068200	0.686700	-0.335720	-0.005737	0.982847	-0.035828	-1.000000	-1.000000	-1.000000	-1.000000	-1.000000	-1.000000	-1.000000	146.758621	0.000000	-1.000000	-1.000000	487244.000000	1772311633.925157
-20393.505000	-26518.005000	-26873.865000	-14461.965000	0.000000	0.000000	0.000000	0.000000	-5.254023	10.650321	-7.599732	-7.799432	0.000000	0.000000	-0.000000	-0.000000	1.068200	0.686700	-0.335720	-0.005737	0.982847	-0.035828	-1.000000	-1.000000	-1.000000	-1.000000	-1.000000	-1.000000	-1.000000	146.758621	0.000000	-1.000000	-1.000000	487245.000000	1772311633.930533
-20412.315000	-26520.975000	-26887.455000	-14464.890000	0.000000	0.000000	0.000000	0.000000	-2.536069	0.703795	-4.215570	-5.633438	0.000000	0.000000	-0.000000	-0.000000	1.068200	0.686700	-0.335720	-0.005737	0.982847	-0.035828	-1.000000	-1.000000	-1.000000	-1.000000	-1.000000	-1.000000	-1.000000	146.758621	0.000000	-1.000000	-1.000000	487246.000000	1772311633.930536
-20436.030000	-26519.670000	-26907.660000	-14478.345000	0.000000	0.000000	0.000000	0.000000	0.225132	-1.271023	0.422119	-1.110123	0.000000	0.000000	-0.000000	-0.000000	1.068200	0.686700	-0.335720	-0.005737	0.982847	-0.035828	-1.000000	-1.000000	-1.000000	-1.000000	-1.000000	-1.000000	-1.000000	146.758621	0.000000	-1.000000	-1.000000	487247.000000	1772311633.933092
-20397.825000	-26501.130000	-26868.105000	-14438.340000	0.000000	0.000000	0.000000	0.000000	0.001675	5.493633	2.143636	2.322113	0.000000	0.000000	-0.000000	-0.000000	1.068200	0.686700	-0.335720	-0.005737	0.982847	-0.035828	-1.000000	-1.000000	-1.000000	-1.000000	-1.000000	-1.000000	-1.000000	146.758621	0.000000	-1.000000	-1.000000	487248.000000	1772311633.933095
-20383.155000	-26496.765000	-26863.470000	-14429.880000	0.000000	0.000000	0.000000	0.000000	-0.452130	15.562224	2.209665	4.578502	0.000000	0.000000	-0.000000	-0.000000	1.068200	0.686700	-0.335720	-0.005737	0.982847	-0.035828	-1.000000	-1.000000	-1.000000	-1.000000	-1.000000	-1.000000	-1.000000	146.758621	0.000000	-1.000000	-1.000000	487249.000000	1772311633.937163
-20410.020000	-26518.005000	-26889.345000	-14447.970000	0.000000	0.000000	0.000000	0.000000	1.807926	20.986140	2.798426	6.121678	0.000000	0.000000	-0.000000	-0.000000	1.068200	0.686700	-0.335720	-0.005737	0.982847	-0.035828	-1.000000	-1.000000	-1.000000	-1.000000	-1.000000	-1.000000	-1.000000	146.758621	0.000000	-1.000000	-1.000000	487250.000000	1772311633.937166
-20381.040000	-26525.430000	-26868.870000	-14456.835000	0.000000	0.000000	0.000000	0.000000	4.371518	15.994447	2.372649	4.482993	0.000000	0.000000	-0.000000	-0.000000	1.068200	0.686700	-0.335720	-0.005737	0.982847	-0.035828	-1.000000	-1.000000	-1.000000	-1.000000	-1.000000	-1.000000	-1.000000	146.758621	0.000000	-1.000000	-1.000000	487251.000000	1772311633.945114
-20368.935000	-26527.185000	-26852.130000	-14454.765000	0.000000	0.000000	0.000000	0.000000	4.888483	1.890478	0.552837	-1.365486	0.000000	0.000000	-0.000000	-0.000000	1.068200	0.686700	-0.335720	-0.005737	0.982847	-0.035828	-1.000000	-1.000000	-1.000000	-1.000000	-1.000000	-1.000000	-1.000000	146.758621	0.000000	-1.000000	-1.000000	487252.000000	1772311633.945118
-20460.915000	-26514.630000	-26941.995000	-14529.555000	0.000000	0.000000	0.000000	0.000000	2.471073	-13.230032	-1.869131	-9.058865	0.000000	0.000000	-0.000000	-0.000000	1.388660	0.091560	-0.228900	-0.006470	0.981565	-0.033142	-1.000000	-1.000000	-1.000000	-1.000000	-1.000000	-1.000000	-1.000000	146.758621	0.000000	-1.000000	-1.000000	487253.000000	1772311633.945123
-20437.740000	-26510.130000	-26923.860000	-14517.405000	0.000000	0.000000	0.000000	0.000000	-4.833171	-21.020375	-6.700517	-15.913036	0.000000	0.000000	-0.000000	-0.000000	1.388660	0.091560	-0.228900	-0.006470	0.981565	-0.033142	-1.000000	-1.000000	-1.000000	-1.000000	-1.000000	-1.000000	-1.000000	146.758621	0.000000	-1.000000	-1.000000	487254.000000	1772311633.945126
-20412.225000	-26514.135000	-26890.830000	-14488.470000	0.000000	0.000000	0.000000	0.000000	-13.039282	-19.113990	-11.518943	-17.167902	0.000000	0.000000	-0.000000	-0.000000	1.388660	0.091560	-0.228900	-0.006470	0.981565	-0.033142	-1.000000	-1.000000	-1.000000	-1.000000	-1.000000	-1.000000	-1.000000	146.758621	0.000000	-1.000000	-1.000000	487255.000000	1772311633.949169
-20363.400000	-26499.690000	-26837.640000	-14441.085000	0.000000	0.000000	0.000000	0.000000	-11.944171	-11.185989	-7.748593	-6.898947	0.000000	0.000000	-0.000000	-0.000000	1.388660	0.091560	-0.228900	-0.006470	0.981565	-0.033142	-1.000000	-1.000000	-1.000000	-1.000000	-1.000000	-1.000000	-1.000000	146.758621	0.000000	-1.000000	-1.000000	487256.000000	1772311633.949173
-20423.295000	-26474.715000	-26886.330000	-14479.920000	0.000000	0.000000	0.000000	0.000000	0.344594	-1.888519	5.939229	12.278500	0.000000	0.000000	-0.000000	-0.000000	1.388660	0.091560	-0.228900	-0.006470	0.981565	-0.033142	-1.000000	-1.000000	-1.000000	-1.000000	-1.000000	-1.000000	-1.000000	146.758621	0.000000	-1.000000	-1.000000	487257.000000	1772311633.953170
-20475.810000	-26457.705000	-26937.945000	-14549.130000	0.000000	0.000000	0.000000	0.000000	11.468465	6.141970	17.100074	25.840268	0.000000	0.000000	-0.000000	-0.000000	1.388660	0.091560	-0.228900	-0.006470	0.981565	-0.033142	-1.000000	-1.000000	-1.000000	-1.000000	-1.000000	-1.000000	-1.000000	146.758621	0.000000	-1.000000	-1.000000	487258.000000	1772311633.953173
-20446.695000	-26427.195000	-26913.375000	-14516.460000	0.000000	0.000000	0.000000	0.000000	10.105666	11.306389	14.060382	21.695764	0.000000	0.000000	-0.000000	-0.000000	1.388660	0.091560	-0.228900	-0.006470	0.981565	-0.033142	-1.000000	-1.000000	-1.000000	-1.000000	-1.000000	-1.000000	-1.000000	146.758621	0.000000	-1.000000	-1.000000	487259.000000	1772311633.957152
-20429.235000	-26418.285000	-26899.470000	-14479.740000	0.000000	0.000000	0.000000	0.000000	1.032883	12.322148	1.353947	5.994546	0.000000	0.000000	-0.000000	-0.000000	1.388660	0.091560	-0.228900	-0.006470	0.981565	-0.033142	-1.000000	-1.000000	-1.000000	-1.000000	-1.000000	-1.000000	-1.000000	146.758621	0.000000	-1.000000	-1.000000	487260.000000	1772311633.957155
-20414.520000	-26403.435000	-26859.510000	-14446.080000	0.000000	0.000000	0.000000	0.000000	-3.330603	8.577689	-7.112148	-4.586786	0.000000	0.000000	-0.000000	-0.000000	1.388660	0.091560	-0.228900	-0.006470	0.981565	-0.033142	-1.000000	-1.000000	-1.000000	-1.000000	-1.000000	-1.000000	-1.000000	146.758621	0.000000	-1.000000	-1.000000	487261.000000	1772311633.962675
-20436.075000	-26404.155000	-26924.040000	-14494.770000	0.000000	0.000000	0.000000	0.000000	0.502753	0.825415	-5.669509	-3.810404	0.000000	0.000000	-0.000000	-0.000000	1.388660	0.091560	-0.228900	-0.006470	0.981565	-0.033142	-1.000000	-1.000000	-1.000000	-1.000000	-1.000000	-1.000000	-1.000000	146.758621	0.000000	-1.000000	-1.000000	487262.000000	1772311633.962678
-20458.755000	-26402.085000	-26975.070000	-14545.845000	0.000000	0.000000	0.000000	0.000000	5.558191	-8.464959	-2.191186	-1.018195	0.000000	0.000000	-0.000000	-0.000000	1.388660	-0.412020	-0.106820	-0.006287	0.983274	-0.033996	-1.000000	-1.000000	-1.000000	-1.000000	-1.000000	-1.000000	-1.000000	146.758621	0.000000	-1.000000	-1.000000	487263.000000	1772311633.965277
-20441.565000	-26379.000000	-26927.865000	-14496.390000	0.000000	0.000000	0.000000	0.000000	5.136275	-15.471774	-4.490542	-5.086291	0.000000	0.000000	-0.000000	-0.000000	1.388660	-0.412020	-0.106820	-0.006287	0.983274	-0.033996	-1.000000	-1.000000	-1.000000	-1.000000	-1.000000	-1.000000	-1.000000	146.758621	0.000000	-1.000000	-1.000000	487264.000000	1772311633.965279
-20440.395000	-26344.890000	-26912.655000	-14485.140000	0.000000	0.000000	0.000000	0.000000	0.516586	-16.029583	-7.520193	-11.049341	0.000000	0.000000	-0.000000	-0.000000	1.388660	-0.412020	-0.106820	-0.006287	0.983274	-0.033996	-1.000000	-1.000000	-1.000000	-1.000000	-1.000000	-1.000000	-1.000000	146.758621	0.000000	-1.000000	-1.000000	487265.000000	1772311633.969150
-20440.665000	-26327.025000	-26914.815000	-14491.575000	0.000000	0.000000	0.000000	0.000000	-3.118514	-8.759731	-3.104312	-9.898379	0.000000	0.000000	-0.000000	-0.000000	1.388660	-0.412020	-0.106820	-0.006287	0.983274	-0.033996	-1.000000	-1.000000	-1.000000	-1.000000	-1.000000	-1.000000	-1.000000	146.758621	0.000000	-1.000000	-1.000000	487266.000000	1772311633.969153
-20424.015000	-26327.610000	-26913.690000	-14503.995000	0.000000	0.000000	0.000000	0.000000	-3.328698	2.003970	6.659697	-2.504834	0.000000	0.000000	-0.000000	-0.000000	1.388660	-0.412020	-0.106820	-0.006287	0.983274	-0.033996	-1.000000	-1.000000	-1.000000	-1.000000	-1.000000	-1.000000	-1.000000	146.758621	0.000000	-1.000000	-1.000000	487267.000000	1772311633.973315
-20421.900000	-26323.020000	-26911.215000	-14501.565000	0.000000	0.000000	0.000000	0.000000	-0.789140	8.928816	13.657699	4.015348	0.000000	0.000000	-0.000000	-0.000000	1.388660	-0.412020	-0.106820	-0.006287	0.983274	-0.033996	-1.000000	-1.000000	-1.000000	-1.000000	-1.000000	-1.000000	-1.000000	146.758621	0.000000	-1.000000	-1.000000	487268.000000	1772311633.973319
-20422.980000	-26303.355000	-26908.020000	-14509.170000	0.000000	0.000000	0.000000	0.000000	2.144249	8.482584	13.304102	5.702368	0.000000	0.000000	-0.000000	-0.000000	1.388660	-0.412020	-0.106820	-0.006287	0.983274	-0.033996	-1.000000	-1.000000	-1.000000	-1.000000	-1.000000	-1.000000	-1.000000	146.758621	0.000000	-1.000000	-1.000000	487269.000000	1772311633.977209
-20407.725000	-26282.430000	-26897.805000	-14526.270000	0.000000	0.000000	0.000000	0.000000	3.099374	3.640009	6.941621	3.184688	0.000000	0.000000	-0.000000	-0.000000	1.388660	-0.412020	-0.106820	-0.006287	0.983274	-0.033996	-1.000000	-1.000000	-1.000000	-1.000000	-1.000000	-1.000000	-1.000000	146.758621	0.000000	-1.000000	-1.000000	487270.000000	1772311633.977212
-20433.690000	-26283.915000	-26920.440000	-14536.485000	0.000000	0.000000	0.000000	0.000000	1.351731	-0.731164	-1.436691	-1.260381	0.000000	0.000000	-0.000000	-0.000000	1.388660	-0.412020	-0.106820	-0.006287	0.983274	-0.033996	-1.000000	-1.000000	-1.000000	-1.000000	-1.000000	-1.000000	-1.000000	146.758621	0.000000	-1.000000	-1.000000	487271.000000	1772311633.981297
-20436.435000	-26293.995000	-26912.970000	-14503.815000	0.000000	0.000000	0.000000	0.000000	-2.769792	-3.260624	-8.753484	-4.303127	0.000000	0.000000	-0.000000	-0.000000	1.388660	-0.412020	-0.106820	-0.006287	0.983274	-0.033996	-1.000000	-1.000000	-1.000000	-1.000000	-1.000000	-1.000000	-1.000000	146.758621	0.000000	-1.000000	-1.000000	487272.000000	1772311633.981301
-20437.605000	-26287.920000	-26913.330000	-14490.315000	0.000000	0.000000	0.000000	0.000000	-7.555611	-5.230418	-12.762445	-2.212025	0.000000	0.000000	-0.000000	-0.000000	4.593260	0.381500	0.244160	-0.006409	0.980893	-0.030334	-1.000000	-1.000000	-1.000000	-1.000000	-1.000000	-1.000000	-1.000000	146.758621	0.000000	-1.000000	-1.000000	487273.000000	1772311633.985237
-20445.030000	-26293.185000	-26923.635000	-14492.790000	0.000000	0.000000	0.000000	0.000000	-9.821478	-6.686956	-12.057731	4.682702	0.000000	0.000000	-0.000000	-0.000000	4.593260	0.381500	0.244160	-0.006409	0.980893	-0.030334	-1.000000	-1.000000	-1.000000	-1.000000	-1.000000	-1.000000	-1.000000	146.758621	0.000000	-1.000000	-1.000000	487274.000000	1772311633.985242
-20424.330000	-26310.780000	-26903.790000	-14465.655000	0.000000	0.000000	0.000000	0.000000	-7.434826	-6.665869	-7.332190	11.091056	0.000000	0.000000	-0.000000	-0.000000	4.593260	0.381500	0.244160	-0.006409	0.980893	-0.030334	-1.000000	-1.000000	-1.000000	-1.000000	-1.000000	-1.000000	-1.000000	146.758621	0.000000	-1.000000	-1.000000	487275.000000	1772311633.990593
-20388.195000	-26341.785000	-26865.405000	-14435.865000	0.000000	0.000000	0.000000	0.000000	-0.149568	-5.681523	0.266143	13.022122	0.000000	0.000000	-0.000000	-0.000000	4.593260	0.381500	0.244160	-0.006409	0.980893	-0.030334	-1.000000	-1.000000	-1.000000	-1.000000	-1.000000	-1.000000	-1.000000	146.758621	0.000000	-1.000000	-1.000000	487276.000000	1772311633.990597
-20402.145000	-26360.100000	-26874.495000	-14480.190000	0.000000	0.000000	0.000000	0.000000	9.631774	-4.997707	9.142275	9.645374	0.000000	0.000000	-0.000000	-0.000000	4.593260	0.381500	0.244160	-0.006409	0.980893	-0.030334	-1.000000	-1.000000	-1.000000	-1.000000	-1.000000	-1.000000	-1.000000	146.758621	0.000000	-1.000000	-1.000000	487277.000000	1772311633.993246
-20441.925000	-26378.415000	-26884.530000	-14523.930000	0.000000	0.000000	0.000000	0.000000	15.061309	-4.206181	14.479135	-0.450020	0.000000	0.000000	-0.000000	-0.000000	4.593260	0.381500	0.244160	-0.006409	0.980893	-0.030334	-1.000000	-1.000000	-1.000000	-1.000000	-1.000000	-1.000000	-1.000000	146.758621	0.000000	-1.000000	-1.000000	487278.000000	1772311633.993250
-20450.340000	-26358.390000	-26864.955000	-14494.500000	0.000000	0.000000	0.000000	0.000000	9.869219	-0.986106	11.865706	-15.428908	0.000000	0.000000	-0.000000	-0.000000	4.593260	0.381500	0.244160	-0.006409	0.980893	-0.030334	-1.000000	-1.000000	-1.000000	-1.000000	-1.000000	-1.000000	-1.000000	146.758621	0.000000	-1.000000	-1.000000	487279.000000	1772311633.997350
-20435.040000	-26333.775000	-26833.320000	-14463.495000	0.000000	0.000000	0.000000	0.000000	-2.860221	6.871507	3.877760	-25.047134	0.000000	0.000000	-0.000000	-0.000000	4.593260	0.381500	0.244160	-0.006409	0.980893	-0.030334	-1.000000	-1.000000	-1.000000	-1.000000	-1.000000	-1.000000	-1.000000	146.758621	0.000000	-1.000000	-1.000000	487280.000000	1772311633.997353
-20451.645000	-26334.720000	-26873.955000	-14487.075000	0.000000	0.000000	0.000000	0.000000	-12.932789	17.881414	-3.570309	-20.427064	0.000000	0.000000	-0.000000	-0.000000	4.593260	0.381500	0.244160	-0.006409	0.980893	-0.030334	-1.000000	-1.000000	-1.000000	-1.000000	-1.000000	-1.000000	-1.000000	146.758621	0.000000	-1.000000	-1.000000	487281.000000	1772311634.001533
-20457.585000	-26343.720000	-26962.740000	-14510.745000	0.000000	0.000000	0.000000	0.000000	-14.201965	25.362287	-10.599967	-6.044496	0.000000	0.000000	-0.000000	-0.000000	4.593260	0.381500	0.244160	-0.006409	0.980893	-0.030334	-1.000000	-1.000000	-1.000000	-1.000000	-1.000000	-1.000000	-1.000000	146.758621	0.000000	-1.000000	-1.000000	487282.000000	1772311634.001537
-20403.765000	-26357.490000	-26946.090000	-14502.330000	0.000000	0.000000	0.000000	0.000000	-7.297284	22.544095	-20.002117	6.527165	0.000000	0.000000	-0.000000	-0.000000	7.706300	0.900340	0.488320	-0.005493	0.977842	-0.028320	-1.000000	-1.000000	-1.000000	-1.000000	-1.000000	-1.000000	-1.000000	146.758621	0.000000	-1.000000	-1.000000	487283.000000	1772311634.005595
-20364.570000	-26359.785000	-26880.030000	-14494.905000	0.000000	0.000000	0.000000	0.000000	5.460656	9.330985	-24.927370	11.992459	0.000000	0.000000	-0.000000	-0.000000	7.706300	0.900340	0.488320	-0.005493	0.977842	-0.028320	-1.000000	-1.000000	-1.000000	-1.000000	-1.000000	-1.000000	-1.000000	146.758621	0.000000	-1.000000	-1.000000	487284.000000	1772311634.005600
-20393.865000	-26360.055000	-26858.790000	-14500.665000	0.000000	0.000000	0.000000	0.000000	18.758666	-7.210745	-13.866077	12.331154	0.000000	0.000000	-0.000000	-0.000000	7.706300	0.900340	0.488320	-0.005493	0.977842	-0.028320	-1.000000	-1.000000	-1.000000	-1.000000	-1.000000	-1.000000	-1.000000	146.758621	0.000000	-1.000000	-1.000000	487285.000000	1772311634.009350
-20400.030000	-26366.805000	-26877.690000	-14507.820000	0.000000	0.000000	0.000000	0.000000	22.784837	-18.628354	10.559790	10.037215	0.000000	0.000000	-0.000000	-0.000000	7.706300	0.900340	0.488320	-0.005493	0.977842	-0.028320	-1.000000	-1.000000	-1.000000	-1.000000	-1.000000	-1.000000	-1.000000	146.758621	0.000000	-1.000000	-1.000000	487286.000000	1772311634.009356
-20414.745000	-26385.210000	-26915.490000	-14505.840000	0.000000	0.000000	0.000000	0.000000	12.325946	-21.200861	30.191009	6.061605	0.000000	0.000000	-0.000000	-0.000000	7.706300	0.900340	0.488320	-0.005493	0.977842	-0.028320	-1.000000	-1.000000	-1.000000	-1.000000	-1.000000	-1.000000	-1.000000	146.758621	0.000000	-1.000000	-1.000000	487287.000000	1772311634.013393
-20416.140000	-26390.250000	-26900.820000	-14482.665000	0.000000	0.000000	0.000000	0.000000	-6.519507	-16.757425	30.568493	2.052396	0.000000	0.000000	-0.000000	-0.000000	7.706300	0.900340	0.488320	-0.005493	0.977842	-0.028320	-1.000000	-1.000000	-1.000000	-1.000000	-1.000000	-1.000000	-1.000000	146.758621	0.000000	-1.000000	-1.000000	487288.000000	1772311634.013397
-20399.220000	-26373.465000	-26874.585000	-14475.780000	0.000000	0.000000	0.000000	0.000000	-21.695518	-8.536109	15.107868	0.367847	0.000000	0.000000	-0.000000	-0.000000	7.706300	0.900340	0.488320	-0.005493	0.977842	-0.028320	-1.000000	-1.000000	-1.000000	-1.000000	-1.000000	-1.000000	-1.000000	146.758621	0.000000	-1.000000	-1.000000	487289.000000	1772311634.017367
-20381.220000	-26363.790000	-26859.465000	-14471.190000	0.000000	0.000000	0.000000	0.000000	-24.174448	1.534457	-1.561728	1.135128	0.000000	0.000000	-0.000000	-0.000000	7.706300	0.900340	0.488320	-0.005493	0.977842	-0.028320	-1.000000	-1.000000	-1.000000	-1.000000	-1.000000	-1.000000	-1.000000	146.758621	0.000000	-1.000000	-1.000000	487290.000000	1772311634.017369
-20435.670000	-26365.815000	-26912.475000	-14492.430000	0.000000	0.000000	0.000000	0.000000	-14.720374	11.023100	-10.540491	1.361510	0.000000	0.000000	-0.000000	-0.000000	7.706300	0.900340	0.488320	-0.005493	0.977842	-0.028320	-1.000000	-1.000000	-1.000000	-1.000000	-1.000000	-1.000000	-1.000000	146.758621	0.000000	-1.000000	-1.000000	487291.000000	1772311634.021352
-20495.160000	-26365.950000	-26968.950000	-14516.190000	0.000000	0.000000	0.000000	0.000000	-4.013265	16.000367	-15.061944	-2.208169	0.000000	0.000000	-0.000000	-0.000000	7.706300	0.900340	0.488320	-0.005493	0.977842	-0.028320	-1.000000	-1.000000	-1.000000	-1.000000	-1.000000	-1.000000	-1.000000	146.758621	0.000000	-1.000000	-1.000000	487292.000000	1772311634.021355
-20488.140000	-26350.155000	-26959.905000	-14473.980000	0.000000	0.000000	0.000000	0.000000	-1.044496	14.344036	-20.039995	-8.403809	0.000000	0.000000	-0.000000	-0.000000	17.152240	0.396760	2.014320	-0.009460	0.972471	-0.017944	-1.000000	-1.000000	-1.000000	-1.000000	-1.000000	-1.000000	-1.000000	146.758621	0.000000	-1.000000	-1.000000	487293.000000	1772311634.025507
-20459.205000	-26343.630000	-26940.240000	-14469.930000	0.000000	0.000000	0.000000	0.000000	-2.062317	8.102429	-21.407047	-10.929795	0.000000	0.000000	-0.000000	-0.000000	17.152240	0.396760	2.014320	-0.009460	0.972471	-0.017944	-1.000000	-1.000000	-1.000000	-1.000000	-1.000000	-1.000000	-1.000000	146.758621	0.000000	-1.000000	-1.000000	487294.000000	1772311634.025510
-20445.660000	-26359.515000	-26937.990000	-14498.865000	0.000000	0.000000	0.000000	0.000000	2.716480	0.641592	-12.222997	-6.696068	0.000000	0.000000	-0.000000	-0.000000	17.152240	0.396760	2.014320	-0.009460	0.972471	-0.017944	-1.000000	-1.000000	-1.000000	-1.000000	-1.000000	-1.000000	-1.000000	146.758621	0.000000	-1.000000	-1.000000	487295.000000	1772311634.033654
-20429.415000	-26361.090000	-26954.415000	-14531.850000	0.000000	0.000000	0.000000	0.000000	14.936621	-6.394798	5.193869	-1.143864	0.000000	0.000000	-0.000000	-0.000000	17.152240	0.396760	2.014320	-0.009460	0.972471	-0.017944	-1.000000	-1.000000	-1.000000	-1.000000	-1.000000	-1.000000	-1.000000	146.758621	0.000000	-1.000000	-1.000000	487296.000000	1772311634.033657
-20362.770000	-26370.405000	-26969.670000	-14538.015000	0.000000	0.000000	0.000000	0.000000	27.625314	-11.877767	20.030455	-0.376340	0.000000	0.000000	-0.000000	-0.000000	17.152240	0.396760	2.014320	-0.009460	0.972471	-0.017944	-1.000000	-1.000000	-1.000000	-1.000000	-1.000000	-1.000000	-1.000000	146.758621	0.000000	-1.000000	-1.000000	487297.000000	1772311634.033662
-20275.245000	-26365.140000	-26911.890000	-14457.555000	0.000000	0.000000	0.000000	0.000000	35.080704	-13.921604	24.865726	-1.629249	0.000000	0.000000	-0.000000	-0.000000	17.152240	0.396760	2.014320	-0.009460	0.972471	-0.017944	-1.000000	-1.000000	-1.000000	-1.000000	-1.000000	-1.000000	-1.000000	146.758621	0.000000	-1.000000	-1.000000	487298.000000	1772311634.033664
-20254.005000	-26347.140000	-26895.870000	-14460.345000	0.000000	0.000000	0.000000	0.000000	35.192609	-10.874981	22.132366	2.998239	0.000000	0.000000	-0.000000	-0.000000	17.152240	0.396760	2.014320	-0.009460	0.972471	-0.017944	-1.000000	-1.000000	-1.000000	-1.000000	-1.000000	-1.000000	-1.000000	146.758621	0.000000	-1.000000	-1.000000	487299.000000	1772311634.037421
-20348.325000	-26352.225000	-26947.080000	-14527.440000	0.000000	0.000000	0.000000	0.000000	22.793385	-3.183493	15.727178	11.991396	0.000000	0.000000	-0.000000	-0.000000	17.152240	0.396760	2.014320	-0.009460	0.972471	-0.017944	-1.000000	-1.000000	-1.000000	-1.000000	-1.000000	-1.000000	-1.000000	146.758621	0.000000	-1.000000	-1.000000	487300.000000	1772311634.037425
-20408.355000	-26377.470000	-26941.455000	-14514.570000	0.000000	0.000000	0.000000	0.000000	-8.058705	4.904554	4.355499	13.924153	0.000000	0.000000	-0.000000	-0.000000	17.152240	0.396760	2.014320	-0.009460	0.972471	-0.017944	-1.000000	-1.000000	-1.000000	-1.000000	-1.000000	-1.000000	-1.000000	146.758621	0.000000	-1.000000	-1.000000	487301.000000	1772311634.041381
-20435.940000	-26372.430000	-26866.485000	-14426.280000	0.000000	0.000000	0.000000	0.000000	-49.620564	8.099505	-9.380821	6.602988	0.000000	0.000000	-0.000000	-0.000000	17.152240	0.396760	2.014320	-0.009460	0.972471	-0.017944	-1.000000	-1.000000	-1.000000	-1.000000	-1.000000	-1.000000	-1.000000	146.758621	0.000000	-1.000000	-1.000000	487302.000000	1772311634.041384
-20468.970000	-26349.615000	-26820.315000	-14395.230000	0.000000	0.000000	0.000000	0.000000	-78.928279	6.247894	-15.068559	1.498778	-0.000000	0.000000	-0.000000	-0.000000	27.071240	-3.113040	8.896580	-0.020264	0.976560	-0.012573	-1.000000	-1.000000	-1.000000	-1.000000	-1.000000	-1.000000	-1.000000	146.758621	0.000000	-1.000000	-1.000000	487303.000000	1772311634.045488
-20536.830000	-26332.605000	-26926.740000	-14481.405000	0.000000	0.000000	0.000000	0.000000	-77.873353	4.214958	-10.155480	3.141201	-0.000000	0.000000	-0.000000	-0.000000	27.071240	-3.113040	8.896580	-0.020264	0.976560	-0.012573	-1.000000	-1.000000	-1.000000	-1.000000	-1.000000	-1.000000	-1.000000	146.758621	0.000000	-1.000000	-1.000000	487304.000000	1772311634.045491
-20512.260000	-26341.515000	-27008.415000	-14595.390000	0.000000	0.000000	0.000000	0.000000	-47.088600	4.749866	-8.230997	-0.663444	-0.000000	0.000000	-0.000000	-0.000000	27.071240	-3.113040	8.896580	-0.020264	0.976560	-0.012573	-1.000000	-1.000000	-1.000000	-1.000000	-1.000000	-1.000000	-1.000000	146.758621	0.000000	-1.000000	-1.000000	487305.000000	1772311634.049451
-20396.475000	-26340.390000	-26906.715000	-14507.235000	0.000000	0.000000	0.000000	0.000000	2.299216	5.325958	-17.344504	-17.258640	-0.000000	0.000000	-0.000000	-0.000000	27.071240	-3.113040	8.896580	-0.020264	0.976560	-0.012573	-1.000000	-1.000000	-1.000000	-1.000000	-1.000000	-1.000000	-1.000000	146.758621	0.000000	-1.000000	-1.000000	487306.000000	1772311634.049454
-20382.075000	-26335.620000	-26883.270000	-14464.035000	0.000000	0.000000	0.000000	0.000000	56.392812	2.911112	-23.221025	-30.646450	-0.000000	0.000000	-0.000000	-0.000000	27.071240	-3.113040	8.896580	-0.020264	0.976560	-0.012573	-1.000000	-1.000000	-1.000000	-1.000000	-1.000000	-1.000000	-1.000000	146.758621	0.000000	-1.000000	-1.000000	487307.000000	1772311634.053480
-20365.920000	-26332.245000	-26891.730000	-14410.890000	0.000000	0.000000	0.000000	0.000000	94.640739	-1.794972	-11.442122	-21.076792	-0.000000	0.000000	-0.000000	-0.000000	27.071240	-3.113040	8.896580	-0.020264	0.976560	-0.012573	-1.000000	-1.000000	-1.000000	-1.000000	-1.000000	-1.000000	-1.000000	146.758621	0.000000	-1.000000	-1.000000	487308.000000	1772311634.053482
-20453.130000	-26338.770000	-27028.530000	-14441.490000	0.000000	0.000000	0.000000	0.000000	95.545684	-6.073334	8.217680	7.478662	-0.000000	0.000000	-0.000000	-0.000000	27.071240	-3.113040	8.896580	-0.020264	0.976560	-0.012573	-1.000000	-1.000000	-1.000000	-1.000000	-1.000000	-1.000000	-1.000000	146.758621	0.000000	-1.000000	-1.000000	487309.000000	1772311634.057516
-20539.530000	-26368.605000	-27207.225000	-14589.270000	0.000000	0.000000	0.000000	0.000000	52.896143	-8.755413	11.756824	29.285995	-0.000000	0.000000	-0.000000	-0.000000	27.071240	-3.113040	8.896580	-0.020264	0.976560	-0.012573	-1.000000	-1.000000	-1.000000	-1.000000	-1.000000	-1.000000	-1.000000	146.758621	0.000000	-1.000000	-1.000000	487310.000000	1772311634.057519
-20362.365000	-26350.740000	-27096.120000	-14476.725000	0.000000	0.000000	0.000000	0.000000	-11.500333	-9.974930	-7.200144	24.672851	-0.000000	0.000000	-0.000000	-0.000000	27.071240	-3.113040	8.896580	-0.020264	0.976560	-0.012573	-1.000000	-1.000000	-1.000000	-1.000000	-1.000000	-1.000000	-1.000000	146.758621	0.000000	-1.000000	-1.000000	487311.000000	1772311634.061475
-20235.870000	-26308.980000	-27001.620000	-14406.390000	0.000000	0.000000	0.000000	0.000000	-53.905720	-7.681863	-21.658150	5.026552	-0.000000	0.000000	-0.000000	-0.000000	27.071240	-3.113040	8.896580	-0.020264	0.976560	-0.012573	-1.000000	-1.000000	-1.000000	-1.000000	-1.000000	-1.000000	-1.000000	146.758621	0.000000	-1.000000	-1.000000	487312.000000	1772311634.061478
-20418.300000	-26314.920000	-27188.370000	-14593.095000	0.000000	0.000000	0.000000	0.000000	-51.246642	0.346837	-7.296038	-7.525030	-0.000000	0.000000	-0.000000	-0.000000	32.030740	-4.440660	16.663920	-0.022766	0.986326	-0.014954	-1.000000	-1.000000	-1.000000	-1.000000	-1.000000	-1.000000	-1.000000	146.758621	0.000000	-1.000000	-1.000000	487313.000000	1772311634.065509
-20578.365000	-26291.160000	-27237.465000	-14587.650000	0.000000	0.000000	0.000000	0.000000	-31.010743	10.662994	19.543375	-13.488315	-0.000000	0.000000	-0.000000	-0.000000	32.030740	-4.440660	16.663920	-0.022766	0.986326	-0.014954	-1.000000	-1.000000	-1.000000	-1.000000	-1.000000	-1.000000	-1.000000	146.758621	0.000000	-1.000000	-1.000000	487314.000000	1772311634.065512
-20609.415000	-26269.470000	-27080.280000	-14500.530000	0.000000	0.000000	0.000000	0.000000	-30.235658	16.886535	33.033715	-18.609770	-0.000000	0.000000	-0.000000	-0.000000	32.030740	-4.440660	16.663920	-0.022766	0.986326	-0.014954	-1.000000	-1.000000	-1.000000	-1.000000	-1.000000	-1.000000	-1.000000	146.758621	0.000000	-1.000000	-1.000000	487315.000000	1772311634.069426
-20602.215000	-26283.690000	-26906.490000	-14376.330000	0.000000	0.000000	0.000000	0.000000	-44.904851	15.684340	39.023010	-11.593904	-0.000000	0.000000	-0.000000	-0.000000	32.030740	-4.440660	16.663920	-0.022766	0.986326	-0.014954	-1.000000	-1.000000	-1.000000	-1.000000	-1.000000	-1.000000	-1.000000	146.758621	0.000000	-1.000000	-1.000000	487316.000000	1772311634.069429
-20644.155000	-26297.370000	-26887.815000	-14359.545000	0.000000	0.000000	0.000000	0.000000	-45.001565	6.796251	52.162963	14.676525	-0.000000	0.000000	-0.000000	-0.000000	32.030740	-4.440660	16.663920	-0.022766	0.986326	-0.014954	-1.000000	-1.000000	-1.000000	-1.000000	-1.000000	-1.000000	-1.000000	146.758621	0.000000	-1.000000	-1.000000	487317.000000	1772311634.073529
-20558.790000	-26326.845000	-26912.340000	-14408.055000	0.000000	0.000000	0.000000	0.000000	-15.596983	-7.347085	60.400371	42.258574	-0.000000	0.000000	-0.000000	-0.000000	32.030740	-4.440660	16.663920	-0.022766	0.986326	-0.014954	-1.000000	-1.000000	-1.000000	-1.000000	-1.000000	-1.000000	-1.000000	146.758621	0.000000	-1.000000	-1.000000	487318.000000	1772311634.073532
-20446.290000	-26328.015000	-26936.730000	-14599.890000	0.000000	0.000000	0.000000	0.000000	35.026703	-20.875537	39.395781	41.141558	-0.000000	0.000000	-0.000000	-0.000000	32.030740	-4.440660	16.663920	-0.022766	0.986326	-0.014954	-1.000000	-1.000000	-1.000000	-1.000000	-1.000000	-1.000000	-1.000000	146.758621	0.000000	-1.000000	-1.000000	487319.000000	1772311634.077620
-20289.330000	-26305.650000	-26895.240000	-14662.485000	0.000000	0.000000	0.000000	0.000000	87.827148	-26.101490	-11.672972	-0.436418	-0.000000	0.000000	-0.000000	-0.000000	32.030740	-4.440660	16.663920	-0.022766	0.986326	-0.014954	-1.000000	-1.000000	-1.000000	-1.000000	-1.000000	-1.000000	-1.000000	146.758621	0.000000	-1.000000	-1.000000	487320.000000	1772311634.077623
-20185.965000	-26306.235000	-26891.055000	-14528.385000	0.000000	0.000000	0.000000	0.000000	120.939556	-18.529703	-65.301680	-55.142670	-0.000000	0.000000	-0.000000	-0.000000	32.030740	-4.440660	16.663920	-0.022766	0.986326	-0.014954	-1.000000	-1.000000	-1.000000	-1.000000	-1.000000	-1.000000	-1.000000	146.758621	0.000000	-1.000000	-1.000000	487321.000000	1772311634.081610
-20258.595000	-26318.655000	-27040.320000	-14487.615000	0.000000	0.000000	0.000000	0.000000	113.603841	-2.164082	-95.002330	-74.707658	-0.000000	0.000000	-0.000000	-0.000000	32.030740	-4.440660	16.663920	-0.022766	0.986326	-0.014954	-1.000000	-1.000000	-1.000000	-1.000000	-1.000000	-1.000000	-1.000000	146.758621	0.000000	-1.000000	-1.000000	487322.000000	1772311634.081613
-20495.160000	-26342.190000	-27204.885000	-14518.395000	0.000000	0.000000	0.000000	0.000000	51.886710	12.551424	-98.984219	-40.868512	-0.000000	0.000000	-0.000000	-0.000000	30.703120	-5.295220	14.924280	-0.009644	0.977170	-0.041931	-1.000000	-1.000000	-1.000000	-1.000000	-1.000000	-1.000000	-1.000000	146.758621	0.000000	-1.000000	-1.000000	487323.000000	1772311634.085600
-20713.635000	-26343.315000	-27429.570000	-14556.690000	0.000000	0.000000	0.000000	0.000000	-56.604681	17.697990	-90.643404	15.946394	-0.000000	0.000000	-0.000000	-0.000000	30.703120	-5.295220	14.924280	-0.009644	0.977170	-0.041931	-1.000000	-1.000000	-1.000000	-1.000000	-1.000000	-1.000000	-1.000000	146.758621	0.000000	-1.000000	-1.000000	487324.000000	1772311634.085602
-20753.055000	-26363.700000	-27432.810000	-14502.465000	0.000000	0.000000	0.000000	0.000000	-167.740066	13.394221	-74.099649	54.417721	-0.000000	0.000000	-0.000000	-0.000000	30.703120	-5.295220	14.924280	-0.009644	0.977170	-0.041931	-1.000000	-1.000000	-1.000000	-1.000000	-1.000000	-1.000000	-1.000000	146.758621	0.000000	-1.000000	-1.000000	487325.000000	1772311634.089547
-20619.765000	-26369.145000	-27292.275000	-14447.475000	0.000000	0.000000	0.000000	0.000000	-214.015447	5.028362	-34.430893	60.631769	-0.000000	0.000000	-0.000000	-0.000000	30.703120	-5.295220	14.924280	-0.009644	0.977170	-0.041931	-1.000000	-1.000000	-1.000000	-1.000000	-1.000000	-1.000000	-1.000000	146.758621	0.000000	-1.000000	-1.000000	487326.000000	1772311634.089550
