Channel1	Channel2	Channel3	Channel4	Channel5	Channel6	Channel7	Channel8	FilteredChannel1	FilteredChannel2	FilteredChannel3	FilteredChannel4	FilteredChannel5	FilteredChannel6	FilteredChannel7	FilteredChannel8	GyroX	GyroY	GyroZ	AccX	AccY	AccZ	PPG1	PPG2	rawPPG1	rawPPG2	rawPPG3	Hr	Hrv	Battery	Trigger	PhysicalTrigger	AutoTrigger	NumMeasurements	Timestamp
-16915.095000	-19665.315000	-21083.940000	-13024.440000	0.000000	0.000000	0.000000	0.000000	15.662191	-31.455070	12.231978	5.374014	-0.000000	-0.000000	0.000000	0.000000	9.995300	-2.029580	3.128300	0.011047	0.983640	0.042419	-1.000000	-1.000000	-1.000000	-1.000000	-1.000000	-1.000000	-1.000000	146.827586	0.000000	-1.000000	-1.000000	384022.000000	1772311426.873034
-16883.415000	-19653.030000	-21046.455000	-12969.900000	0.000000	0.000000	0.000000	0.000000	3.593857	-21.373494	1.986884	-2.260098	-0.000000	-0.000000	0.000000	0.000000	9.995300	-2.029580	3.128300	0.011047	0.983640	0.042419	-1.000000	-1.000000	-1.000000	-1.000000	-1.000000	-1.000000	-1.000000	146.827586	0.000000	-1.000000	-1.000000	384023.000000	1772311426.873038
-16852.050000	-19668.870000	-21013.515000	-12932.640000	0.000000	0.000000	0.000000	0.000000	-6.709717	-1.503560	-6.663027	-5.983471	-0.000000	-0.000000	0.000000	0.000000	9.995300	-2.029580	3.128300	0.011047	0.983640	0.042419	-1.000000	-1.000000	-1.000000	-1.000000	-1.000000	-1.000000	-1.000000	146.827586	0.000000	-1.000000	-1.000000	384024.000000	1772311426.877106
-16849.710000	-19681.335000	-21014.055000	-12937.635000	0.000000	0.000000	0.000000	0.000000	-5.910849	16.404953	-3.992605	3.092414	-0.000000	-0.000000	0.000000	0.000000	9.995300	-2.029580	3.128300	0.011047	0.983640	0.042419	-1.000000	-1.000000	-1.000000	-1.000000	-1.000000	-1.000000	-1.000000	146.827586	0.000000	-1.000000	-1.000000	384025.000000	1772311426.877109
-16886.205000	-19610.505000	-21051.810000	-12973.950000	0.000000	0.000000	0.000000	0.000000	1.601507	24.450378	4.928695	16.002611	-0.000000	-0.000000	0.000000	0.000000	9.995300	-2.029580	3.128300	0.011047	0.983640	0.042419	-1.000000	-1.000000	-1.000000	-1.000000	-1.000000	-1.000000	-1.000000	146.827586	0.000000	-1.000000	-1.000000	384026.000000	1772311426.881118
-16884.180000	-19559.520000	-21053.835000	-12979.215000	0.000000	0.000000	0.000000	0.000000	5.083470	25.724305	8.457112	18.476926	-0.000000	-0.000000	0.000000	0.000000	9.995300	-2.029580	3.128300	0.011047	0.983640	0.042419	-1.000000	-1.000000	-1.000000	-1.000000	-1.000000	-1.000000	-1.000000	146.827586	0.000000	-1.000000	-1.000000	384027.000000	1772311426.881121
-16855.245000	-19548.090000	-21024.135000	-12951.180000	0.000000	0.000000	0.000000	0.000000	1.175729	25.616328	3.243652	8.027813	-0.000000	-0.000000	0.000000	0.000000	9.995300	-2.029580	3.128300	0.011047	0.983640	0.042419	-1.000000	-1.000000	-1.000000	-1.000000	-1.000000	-1.000000	-1.000000	146.827586	0.000000	-1.000000	-1.000000	384028.000000	1772311426.885083
-16837.290000	-19539.810000	-21002.715000	-12933.585000	0.000000	0.000000	0.000000	0.000000	-3.729130	22.057816	-3.315610	-4.987508	-0.000000	-0.000000	0.000000	0.000000	9.995300	-2.029580	3.128300	0.011047	0.983640	0.042419	-1.000000	-1.000000	-1.000000	-1.000000	-1.000000	-1.000000	-1.000000	146.827586	0.000000	-1.000000	-1.000000	384029.000000	1772311426.885086
-16842.960000	-19545.975000	-21014.235000	-12960.540000	0.000000	0.000000	0.000000	0.000000	-3.977197	10.312642	-4.528262	-11.195470	-0.000000	-0.000000	0.000000	0.000000	3.280900	-0.396760	2.639980	0.014404	0.991392	0.029358	-1.000000	-1.000000	-1.000000	-1.000000	-1.000000	-1.000000	-1.000000	146.827586	0.000000	-1.000000	-1.000000	384030.000000	1772311426.889143
-16858.665000	-19556.280000	-21025.530000	-12961.575000	0.000000	0.000000	0.000000	0.000000	-1.480639	-8.541634	-2.179078	-10.975566	-0.000000	-0.000000	0.000000	0.000000	3.280900	-0.396760	2.639980	0.014404	0.991392	0.029358	-1.000000	-1.000000	-1.000000	-1.000000	-1.000000	-1.000000	-1.000000	146.827586	0.000000	-1.000000	-1.000000	384031.000000	1772311426.889146
-16899.795000	-19493.235000	-21069.495000	-13000.140000	0.000000	0.000000	0.000000	0.000000	-1.811627	-25.996088	-2.239192	-9.441356	-0.000000	-0.000000	0.000000	0.000000	3.280900	-0.396760	2.639980	0.014404	0.991392	0.029358	-1.000000	-1.000000	-1.000000	-1.000000	-1.000000	-1.000000	-1.000000	146.827586	0.000000	-1.000000	-1.000000	384032.000000	1772311426.893198
-16918.695000	-19443.915000	-21088.755000	-13020.525000	0.000000	0.000000	0.000000	0.000000	-7.303473	-30.619316	-7.407385	-9.605455	-0.000000	-0.000000	0.000000	0.000000	3.280900	-0.396760	2.639980	0.014404	0.991392	0.029358	-1.000000	-1.000000	-1.000000	-1.000000	-1.000000	-1.000000	-1.000000	146.827586	0.000000	-1.000000	-1.000000	384033.000000	1772311426.893202
-16888.770000	-19419.930000	-21058.155000	-12987.900000	0.000000	0.000000	0.000000	0.000000	-13.305975	-18.442876	-13.292587	-9.699840	-0.000000	-0.000000	0.000000	0.000000	3.280900	-0.396760	2.639980	0.014404	0.991392	0.029358	-1.000000	-1.000000	-1.000000	-1.000000	-1.000000	-1.000000	-1.000000	146.827586	0.000000	-1.000000	-1.000000	384034.000000	1772311426.897175
-16869.690000	-19390.815000	-21042.585000	-12963.915000	0.000000	0.000000	0.000000	0.000000	-11.442976	1.557392	-11.545710	-4.364847	-0.000000	-0.000000	0.000000	0.000000	3.280900	-0.396760	2.639980	0.014404	0.991392	0.029358	-1.000000	-1.000000	-1.000000	-1.000000	-1.000000	-1.000000	-1.000000	146.827586	0.000000	-1.000000	-1.000000	384035.000000	1772311426.897178
-16888.275000	-19369.890000	-21060.855000	-12977.730000	0.000000	0.000000	0.000000	0.000000	0.335981	16.010238	-0.025095	7.569299	-0.000000	-0.000000	0.000000	0.000000	3.280900	-0.396760	2.639980	0.014404	0.991392	0.029358	-1.000000	-1.000000	-1.000000	-1.000000	-1.000000	-1.000000	-1.000000	146.827586	0.000000	-1.000000	-1.000000	384036.000000	1772311426.901228
-16905.420000	-19395.810000	-21073.275000	-12983.940000	0.000000	0.000000	0.000000	0.000000	13.538200	17.168766	13.042895	18.613158	-0.000000	-0.000000	0.000000	0.000000	3.280900	-0.396760	2.639980	0.014404	0.991392	0.029358	-1.000000	-1.000000	-1.000000	-1.000000	-1.000000	-1.000000	-1.000000	146.827586	0.000000	-1.000000	-1.000000	384037.000000	1772311426.901232
-16896.060000	-19461.555000	-21060.990000	-12969.945000	0.000000	0.000000	0.000000	0.000000	18.502588	4.089909	18.441397	20.715883	-0.000000	-0.000000	0.000000	0.000000	3.280900	-0.396760	2.639980	0.014404	0.991392	0.029358	-1.000000	-1.000000	-1.000000	-1.000000	-1.000000	-1.000000	-1.000000	146.827586	0.000000	-1.000000	-1.000000	384038.000000	1772311426.905033
-16871.445000	-19502.820000	-21036.600000	-12952.620000	0.000000	0.000000	0.000000	0.000000	14.550674	-18.077363	15.430101	13.990620	-0.000000	-0.000000	0.000000	0.000000	3.280900	-0.396760	2.639980	0.014404	0.991392	0.029358	-1.000000	-1.000000	-1.000000	-1.000000	-1.000000	-1.000000	-1.000000	146.827586	0.000000	-1.000000	-1.000000	384039.000000	1772311426.905036
-16861.005000	-19520.955000	-21025.440000	-12941.055000	0.000000	0.000000	0.000000	0.000000	7.918774	-37.415097	9.461263	4.457057	-0.000000	-0.000000	0.000000	0.000000	-2.807840	0.946120	0.381500	0.017761	0.990232	0.026672	-1.000000	-1.000000	-1.000000	-1.000000	-1.000000	-1.000000	-1.000000	146.827586	0.000000	-1.000000	-1.000000	384040.000000	1772311426.909294
-16841.475000	-19517.535000	-21005.730000	-12920.445000	0.000000	0.000000	0.000000	0.000000	3.380628	-40.307489	4.647409	-2.768839	-0.000000	-0.000000	0.000000	0.000000	-2.807840	0.946120	0.381500	0.017761	0.990232	0.026672	-1.000000	-1.000000	-1.000000	-1.000000	-1.000000	-1.000000	-1.000000	146.827586	0.000000	-1.000000	-1.000000	384041.000000	1772311426.909297
-16850.250000	-19530.990000	-21015.540000	-12935.520000	0.000000	0.000000	0.000000	0.000000	0.829505	-21.936574	0.969891	-6.576855	-0.000000	-0.000000	0.000000	0.000000	-2.807840	0.946120	0.381500	0.017761	0.990232	0.026672	-1.000000	-1.000000	-1.000000	-1.000000	-1.000000	-1.000000	-1.000000	146.827586	0.000000	-1.000000	-1.000000	384042.000000	1772311426.913123
-16868.610000	-19553.940000	-21029.355000	-12935.790000	0.000000	0.000000	0.000000	0.000000	-2.730437	8.619509	-3.873471	-9.017741	-0.000000	-0.000000	0.000000	0.000000	-2.807840	0.946120	0.381500	0.017761	0.990232	0.026672	-1.000000	-1.000000	-1.000000	-1.000000	-1.000000	-1.000000	-1.000000	146.827586	0.000000	-1.000000	-1.000000	384043.000000	1772311426.913126
-16890.255000	-19575.855000	-21042.900000	-12931.065000	0.000000	0.000000	0.000000	0.000000	-9.377424	34.929701	-11.001989	-11.518160	-0.000000	-0.000000	0.000000	0.000000	-2.807840	0.946120	0.381500	0.017761	0.990232	0.026672	-1.000000	-1.000000	-1.000000	-1.000000	-1.000000	-1.000000	-1.000000	146.827586	0.000000	-1.000000	-1.000000	384044.000000	1772311426.917159
-16867.845000	-19566.540000	-21023.730000	-12914.685000	0.000000	0.000000	0.000000	0.000000	-16.574994	45.622091	-17.461863	-12.314169	-0.000000	-0.000000	0.000000	0.000000	-2.807840	0.946120	0.381500	0.017761	0.990232	0.026672	-1.000000	-1.000000	-1.000000	-1.000000	-1.000000	-1.000000	-1.000000	146.827586	0.000000	-1.000000	-1.000000	384045.000000	1772311426.917162
-16841.115000	-19585.215000	-21015.765000	-12956.895000	0.000000	0.000000	0.000000	0.000000	-17.710103	40.339186	-17.833150	-9.875724	-0.000000	-0.000000	0.000000	0.000000	-2.807840	0.946120	0.381500	0.017761	0.990232	0.026672	-1.000000	-1.000000	-1.000000	-1.000000	-1.000000	-1.000000	-1.000000	146.827586	0.000000	-1.000000	-1.000000	384046.000000	1772311426.921149
-16834.770000	-19619.550000	-21010.365000	-12971.115000	0.000000	0.000000	0.000000	0.000000	-9.018696	24.797304	-10.079574	-6.566306	-0.000000	-0.000000	0.000000	0.000000	-2.807840	0.946120	0.381500	0.017761	0.990232	0.026672	-1.000000	-1.000000	-1.000000	-1.000000	-1.000000	-1.000000	-1.000000	146.827586	0.000000	-1.000000	-1.000000	384047.000000	1772311426.921152
-16875.405000	-19637.820000	-21049.155000	-12992.625000	0.000000	0.000000	0.000000	0.000000	4.090183	5.044825	0.949361	-5.097283	-0.000000	-0.000000	0.000000	0.000000	-2.807840	0.946120	0.381500	0.017761	0.990232	0.026672	-1.000000	-1.000000	-1.000000	-1.000000	-1.000000	-1.000000	-1.000000	146.827586	0.000000	-1.000000	-1.000000	384048.000000	1772311426.925255
-16898.445000	-19638.135000	-21068.595000	-12991.995000	0.000000	0.000000	0.000000	0.000000	10.966913	-12.312075	7.236958	-4.211407	-0.000000	-0.000000	0.000000	0.000000	-2.807840	0.946120	0.381500	0.017761	0.990232	0.026672	-1.000000	-1.000000	-1.000000	-1.000000	-1.000000	-1.000000	-1.000000	146.827586	0.000000	-1.000000	-1.000000	384049.000000	1772311426.925258
-16865.370000	-19636.470000	-21032.460000	-12947.355000	0.000000	0.000000	0.000000	0.000000	7.757900	-20.670211	6.378413	0.103151	-0.000000	-0.000000	0.000000	0.000000	-1.571780	0.610400	0.289940	0.015381	0.986875	0.035522	-1.000000	-1.000000	-1.000000	-1.000000	-1.000000	-1.000000	-1.000000	146.827586	0.000000	-1.000000	-1.000000	384050.000000	1772311426.930648
-16855.020000	-19613.070000	-21026.070000	-12946.680000	0.000000	0.000000	0.000000	0.000000	1.653696	-17.369632	4.248650	10.009495	-0.000000	-0.000000	0.000000	0.000000	-1.571780	0.610400	0.289940	0.015381	0.986875	0.035522	-1.000000	-1.000000	-1.000000	-1.000000	-1.000000	-1.000000	-1.000000	146.827586	0.000000	-1.000000	-1.000000	384051.000000	1772311426.930650
-16835.850000	-19605.195000	-21008.385000	-12935.475000	0.000000	0.000000	0.000000	0.000000	0.778850	-5.604594	6.234883	21.267679	-0.000000	-0.000000	0.000000	0.000000	-1.571780	0.610400	0.289940	0.015381	0.986875	0.035522	-1.000000	-1.000000	-1.000000	-1.000000	-1.000000	-1.000000	-1.000000	146.827586	0.000000	-1.000000	-1.000000	384052.000000	1772311426.933265
-16836.930000	-19635.975000	-21007.395000	-12934.665000	0.000000	0.000000	0.000000	0.000000	5.172020	6.560962	10.689541	25.830103	-0.000000	-0.000000	0.000000	0.000000	-1.571780	0.610400	0.289940	0.015381	0.986875	0.035522	-1.000000	-1.000000	-1.000000	-1.000000	-1.000000	-1.000000	-1.000000	146.827586	0.000000	-1.000000	-1.000000	384053.000000	1772311426.933268
-16866.945000	-19677.330000	-21034.890000	-12957.345000	0.000000	0.000000	0.000000	0.000000	8.497846	9.908284	11.851167	19.200901	-0.000000	-0.000000	0.000000	0.000000	-1.571780	0.610400	0.289940	0.015381	0.986875	0.035522	-1.000000	-1.000000	-1.000000	-1.000000	-1.000000	-1.000000	-1.000000	146.827586	0.000000	-1.000000	-1.000000	384054.000000	1772311426.938981
-16860.420000	-19688.265000	-21027.150000	-12948.345000	0.000000	0.000000	0.000000	0.000000	5.250218	1.469047	5.944368	3.646959	-0.000000	-0.000000	0.000000	0.000000	-1.571780	0.610400	0.289940	0.015381	0.986875	0.035522	-1.000000	-1.000000	-1.000000	-1.000000	-1.000000	-1.000000	-1.000000	146.827586	0.000000	-1.000000	-1.000000	384055.000000	1772311426.938984
-16861.680000	-19655.280000	-21032.955000	-12951.270000	0.000000	0.000000	0.000000	0.000000	-3.116286	-10.857722	-4.431410	-12.958855	-0.000000	-0.000000	0.000000	0.000000	-1.571780	0.610400	0.289940	0.015381	0.986875	0.035522	-1.000000	-1.000000	-1.000000	-1.000000	-1.000000	-1.000000	-1.000000	146.827586	0.000000	-1.000000	-1.000000	384056.000000	1772311426.941214
-16848.540000	-19669.365000	-21027.915000	-12949.155000	0.000000	0.000000	0.000000	0.000000	-9.888557	-15.319704	-12.595700	-22.329684	-0.000000	-0.000000	0.000000	0.000000	-1.571780	0.610400	0.289940	0.015381	0.986875	0.035522	-1.000000	-1.000000	-1.000000	-1.000000	-1.000000	-1.000000	-1.000000	146.827586	0.000000	-1.000000	-1.000000	384057.000000	1772311426.941217
-16848.000000	-19693.620000	-21024.765000	-12946.815000	0.000000	0.000000	0.000000	0.000000	-10.254018	-9.134342	-14.012185	-21.399503	-0.000000	-0.000000	0.000000	0.000000	-1.571780	0.610400	0.289940	0.015381	0.986875	0.035522	-1.000000	-1.000000	-1.000000	-1.000000	-1.000000	-1.000000	-1.000000	146.827586	0.000000	-1.000000	-1.000000	384058.000000	1772311426.945230
-16863.255000	-19674.495000	-21026.565000	-12948.795000	0.000000	0.000000	0.000000	0.000000	-5.266521	0.817080	-8.967149	-12.829390	-0.000000	-0.000000	0.000000	0.000000	-1.571780	0.610400	0.289940	0.015381	0.986875	0.035522	-1.000000	-1.000000	-1.000000	-1.000000	-1.000000	-1.000000	-1.000000	146.827586	0.000000	-1.000000	-1.000000	384059.000000	1772311426.945233
-16857.180000	-19667.430000	-21023.415000	-12945.915000	0.000000	0.000000	0.000000	0.000000	0.329002	8.521580	-1.232418	-1.988099	-0.000000	-0.000000	0.000000	0.000000	1.281840	-0.030520	1.526000	0.013000	0.983152	0.044128	-1.000000	-1.000000	-1.000000	-1.000000	-1.000000	-1.000000	-1.000000	146.827586	0.000000	-1.000000	-1.000000	384060.000000	1772311426.949340
-16854.435000	-19651.545000	-21024.270000	-12944.790000	0.000000	0.000000	0.000000	0.000000	3.443865	12.712484	5.049117	6.435324	-0.000000	-0.000000	0.000000	0.000000	1.281840	-0.030520	1.526000	0.013000	0.983152	0.044128	-1.000000	-1.000000	-1.000000	-1.000000	-1.000000	-1.000000	-1.000000	146.827586	0.000000	-1.000000	-1.000000	384061.000000	1772311426.949343
-16863.525000	-19608.930000	-21034.395000	-12955.410000	0.000000	0.000000	0.000000	0.000000	4.147521	14.062179	7.481812	10.069545	-0.000000	-0.000000	0.000000	0.000000	1.281840	-0.030520	1.526000	0.013000	0.983152	0.044128	-1.000000	-1.000000	-1.000000	-1.000000	-1.000000	-1.000000	-1.000000	146.827586	0.000000	-1.000000	-1.000000	384062.000000	1772311426.953278
-16864.245000	-19584.180000	-21033.225000	-12956.715000	0.000000	0.000000	0.000000	0.000000	3.194608	13.703317	5.818031	8.726973	-0.000000	-0.000000	0.000000	0.000000	1.281840	-0.030520	1.526000	0.013000	0.983152	0.044128	-1.000000	-1.000000	-1.000000	-1.000000	-1.000000	-1.000000	-1.000000	146.827586	0.000000	-1.000000	-1.000000	384063.000000	1772311426.953280
-16861.095000	-19564.650000	-21029.355000	-12955.545000	0.000000	0.000000	0.000000	0.000000	1.430717	11.521102	2.053640	4.359374	-0.000000	-0.000000	0.000000	0.000000	1.281840	-0.030520	1.526000	0.013000	0.983152	0.044128	-1.000000	-1.000000	-1.000000	-1.000000	-1.000000	-1.000000	-1.000000	146.827586	0.000000	-1.000000	-1.000000	384064.000000	1772311426.957317
-16865.100000	-19538.415000	-21034.620000	-12961.665000	0.000000	0.000000	0.000000	0.000000	0.073711	6.111595	-0.995418	0.009640	-0.000000	-0.000000	0.000000	0.000000	1.281840	-0.030520	1.526000	0.013000	0.983152	0.044128	-1.000000	-1.000000	-1.000000	-1.000000	-1.000000	-1.000000	-1.000000	146.827586	0.000000	-1.000000	-1.000000	384065.000000	1772311426.957320
-16875.900000	-19509.570000	-21046.230000	-12972.555000	0.000000	0.000000	0.000000	0.000000	-0.528182	-2.129332	-2.293532	-2.588594	-0.000000	-0.000000	0.000000	0.000000	1.281840	-0.030520	1.526000	0.013000	0.983152	0.044128	-1.000000	-1.000000	-1.000000	-1.000000	-1.000000	-1.000000	-1.000000	146.827586	0.000000	-1.000000	-1.000000	384066.000000	1772311426.961357
-16871.040000	-19475.820000	-21042.810000	-12969.855000	0.000000	0.000000	0.000000	0.000000	-0.926504	-10.081295	-2.563066	-3.440891	-0.000000	-0.000000	0.000000	0.000000	1.281840	-0.030520	1.526000	0.013000	0.983152	0.044128	-1.000000	-1.000000	-1.000000	-1.000000	-1.000000	-1.000000	-1.000000	146.827586	0.000000	-1.000000	-1.000000	384067.000000	1772311426.961360
-16861.725000	-19455.795000	-21031.380000	-12956.895000	0.000000	0.000000	0.000000	0.000000	-0.852193	-14.609169	-1.899538	-2.474882	-0.000000	-0.000000	0.000000	0.000000	1.281840	-0.030520	1.526000	0.013000	0.983152	0.044128	-1.000000	-1.000000	-1.000000	-1.000000	-1.000000	-1.000000	-1.000000	146.827586	0.000000	-1.000000	-1.000000	384068.000000	1772311426.965284
-16867.305000	-19464.480000	-21033.495000	-12956.670000	0.000000	0.000000	0.000000	0.000000	0.409188	-15.624831	0.263464	0.534267	-0.000000	-0.000000	0.000000	0.000000	1.281840	-0.030520	1.526000	0.013000	0.983152	0.044128	-1.000000	-1.000000	-1.000000	-1.000000	-1.000000	-1.000000	-1.000000	146.827586	0.000000	-1.000000	-1.000000	384069.000000	1772311426.965287
-16861.365000	-19485.405000	-21026.790000	-12947.310000	0.000000	0.000000	0.000000	0.000000	2.171364	-16.102622	3.130091	4.318249	-0.000000	-0.000000	0.000000	0.000000	4.684820	-0.228900	1.556520	0.012756	0.978757	0.049560	-1.000000	-1.000000	-1.000000	-1.000000	-1.000000	-1.000000	-1.000000	146.827586	0.000000	-1.000000	-1.000000	384070.000000	1772311426.973497
-16851.645000	-19511.055000	-21019.275000	-12932.100000	0.000000	0.000000	0.000000	0.000000	3.200807	-18.335570	4.974707	6.824332	-0.000000	-0.000000	0.000000	0.000000	4.684820	-0.228900	1.556520	0.012756	0.978757	0.049560	-1.000000	-1.000000	-1.000000	-1.000000	-1.000000	-1.000000	-1.000000	146.827586	0.000000	-1.000000	-1.000000	384071.000000	1772311426.973500
-16865.415000	-19516.635000	-21033.450000	-12944.565000	0.000000	0.000000	0.000000	0.000000	2.952608	-20.499845	4.613882	6.728644	-0.000000	-0.000000	0.000000	0.000000	4.684820	-0.228900	1.556520	0.012756	0.978757	0.049560	-1.000000	-1.000000	-1.000000	-1.000000	-1.000000	-1.000000	-1.000000	146.827586	0.000000	-1.000000	-1.000000	384072.000000	1772311426.973504
-16886.970000	-19500.120000	-21056.580000	-12968.415000	0.000000	0.000000	0.000000	0.000000	0.604809	-17.425422	1.174183	2.882229	-0.000000	-0.000000	0.000000	0.000000	4.684820	-0.228900	1.556520	0.012756	0.978757	0.049560	-1.000000	-1.000000	-1.000000	-1.000000	-1.000000	-1.000000	-1.000000	146.827586	0.000000	-1.000000	-1.000000	384073.000000	1772311426.973507
-16878.870000	-19503.135000	-21054.015000	-12980.070000	0.000000	0.000000	0.000000	0.000000	-3.869117	-5.757350	-4.803468	-4.746069	-0.000000	-0.000000	0.000000	0.000000	4.684820	-0.228900	1.556520	0.012756	0.978757	0.049560	-1.000000	-1.000000	-1.000000	-1.000000	-1.000000	-1.000000	-1.000000	146.827586	0.000000	-1.000000	-1.000000	384074.000000	1772311426.977304
-16848.315000	-19502.730000	-21030.345000	-12970.125000	0.000000	0.000000	0.000000	0.000000	-6.974742	11.127200	-9.272078	-12.427973	-0.000000	-0.000000	0.000000	0.000000	4.684820	-0.228900	1.556520	0.012756	0.978757	0.049560	-1.000000	-1.000000	-1.000000	-1.000000	-1.000000	-1.000000	-1.000000	146.827586	0.000000	-1.000000	-1.000000	384075.000000	1772311426.977307
-16847.820000	-19501.245000	-21026.790000	-12960.405000	0.000000	0.000000	0.000000	0.000000	-4.519892	25.127668	-7.542556	-14.243248	-0.000000	-0.000000	0.000000	0.000000	4.684820	-0.228900	1.556520	0.012756	0.978757	0.049560	-1.000000	-1.000000	-1.000000	-1.000000	-1.000000	-1.000000	-1.000000	146.827586	0.000000	-1.000000	-1.000000	384076.000000	1772311426.981335
-16854.120000	-19478.745000	-21029.805000	-12957.075000	0.000000	0.000000	0.000000	0.000000	2.127397	30.446716	-0.242333	-7.835237	-0.000000	-0.000000	0.000000	0.000000	4.684820	-0.228900	1.556520	0.012756	0.978757	0.049560	-1.000000	-1.000000	-1.000000	-1.000000	-1.000000	-1.000000	-1.000000	146.827586	0.000000	-1.000000	-1.000000	384077.000000	1772311426.981338
-16843.590000	-19476.540000	-21018.645000	-12947.490000	0.000000	0.000000	0.000000	0.000000	7.155566	26.896739	7.064314	3.050073	-0.000000	-0.000000	0.000000	0.000000	4.684820	-0.228900	1.556520	0.012756	0.978757	0.049560	-1.000000	-1.000000	-1.000000	-1.000000	-1.000000	-1.000000	-1.000000	146.827586	0.000000	-1.000000	-1.000000	384078.000000	1772311426.985526
-16853.490000	-19484.730000	-21026.790000	-12954.825000	0.000000	0.000000	0.000000	0.000000	7.017551	17.094981	9.770427	11.929009	-0.000000	-0.000000	0.000000	0.000000	4.684820	-0.228900	1.556520	0.012756	0.978757	0.049560	-1.000000	-1.000000	-1.000000	-1.000000	-1.000000	-1.000000	-1.000000	146.827586	0.000000	-1.000000	-1.000000	384079.000000	1772311426.985528
-16882.875000	-19484.100000	-21058.920000	-12979.530000	0.000000	0.000000	0.000000	0.000000	1.934910	3.885978	6.418155	13.696838	-0.000000	-0.000000	0.000000	0.000000	7.980980	-0.961380	1.663340	0.013000	0.977231	0.050964	-1.000000	-1.000000	-1.000000	-1.000000	-1.000000	-1.000000	-1.000000	146.827586	0.000000	-1.000000	-1.000000	384080.000000	1772311426.989414
-16882.965000	-19502.550000	-21051.270000	-12970.440000	0.000000	0.000000	0.000000	0.000000	-5.847919	-9.261163	-1.616830	7.539014	-0.000000	-0.000000	0.000000	0.000000	7.980980	-0.961380	1.663340	0.013000	0.977231	0.050964	-1.000000	-1.000000	-1.000000	-1.000000	-1.000000	-1.000000	-1.000000	146.827586	0.000000	-1.000000	-1.000000	384081.000000	1772311426.989417
-16862.175000	-19496.385000	-21024.720000	-12952.305000	0.000000	0.000000	0.000000	0.000000	-11.488013	-18.488055	-8.842720	-1.405330	-0.000000	-0.000000	0.000000	0.000000	7.980980	-0.961380	1.663340	0.013000	0.977231	0.050964	-1.000000	-1.000000	-1.000000	-1.000000	-1.000000	-1.000000	-1.000000	146.827586	0.000000	-1.000000	-1.000000	384082.000000	1772311426.993872
-16853.355000	-19493.460000	-21014.730000	-12948.120000	0.000000	0.000000	0.000000	0.000000	-9.795171	-20.705556	-8.844678	-6.103454	-0.000000	-0.000000	0.000000	0.000000	7.980980	-0.961380	1.663340	0.013000	0.977231	0.050964	-1.000000	-1.000000	-1.000000	-1.000000	-1.000000	-1.000000	-1.000000	146.827586	0.000000	-1.000000	-1.000000	384083.000000	1772311426.993875
-16859.070000	-19525.095000	-21019.680000	-12949.740000	0.000000	0.000000	0.000000	0.000000	-1.152991	-15.821163	-1.600764	-4.632270	-0.000000	-0.000000	0.000000	0.000000	7.980980	-0.961380	1.663340	0.013000	0.977231	0.050964	-1.000000	-1.000000	-1.000000	-1.000000	-1.000000	-1.000000	-1.000000	146.827586	0.000000	-1.000000	-1.000000	384084.000000	1772311426.997410
-16857.540000	-19549.890000	-21034.395000	-12939.930000	0.000000	0.000000	0.000000	0.000000	8.058682	-8.235003	5.978044	-0.530435	-0.000000	-0.000000	0.000000	0.000000	7.980980	-0.961380	1.663340	0.013000	0.977231	0.050964	-1.000000	-1.000000	-1.000000	-1.000000	-1.000000	-1.000000	-1.000000	146.827586	0.000000	-1.000000	-1.000000	384085.000000	1772311426.997413
-16832.520000	-19568.970000	-21004.245000	-12897.405000	0.000000	0.000000	0.000000	0.000000	12.323686	-2.795449	8.029429	3.088262	-0.000000	-0.000000	0.000000	0.000000	7.980980	-0.961380	1.663340	0.013000	0.977231	0.050964	-1.000000	-1.000000	-1.000000	-1.000000	-1.000000	-1.000000	-1.000000	146.827586	0.000000	-1.000000	-1.000000	384086.000000	1772311427.001356
-16805.340000	-19585.530000	-20970.360000	-12862.305000	0.000000	0.000000	0.000000	0.000000	11.770220	-0.160349	5.962410	6.496239	-0.000000	-0.000000	0.000000	0.000000	7.980980	-0.961380	1.663340	0.013000	0.977231	0.050964	-1.000000	-1.000000	-1.000000	-1.000000	-1.000000	-1.000000	-1.000000	146.827586	0.000000	-1.000000	-1.000000	384087.000000	1772311427.001359
-16830.945000	-19616.760000	-21003.615000	-12909.195000	0.000000	0.000000	0.000000	0.000000	8.616111	1.634902	3.790015	8.696304	-0.000000	-0.000000	0.000000	0.000000	7.980980	-0.961380	1.663340	0.013000	0.977231	0.050964	-1.000000	-1.000000	-1.000000	-1.000000	-1.000000	-1.000000	-1.000000	146.827586	0.000000	-1.000000	-1.000000	384088.000000	1772311427.005475
-16877.250000	-19642.995000	-21064.320000	-13013.055000	0.000000	0.000000	0.000000	0.000000	1.766301	3.486134	-0.237802	2.958219	-0.000000	-0.000000	0.000000	0.000000	7.980980	-0.961380	1.663340	0.013000	0.977231	0.050964	-1.000000	-1.000000	-1.000000	-1.000000	-1.000000	-1.000000	-1.000000	146.827586	0.000000	-1.000000	-1.000000	384089.000000	1772311427.005478
-16866.045000	-19655.595000	-21047.580000	-12998.565000	0.000000	0.000000	0.000000	0.000000	-9.650850	5.181094	-9.288331	-14.333680	-0.000000	-0.000000	0.000000	0.000000	8.957620	-1.449700	0.610400	0.015747	0.979307	0.048157	-1.000000	-1.000000	-1.000000	-1.000000	-1.000000	-1.000000	-1.000000	146.827586	0.000000	-1.000000	-1.000000	384090.000000	1772311427.012532
-16820.370000	-19625.580000	-20999.970000	-12947.580000	0.000000	0.000000	0.000000	0.000000	-18.941087	7.787065	-17.250704	-30.943600	-0.000000	-0.000000	0.000000	0.000000	8.957620	-1.449700	0.610400	0.015747	0.979307	0.048157	-1.000000	-1.000000	-1.000000	-1.000000	-1.000000	-1.000000	-1.000000	146.827586	0.000000	-1.000000	-1.000000	384091.000000	1772311427.012536
-16793.730000	-19610.505000	-20980.440000	-12928.005000	0.000000	0.000000	0.000000	0.000000	-16.378614	13.200411	-13.575869	-28.399475	-0.000000	-0.000000	0.000000	0.000000	8.957620	-1.449700	0.610400	0.015747	0.979307	0.048157	-1.000000	-1.000000	-1.000000	-1.000000	-1.000000	-1.000000	-1.000000	146.827586	0.000000	-1.000000	-1.000000	384092.000000	1772311427.013742
-16833.645000	-19630.170000	-21014.505000	-12950.730000	0.000000	0.000000	0.000000	0.000000	-2.548938	19.490242	1.174556	-5.199786	-0.000000	-0.000000	0.000000	0.000000	8.957620	-1.449700	0.610400	0.015747	0.979307	0.048157	-1.000000	-1.000000	-1.000000	-1.000000	-1.000000	-1.000000	-1.000000	146.827586	0.000000	-1.000000	-1.000000	384093.000000	1772311427.013746
-16835.265000	-19638.990000	-21009.690000	-12945.465000	0.000000	0.000000	0.000000	0.000000	10.256827	20.096068	14.394807	21.160647	-0.000000	-0.000000	0.000000	0.000000	8.957620	-1.449700	0.610400	0.015747	0.979307	0.048157	-1.000000	-1.000000	-1.000000	-1.000000	-1.000000	-1.000000	-1.000000	146.827586	0.000000	-1.000000	-1.000000	384094.000000	1772311427.017425
-16875.945000	-19638.540000	-21050.145000	-12987.945000	0.000000	0.000000	0.000000	0.000000	11.683539	11.274925	15.802430	32.936624	-0.000000	-0.000000	0.000000	0.000000	8.957620	-1.449700	0.610400	0.015747	0.979307	0.048157	-1.000000	-1.000000	-1.000000	-1.000000	-1.000000	-1.000000	-1.000000	146.827586	0.000000	-1.000000	-1.000000	384095.000000	1772311427.017431
-16899.795000	-19649.340000	-21075.120000	-13007.925000	0.000000	0.000000	0.000000	0.000000	2.077484	-3.075285	5.437967	24.998544	-0.000000	-0.000000	0.000000	0.000000	8.957620	-1.449700	0.610400	0.015747	0.979307	0.048157	-1.000000	-1.000000	-1.000000	-1.000000	-1.000000	-1.000000	-1.000000	146.827586	0.000000	-1.000000	-1.000000	384096.000000	1772311427.021532
-16878.240000	-19650.555000	-21049.830000	-12985.065000	0.000000	0.000000	0.000000	0.000000	-9.857385	-15.636648	-8.395773	5.566194	-0.000000	-0.000000	0.000000	0.000000	8.957620	-1.449700	0.610400	0.015747	0.979307	0.048157	-1.000000	-1.000000	-1.000000	-1.000000	-1.000000	-1.000000	-1.000000	146.827586	0.000000	-1.000000	-1.000000	384097.000000	1772311427.021538
-16856.595000	-19649.520000	-21026.520000	-12954.420000	0.000000	0.000000	0.000000	0.000000	-13.266530	-21.135344	-14.317808	-10.056572	-0.000000	-0.000000	0.000000	0.000000	8.957620	-1.449700	0.610400	0.015747	0.979307	0.048157	-1.000000	-1.000000	-1.000000	-1.000000	-1.000000	-1.000000	-1.000000	146.827586	0.000000	-1.000000	-1.000000	384098.000000	1772311427.025713
-16861.320000	-19642.950000	-21031.920000	-12941.865000	0.000000	0.000000	0.000000	0.000000	-4.169318	-18.220904	-7.276645	-11.684156	-0.000000	-0.000000	0.000000	0.000000	8.957620	-1.449700	0.610400	0.015747	0.979307	0.048157	-1.000000	-1.000000	-1.000000	-1.000000	-1.000000	-1.000000	-1.000000	146.827586	0.000000	-1.000000	-1.000000	384099.000000	1772311427.025719
-16859.970000	-19627.605000	-21032.010000	-12938.535000	0.000000	0.000000	0.000000	0.000000	10.340888	-9.090711	6.209010	-2.196197	-0.000000	-0.000000	0.000000	0.000000	7.996240	-2.441600	1.327620	0.013061	0.980588	0.043091	-1.000000	-1.000000	-1.000000	-1.000000	-1.000000	-1.000000	-1.000000	146.827586	0.000000	-1.000000	-1.000000	384100.000000	1772311427.029509
-16846.425000	-19628.595000	-21018.465000	-12929.580000	0.000000	0.000000	0.000000	0.000000	19.800165	1.849638	15.653544	7.716719	-0.000000	-0.000000	0.000000	0.000000	7.996240	-2.441600	1.327620	0.013061	0.980588	0.043091	-1.000000	-1.000000	-1.000000	-1.000000	-1.000000	-1.000000	-1.000000	146.827586	0.000000	-1.000000	-1.000000	384101.000000	1772311427.029514
-16814.970000	-19646.235000	-20990.925000	-12912.480000	0.000000	0.000000	0.000000	0.000000	20.084312	9.257306	16.698975	10.402822	-0.000000	-0.000000	0.000000	0.000000	7.996240	-2.441600	1.327620	0.013061	0.980588	0.043091	-1.000000	-1.000000	-1.000000	-1.000000	-1.000000	-1.000000	-1.000000	146.827586	0.000000	-1.000000	-1.000000	384102.000000	1772311427.033515
-16794.585000	-19643.445000	-20974.590000	-12905.010000	0.000000	0.000000	0.000000	0.000000	14.152885	9.509370	11.916421	5.746106	-0.000000	-0.000000	0.000000	0.000000	7.996240	-2.441600	1.327620	0.013061	0.980588	0.043091	-1.000000	-1.000000	-1.000000	-1.000000	-1.000000	-1.000000	-1.000000	146.827586	0.000000	-1.000000	-1.000000	384103.000000	1772311427.033519
-16838.145000	-19652.715000	-21018.060000	-12942.180000	0.000000	0.000000	0.000000	0.000000	5.245372	3.821006	4.193198	-2.903500	-0.000000	-0.000000	0.000000	0.000000	7.996240	-2.441600	1.327620	0.013061	0.980588	0.043091	-1.000000	-1.000000	-1.000000	-1.000000	-1.000000	-1.000000	-1.000000	146.827586	0.000000	-1.000000	-1.000000	384104.000000	1772311427.037527
-16881.795000	-19656.045000	-21058.380000	-12971.340000	0.000000	0.000000	0.000000	0.000000	-7.304400	-3.106786	-7.062119	-13.284835	-0.000000	-0.000000	0.000000	0.000000	7.996240	-2.441600	1.327620	0.013061	0.980588	0.043091	-1.000000	-1.000000	-1.000000	-1.000000	-1.000000	-1.000000	-1.000000	147.103448	0.000000	-1.000000	-1.000000	384105.000000	1772311427.037531
-16851.465000	-19639.845000	-21028.275000	-12948.615000	0.000000	0.000000	0.000000	0.000000	-21.922464	-6.836216	-20.087419	-21.980993	-0.000000	-0.000000	0.000000	0.000000	7.996240	-2.441600	1.327620	0.013061	0.980588	0.043091	-1.000000	-1.000000	-1.000000	-1.000000	-1.000000	-1.000000	-1.000000	147.103448	0.000000	-1.000000	-1.000000	384106.000000	1772311427.041517
-16877.790000	-19646.730000	-21070.125000	-13004.280000	0.000000	0.000000	0.000000	0.000000	-30.212028	-5.393137	-27.168620	-23.567578	-0.000000	-0.000000	0.000000	0.000000	7.996240	-2.441600	1.327620	0.013061	0.980588	0.043091	-1.000000	-1.000000	-1.000000	-1.000000	-1.000000	-1.000000	-1.000000	147.103448	0.000000	-1.000000	-1.000000	384107.000000	1772311427.041521
-16877.295000	-19659.465000	-21074.355000	-13014.405000	0.000000	0.000000	0.000000	0.000000	-25.795933	-0.778355	-23.254995	-16.954200	-0.000000	-0.000000	0.000000	0.000000	7.996240	-2.441600	1.327620	0.013061	0.980588	0.043091	-1.000000	-1.000000	-1.000000	-1.000000	-1.000000	-1.000000	-1.000000	147.103448	0.000000	-1.000000	-1.000000	384108.000000	1772311427.045539
-16852.590000	-19656.765000	-21044.250000	-12974.895000	0.000000	0.000000	0.000000	0.000000	-10.793811	2.809593	-10.312825	-5.042654	-0.000000	-0.000000	0.000000	0.000000	7.996240	-2.441600	1.327620	0.013061	0.980588	0.043091	-1.000000	-1.000000	-1.000000	-1.000000	-1.000000	-1.000000	-1.000000	147.103448	0.000000	-1.000000	-1.000000	384109.000000	1772311427.045542
-16841.070000	-19656.045000	-21035.565000	-12956.580000	0.000000	0.000000	0.000000	0.000000	8.382487	3.544168	7.314100	10.615920	-0.000000	-0.000000	0.000000	0.000000	5.981920	-2.807840	0.854560	0.014587	0.984556	0.038696	-1.000000	-1.000000	-1.000000	-1.000000	-1.000000	-1.000000	-1.000000	147.103448	0.000000	-1.000000	-1.000000	384110.000000	1772311427.049505
-16825.140000	-19628.730000	-21018.105000	-12962.790000	0.000000	0.000000	0.000000	0.000000	24.410569	3.135578	23.703395	26.284571	-0.000000	-0.000000	0.000000	0.000000	5.981920	-2.807840	0.854560	0.014587	0.984556	0.038696	-1.000000	-1.000000	-1.000000	-1.000000	-1.000000	-1.000000	-1.000000	147.103448	0.000000	-1.000000	-1.000000	384111.000000	1772311427.049508
-16800.930000	-19617.390000	-20986.200000	-12949.920000	0.000000	0.000000	0.000000	0.000000	31.283678	4.060957	32.386647	33.977469	-0.000000	-0.000000	0.000000	0.000000	5.981920	-2.807840	0.854560	0.014587	0.984556	0.038696	-1.000000	-1.000000	-1.000000	-1.000000	-1.000000	-1.000000	-1.000000	147.103448	0.000000	-1.000000	-1.000000	384112.000000	1772311427.053469
-16787.835000	-19618.020000	-20969.865000	-12922.920000	0.000000	0.000000	0.000000	0.000000	27.404529	6.108390	30.600887	29.278975	-0.000000	-0.000000	0.000000	0.000000	5.981920	-2.807840	0.854560	0.014587	0.984556	0.038696	-1.000000	-1.000000	-1.000000	-1.000000	-1.000000	-1.000000	-1.000000	147.103448	0.000000	-1.000000	-1.000000	384113.000000	1772311427.053471
-16865.775000	-19605.600000	-21046.635000	-12971.565000	0.000000	0.000000	0.000000	0.000000	13.821241	6.375802	18.173519	14.724841	-0.000000	-0.000000	0.000000	0.000000	5.981920	-2.807840	0.854560	0.014587	0.984556	0.038696	-1.000000	-1.000000	-1.000000	-1.000000	-1.000000	-1.000000	-1.000000	147.103448	0.000000	-1.000000	-1.000000	384114.000000	1772311427.057619
-16920.720000	-19575.495000	-21094.515000	-12996.630000	0.000000	0.000000	0.000000	0.000000	-8.382758	3.672901	-4.654654	-5.286021	-0.000000	-0.000000	0.000000	0.000000	5.981920	-2.807840	0.854560	0.014587	0.984556	0.038696	-1.000000	-1.000000	-1.000000	-1.000000	-1.000000	-1.000000	-1.000000	147.103448	0.000000	-1.000000	-1.000000	384115.000000	1772311427.057622
-16893.855000	-19573.965000	-21069.540000	-12964.995000	0.000000	0.000000	0.000000	0.000000	-32.280913	-0.028635	-30.771768	-24.317448	-0.000000	-0.000000	0.000000	0.000000	5.981920	-2.807840	0.854560	0.014587	0.984556	0.038696	-1.000000	-1.000000	-1.000000	-1.000000	-1.000000	-1.000000	-1.000000	147.103448	0.000000	-1.000000	-1.000000	384116.000000	1772311427.061621
-16882.920000	-19608.390000	-21051.450000	-12935.880000	0.000000	0.000000	0.000000	0.000000	-42.752568	-3.981677	-44.077049	-32.039216	-0.000000	-0.000000	0.000000	0.000000	5.981920	-2.807840	0.854560	0.014587	0.984556	0.038696	-1.000000	-1.000000	-1.000000	-1.000000	-1.000000	-1.000000	-1.000000	147.103448	0.000000	-1.000000	-1.000000	384117.000000	1772311427.061624
-16867.440000	-19634.130000	-21040.245000	-12940.605000	0.000000	0.000000	0.000000	0.000000	-30.175433	-10.079503	-33.865690	-23.126946	-0.000000	-0.000000	0.000000	0.000000	5.981920	-2.807840	0.854560	0.014587	0.984556	0.038696	-1.000000	-1.000000	-1.000000	-1.000000	-1.000000	-1.000000	-1.000000	147.103448	0.000000	-1.000000	-1.000000	384118.000000	1772311427.065562
-16861.995000	-19614.015000	-21042.090000	-12971.700000	0.000000	0.000000	0.000000	0.000000	-1.532387	-17.162576	-6.657867	-5.326428	-0.000000	-0.000000	0.000000	0.000000	5.981920	-2.807840	0.854560	0.014587	0.984556	0.038696	-1.000000	-1.000000	-1.000000	-1.000000	-1.000000	-1.000000	-1.000000	147.103448	0.000000	-1.000000	-1.000000	384119.000000	1772311427.065565
-16869.735000	-19596.375000	-21042.495000	-12960.630000	0.000000	0.000000	0.000000	0.000000	25.952574	-18.587926	20.326780	8.106360	-0.000000	-0.000000	0.000000	0.000000	2.197440	-1.983800	1.556520	0.017883	0.987363	0.030517	-1.000000	-1.000000	-1.000000	-1.000000	-1.000000	-1.000000	-1.000000	147.103448	0.000000	-1.000000	-1.000000	384120.000000	1772311427.069545
-16885.665000	-19581.795000	-21056.535000	-12965.220000	0.000000	0.000000	0.000000	0.000000	37.728903	-9.616670	33.038924	11.484961	-0.000000	-0.000000	0.000000	0.000000	2.197440	-1.983800	1.556520	0.017883	0.987363	0.030517	-1.000000	-1.000000	-1.000000	-1.000000	-1.000000	-1.000000	-1.000000	147.103448	0.000000	-1.000000	-1.000000	384121.000000	1772311427.069548
-16871.490000	-19583.505000	-21060.045000	-12964.005000	0.000000	0.000000	0.000000	0.000000	30.496878	5.812474	28.144785	8.175770	-0.000000	-0.000000	0.000000	0.000000	2.197440	-1.983800	1.556520	0.017883	0.987363	0.030517	-1.000000	-1.000000	-1.000000	-1.000000	-1.000000	-1.000000	-1.000000	147.103448	0.000000	-1.000000	-1.000000	384122.000000	1772311427.075488
-16792.920000	-19595.880000	-21000.600000	-12939.210000	0.000000	0.000000	0.000000	0.000000	13.809534	18.002895	13.267436	3.959570	-0.000000	-0.000000	0.000000	0.000000	2.197440	-1.983800	1.556520	0.017883	0.987363	0.030517	-1.000000	-1.000000	-1.000000	-1.000000	-1.000000	-1.000000	-1.000000	147.103448	0.000000	-1.000000	-1.000000	384123.000000	1772311427.075491
-16748.055000	-19606.140000	-20984.355000	-12970.440000	0.000000	0.000000	0.000000	0.000000	2.097742	19.603204	0.834075	2.060654	-0.000000	-0.000000	0.000000	0.000000	2.197440	-1.983800	1.556520	0.017883	0.987363	0.030517	-1.000000	-1.000000	-1.000000	-1.000000	-1.000000	-1.000000	-1.000000	147.103448	0.000000	-1.000000	-1.000000	384124.000000	1772311427.077513
-16727.085000	-19610.460000	-20964.555000	-12930.390000	0.000000	0.000000	0.000000	0.000000	0.860639	10.926253	-2.926857	1.899697	-0.000000	-0.000000	0.000000	0.000000	2.197440	-1.983800	1.556520	0.017883	0.987363	0.030517	-1.000000	-1.000000	-1.000000	-1.000000	-1.000000	-1.000000	-1.000000	147.103448	0.000000	-1.000000	-1.000000	384125.000000	1772311427.077515
-16756.695000	-19591.650000	-20976.030000	-12899.160000	0.000000	0.000000	0.000000	0.000000	2.148930	-0.948344	-2.076340	2.955435	-0.000000	-0.000000	0.000000	0.000000	2.197440	-1.983800	1.556520	0.017883	0.987363	0.030517	-1.000000	-1.000000	-1.000000	-1.000000	-1.000000	-1.000000	-1.000000	147.103448	0.000000	-1.000000	-1.000000	384126.000000	1772311427.081631
-16821.540000	-19566.720000	-21018.780000	-12931.965000	0.000000	0.000000	0.000000	0.000000	-5.663454	-7.601639	-4.473102	5.040860	-0.000000	-0.000000	0.000000	0.000000	2.197440	-1.983800	1.556520	0.017883	0.987363	0.030517	-1.000000	-1.000000	-1.000000	-1.000000	-1.000000	-1.000000	-1.000000	147.103448	0.000000	-1.000000	-1.000000	384127.000000	1772311427.081633
-16923.960000	-19593.270000	-21103.245000	-13020.840000	0.000000	0.000000	0.000000	0.000000	-26.350276	-6.156010	-14.853299	2.863614	-0.000000	-0.000000	0.000000	0.000000	2.197440	-1.983800	1.556520	0.017883	0.987363	0.030517	-1.000000	-1.000000	-1.000000	-1.000000	-1.000000	-1.000000	-1.000000	147.103448	0.000000	-1.000000	-1.000000	384128.000000	1772311427.085722
-16937.550000	-19626.030000	-21112.695000	-13032.990000	0.000000	0.000000	0.000000	0.000000	-50.693791	-2.093244	-30.168653	-8.860934	-0.000000	-0.000000	0.000000	0.000000	2.197440	-1.983800	1.556520	0.017883	0.987363	0.030517	-1.000000	-1.000000	-1.000000	-1.000000	-1.000000	-1.000000	-1.000000	147.103448	0.000000	-1.000000	-1.000000	384129.000000	1772311427.085725
-16900.830000	-19630.440000	-21093.210000	-13010.355000	0.000000	0.000000	0.000000	0.000000	-59.349469	-2.253336	-38.160445	-23.235683	-0.000000	-0.000000	0.000000	0.000000	1.312360	-0.640920	0.366240	0.021057	0.984617	0.031555	-1.000000	-1.000000	-1.000000	-1.000000	-1.000000	-1.000000	-1.000000	147.103448	0.000000	-1.000000	-1.000000	384130.000000	1772311427.090068
-16888.005000	-19639.260000	-21085.380000	-13009.320000	0.000000	0.000000	0.000000	0.000000	-37.743043	-6.257313	-26.877715	-25.546191	-0.000000	-0.000000	0.000000	0.000000	1.312360	-0.640920	0.366240	0.021057	0.984617	0.031555	-1.000000	-1.000000	-1.000000	-1.000000	-1.000000	-1.000000	-1.000000	147.103448	0.000000	-1.000000	-1.000000	384131.000000	1772311427.090072
-16863.525000	-19622.115000	-21062.115000	-13002.075000	0.000000	0.000000	0.000000	0.000000	7.804294	-8.162625	2.049963	-10.629712	-0.000000	-0.000000	0.000000	0.000000	1.312360	-0.640920	0.366240	0.021057	0.984617	0.031555	-1.000000	-1.000000	-1.000000	-1.000000	-1.000000	-1.000000	-1.000000	147.103448	0.000000	-1.000000	-1.000000	384132.000000	1772311427.093684
-16833.105000	-19611.270000	-21024.180000	-12972.105000	0.000000	0.000000	0.000000	0.000000	53.851934	-3.638884	34.350636	12.720011	-0.000000	-0.000000	0.000000	0.000000	1.312360	-0.640920	0.366240	0.021057	0.984617	0.031555	-1.000000	-1.000000	-1.000000	-1.000000	-1.000000	-1.000000	-1.000000	147.103448	0.000000	-1.000000	-1.000000	384133.000000	1772311427.093687
-16836.795000	-19608.930000	-21025.530000	-12949.515000	0.000000	0.000000	0.000000	0.000000	77.791566	5.894072	54.364490	31.985562	-0.000000	-0.000000	0.000000	0.000000	1.312360	-0.640920	0.366240	0.021057	0.984617	0.031555	-1.000000	-1.000000	-1.000000	-1.000000	-1.000000	-1.000000	-1.000000	147.103448	0.000000	-1.000000	-1.000000	384134.000000	1772311427.097814
-16866.495000	-19611.855000	-21059.145000	-12949.380000	0.000000	0.000000	0.000000	0.000000	69.442058	14.280187	52.196179	38.614053	-0.000000	-0.000000	0.000000	0.000000	1.312360	-0.640920	0.366240	0.021057	0.984617	0.031555	-1.000000	-1.000000	-1.000000	-1.000000	-1.000000	-1.000000	-1.000000	147.103448	0.000000	-1.000000	-1.000000	384135.000000	1772311427.097817
-16904.070000	-19604.790000	-21083.445000	-12968.190000	0.000000	0.000000	0.000000	0.000000	33.366606	15.997118	27.404911	29.457691	-0.000000	-0.000000	0.000000	0.000000	1.312360	-0.640920	0.366240	0.021057	0.984617	0.031555	-1.000000	-1.000000	-1.000000	-1.000000	-1.000000	-1.000000	-1.000000	147.103448	0.000000	-1.000000	-1.000000	384136.000000	1772311427.101699
-16878.465000	-19600.470000	-21069.945000	-12972.780000	0.000000	0.000000	0.000000	0.000000	-12.810964	10.613527	-8.249506	7.781513	-0.000000	-0.000000	0.000000	0.000000	1.312360	-0.640920	0.366240	0.021057	0.984617	0.031555	-1.000000	-1.000000	-1.000000	-1.000000	-1.000000	-1.000000	-1.000000	147.103448	0.000000	-1.000000	-1.000000	384137.000000	1772311427.101702
-16851.375000	-19605.375000	-21061.800000	-12959.910000	0.000000	0.000000	0.000000	0.000000	-45.803103	1.763013	-35.914467	-16.407335	-0.000000	-0.000000	0.000000	0.000000	1.312360	-0.640920	0.366240	0.021057	0.984617	0.031555	-1.000000	-1.000000	-1.000000	-1.000000	-1.000000	-1.000000	-1.000000	147.103448	0.000000	-1.000000	-1.000000	384138.000000	1772311427.105668
-16818.615000	-19632.015000	-21000.870000	-12923.460000	0.000000	0.000000	0.000000	0.000000	-50.745301	-7.017256	-41.806893	-30.719291	-0.000000	-0.000000	0.000000	0.000000	1.312360	-0.640920	0.366240	0.021057	0.984617	0.031555	-1.000000	-1.000000	-1.000000	-1.000000	-1.000000	-1.000000	-1.000000	147.103448	0.000000	-1.000000	-1.000000	384139.000000	1772311427.105671
-16816.680000	-19645.155000	-20999.475000	-12931.965000	0.000000	0.000000	0.000000	0.000000	-31.054606	-14.020399	-25.659628	-28.880864	-0.000000	-0.000000	0.000000	0.000000	5.402040	-0.366240	-0.259420	0.021057	0.980893	0.038452	-1.000000	-1.000000	-1.000000	-1.000000	-1.000000	-1.000000	-1.000000	147.103448	0.000000	-1.000000	-1.000000	384140.000000	1772311427.109683
-16821.180000	-19636.740000	-21020.040000	-12947.445000	0.000000	0.000000	0.000000	0.000000	-3.918609	-17.309797	-0.996047	-16.054851	-0.000000	-0.000000	0.000000	0.000000	5.402040	-0.366240	-0.259420	0.021057	0.980893	0.038452	-1.000000	-1.000000	-1.000000	-1.000000	-1.000000	-1.000000	-1.000000	147.103448	0.000000	-1.000000	-1.000000	384141.000000	1772311427.109686
-16776.765000	-19654.155000	-20959.875000	-12874.680000	0.000000	0.000000	0.000000	0.000000	14.480832	-14.545916	15.825586	-1.938991	-0.000000	-0.000000	0.000000	0.000000	5.402040	-0.366240	-0.259420	0.021057	0.980893	0.038452	-1.000000	-1.000000	-1.000000	-1.000000	-1.000000	-1.000000	-1.000000	147.103448	0.000000	-1.000000	-1.000000	384142.000000	1772311427.113838
-16700.580000	-19646.280000	-20883.690000	-12807.405000	0.000000	0.000000	0.000000	0.000000	20.748296	-6.244308	20.757536	10.443752	-0.000000	-0.000000	0.000000	0.000000	5.402040	-0.366240	-0.259420	0.021057	0.980893	0.038452	-1.000000	-1.000000	-1.000000	-1.000000	-1.000000	-1.000000	-1.000000	147.103448	0.000000	-1.000000	-1.000000	384143.000000	1772311427.113841
-16749.540000	-19637.775000	-20906.730000	-12846.060000	0.000000	0.000000	0.000000	0.000000	19.442107	4.207129	19.238556	20.621614	-0.000000	-0.000000	0.000000	0.000000	5.402040	-0.366240	-0.259420	0.021057	0.980893	0.038452	-1.000000	-1.000000	-1.000000	-1.000000	-1.000000	-1.000000	-1.000000	147.103448	0.000000	-1.000000	-1.000000	384144.000000	1772311427.117420
-16930.440000	-19630.890000	-21069.270000	-12976.290000	0.000000	0.000000	0.000000	0.000000	7.855599	13.226870	9.354886	19.482247	-0.000000	-0.000000	0.000000	0.000000	5.402040	-0.366240	-0.259420	0.021057	0.980893	0.038452	-1.000000	-1.000000	-1.000000	-1.000000	-1.000000	-1.000000	-1.000000	147.103448	0.000000	-1.000000	-1.000000	384145.000000	1772311427.117423
-16974.990000	-19637.775000	-21136.230000	-13048.830000	0.000000	0.000000	0.000000	0.000000	-20.062331	17.669959	-16.346149	-2.675537	-0.000000	-0.000000	0.000000	0.000000	5.402040	-0.366240	-0.259420	0.021057	0.980893	0.038452	-1.000000	-1.000000	-1.000000	-1.000000	-1.000000	-1.000000	-1.000000	147.103448	0.000000	-1.000000	-1.000000	384146.000000	1772311427.122715
-16907.895000	-19636.830000	-21089.745000	-13021.245000	0.000000	0.000000	0.000000	0.000000	-50.735949	15.537331	-48.315932	-35.797277	-0.000000	-0.000000	0.000000	0.000000	5.402040	-0.366240	-0.259420	0.021057	0.980893	0.038452	-1.000000	-1.000000	-1.000000	-1.000000	-1.000000	-1.000000	-1.000000	147.103448	0.000000	-1.000000	-1.000000	384147.000000	1772311427.122719
-16870.140000	-19598.220000	-21050.865000	-12989.340000	0.000000	0.000000	0.000000	0.000000	-54.285828	8.530148	-58.472641	-51.891702	-0.000000	-0.000000	0.000000	0.000000	5.402040	-0.366240	-0.259420	0.021057	0.980893	0.038452	-1.000000	-1.000000	-1.000000	-1.000000	-1.000000	-1.000000	-1.000000	147.103448	0.000000	-1.000000	-1.000000	384148.000000	1772311427.125791
-16892.595000	-19557.270000	-21087.450000	-13023.765000	0.000000	0.000000	0.000000	0.000000	-19.958383	2.303594	-31.910548	-34.055043	-0.000000	-0.000000	0.000000	0.000000	5.402040	-0.366240	-0.259420	0.021057	0.980893	0.038452	-1.000000	-1.000000	-1.000000	-1.000000	-1.000000	-1.000000	-1.000000	147.103448	0.000000	-1.000000	-1.000000	384149.000000	1772311427.125794
-16904.295000	-19546.155000	-21104.775000	-13020.975000	0.000000	0.000000	0.000000	0.000000	29.226952	0.829265	14.103983	5.612978	-0.000000	-0.000000	0.000000	0.000000	5.814060	0.595140	0.167860	0.020386	0.983945	0.036255	-1.000000	-1.000000	-1.000000	-1.000000	-1.000000	-1.000000	-1.000000	147.103448	0.000000	-1.000000	-1.000000	384150.000000	1772311427.129820
-16902.270000	-19532.430000	-21093.840000	-13003.965000	0.000000	0.000000	0.000000	0.000000	61.295495	1.667349	49.951831	41.624978	-0.000000	-0.000000	0.000000	0.000000	5.814060	0.595140	0.167860	0.020386	0.983945	0.036255	-1.000000	-1.000000	-1.000000	-1.000000	-1.000000	-1.000000	-1.000000	147.103448	0.000000	-1.000000	-1.000000	384151.000000	1772311427.129823
-16885.845000	-19535.220000	-21075.480000	-12983.535000	0.000000	0.000000	0.000000	0.000000	62.559167	-0.397922	60.570179	57.926682	-0.000000	-0.000000	0.000000	0.000000	5.814060	0.595140	0.167860	0.020386	0.983945	0.036255	-1.000000	-1.000000	-1.000000	-1.000000	-1.000000	-1.000000	-1.000000	147.103448	0.000000	-1.000000	-1.000000	384152.000000	1772311427.133882
-16878.780000	-19548.720000	-21053.925000	-12965.400000	0.000000	0.000000	0.000000	0.000000	40.465737	-7.457649	49.473512	52.869253	-0.000000	-0.000000	0.000000	0.000000	5.814060	0.595140	0.167860	0.020386	0.983945	0.036255	-1.000000	-1.000000	-1.000000	-1.000000	-1.000000	-1.000000	-1.000000	147.103448	0.000000	-1.000000	-1.000000	384153.000000	1772311427.133885
-16858.485000	-19528.650000	-21033.000000	-12955.770000	0.000000	0.000000	0.000000	0.000000	10.938612	-16.551257	27.899115	33.023920	-0.000000	-0.000000	0.000000	0.000000	5.814060	0.595140	0.167860	0.020386	0.983945	0.036255	-1.000000	-1.000000	-1.000000	-1.000000	-1.000000	-1.000000	-1.000000	147.103448	0.000000	-1.000000	-1.000000	384154.000000	1772311427.137813
-16849.575000	-19531.395000	-21035.655000	-12962.880000	0.000000	0.000000	0.000000	0.000000	-12.914448	-21.538765	5.375249	7.036007	-0.000000	-0.000000	0.000000	0.000000	5.814060	0.595140	0.167860	0.020386	0.983945	0.036255	-1.000000	-1.000000	-1.000000	-1.000000	-1.000000	-1.000000	-1.000000	147.103448	0.000000	-1.000000	-1.000000	384155.000000	1772311427.137815
-16900.335000	-19558.125000	-21066.480000	-12960.405000	0.000000	0.000000	0.000000	0.000000	-26.457381	-19.056374	-14.023439	-17.432736	-0.000000	-0.000000	0.000000	0.000000	5.814060	0.595140	0.167860	0.020386	0.983945	0.036255	-1.000000	-1.000000	-1.000000	-1.000000	-1.000000	-1.000000	-1.000000	147.103448	0.000000	-1.000000	-1.000000	384156.000000	1772311427.141970
-16947.900000	-19624.860000	-21127.320000	-13017.420000	0.000000	0.000000	0.000000	0.000000	-33.239148	-12.790942	-30.389503	-35.154112	-0.000000	-0.000000	0.000000	0.000000	5.814060	0.595140	0.167860	0.020386	0.983945	0.036255	-1.000000	-1.000000	-1.000000	-1.000000	-1.000000	-1.000000	-1.000000	147.103448	0.000000	-1.000000	-1.000000	384157.000000	1772311427.141973
-16875.630000	-19678.815000	-21061.665000	-12968.370000	0.000000	0.000000	0.000000	0.000000	-35.338048	-9.237535	-41.467657	-42.979549	-0.000000	-0.000000	0.000000	0.000000	5.814060	0.595140	0.167860	0.020386	0.983945	0.036255	-1.000000	-1.000000	-1.000000	-1.000000	-1.000000	-1.000000	-1.000000	147.103448	0.000000	-1.000000	-1.000000	384158.000000	1772311427.145770
-16753.455000	-19655.595000	-20929.860000	-12874.005000	0.000000	0.000000	0.000000	0.000000	-25.193592	-8.588873	-37.083130	-36.013078	-0.000000	-0.000000	0.000000	0.000000	5.814060	0.595140	0.167860	0.020386	0.983945	0.036255	-1.000000	-1.000000	-1.000000	-1.000000	-1.000000	-1.000000	-1.000000	147.103448	0.000000	-1.000000	-1.000000	384159.000000	1772311427.145775
-16735.275000	-19631.295000	-20898.090000	-12830.895000	0.000000	0.000000	0.000000	0.000000	2.459972	-2.805647	-10.078142	-11.420330	-0.000000	-0.000000	0.000000	0.000000	3.753960	3.052000	-0.549360	0.023010	0.983030	0.031555	-1.000000	-1.000000	-1.000000	-1.000000	-1.000000	-1.000000	-1.000000	147.103448	0.000000	-1.000000	-1.000000	384160.000000	1772311427.149872
-16823.745000	-19656.270000	-20965.995000	-12834.315000	0.000000	0.000000	0.000000	0.000000	32.166308	12.728292	24.740771	20.007445	-0.000000	-0.000000	0.000000	0.000000	3.753960	3.052000	-0.549360	0.023010	0.983030	0.031555	-1.000000	-1.000000	-1.000000	-1.000000	-1.000000	-1.000000	-1.000000	147.103448	0.000000	-1.000000	-1.000000	384161.000000	1772311427.149875
-16876.980000	-19676.610000	-21076.470000	-12985.065000	0.000000	0.000000	0.000000	0.000000	37.171263	29.804838	37.111193	35.017540	-0.000000	-0.000000	0.000000	0.000000	3.753960	3.052000	-0.549360	0.023010	0.983030	0.031555	-1.000000	-1.000000	-1.000000	-1.000000	-1.000000	-1.000000	-1.000000	147.103448	0.000000	-1.000000	-1.000000	384162.000000	1772311427.154018
-16841.160000	-19639.440000	-21070.755000	-13029.840000	0.000000	0.000000	0.000000	0.000000	11.173422	36.754579	13.530244	17.308663	-0.000000	-0.000000	0.000000	0.000000	3.753960	3.052000	-0.549360	0.023010	0.983030	0.031555	-1.000000	-1.000000	-1.000000	-1.000000	-1.000000	-1.000000	-1.000000	147.103448	0.000000	-1.000000	-1.000000	384163.000000	1772311427.154021
-16743.105000	-19611.810000	-21029.220000	-12981.960000	0.000000	0.000000	0.000000	0.000000	-20.998596	31.904936	-24.923915	-21.070150	-0.000000	-0.000000	0.000000	0.000000	3.753960	3.052000	-0.549360	0.023010	0.983030	0.031555	-1.000000	-1.000000	-1.000000	-1.000000	-1.000000	-1.000000	-1.000000	147.103448	0.000000	-1.000000	-1.000000	384164.000000	1772311427.161112
-16732.170000	-19626.615000	-21114.540000	-13000.815000	0.000000	0.000000	0.000000	0.000000	-30.239731	20.672206	-45.756067	-46.722772	-0.000000	-0.000000	0.000000	0.000000	3.753960	3.052000	-0.549360	0.023010	0.983030	0.031555	-1.000000	-1.000000	-1.000000	-1.000000	-1.000000	-1.000000	-1.000000	147.103448	0.000000	-1.000000	-1.000000	384165.000000	1772311427.161117
-16669.260000	-19648.440000	-21152.520000	-12975.030000	0.000000	0.000000	0.000000	0.000000	-12.462003	5.886710	-39.134957	-38.984846	-0.000000	-0.000000	0.000000	0.000000	3.753960	3.052000	-0.549360	0.023010	0.983030	0.031555	-1.000000	-1.000000	-1.000000	-1.000000	-1.000000	-1.000000	-1.000000	147.103448	0.000000	-1.000000	-1.000000	384166.000000	1772311427.161784
-16657.830000	-19689.345000	-21156.705000	-12952.080000	0.000000	0.000000	0.000000	0.000000	13.979834	-11.992381	-16.923855	-5.212162	-0.000000	-0.000000	0.000000	0.000000	3.753960	3.052000	-0.549360	0.023010	0.983030	0.031555	-1.000000	-1.000000	-1.000000	-1.000000	-1.000000	-1.000000	-1.000000	147.103448	0.000000	-1.000000	-1.000000	384167.000000	1772311427.161788
-16726.320000	-19706.130000	-21214.215000	-12987.090000	0.000000	0.000000	0.000000	0.000000	27.378036	-29.438170	7.473178	31.904266	-0.000000	-0.000000	0.000000	0.000000	3.753960	3.052000	-0.549360	0.023010	0.983030	0.031555	-1.000000	-1.000000	-1.000000	-1.000000	-1.000000	-1.000000	-1.000000	147.103448	0.000000	-1.000000	-1.000000	384168.000000	1772311427.165851
-16819.830000	-19719.810000	-21206.475000	-12991.500000	0.000000	0.000000	0.000000	0.000000	14.934410	-39.206829	25.651817	50.689720	-0.000000	-0.000000	0.000000	0.000000	3.753960	3.052000	-0.549360	0.023010	0.983030	0.031555	-1.000000	-1.000000	-1.000000	-1.000000	-1.000000	-1.000000	-1.000000	147.103448	0.000000	-1.000000	-1.000000	384169.000000	1772311427.165856
-16899.975000	-19709.550000	-21116.385000	-12938.715000	0.000000	0.000000	0.000000	0.000000	-19.346996	-35.103199	36.270636	44.526628	-0.000000	-0.000000	0.000000	0.000000	0.122080	2.762060	-3.006220	0.026062	0.986753	0.026001	-1.000000	-1.000000	-1.000000	-1.000000	-1.000000	-1.000000	-1.000000	147.103448	0.000000	-1.000000	-1.000000	384170.000000	1772311427.169839
-16987.635000	-19697.445000	-21098.925000	-12948.795000	0.000000	0.000000	0.000000	0.000000	-55.194731	-17.089386	43.793898	23.984268	-0.000000	-0.000000	0.000000	0.000000	0.122080	2.762060	-3.006220	0.026062	0.986753	0.026001	-1.000000	-1.000000	-1.000000	-1.000000	-1.000000	-1.000000	-1.000000	147.103448	0.000000	-1.000000	-1.000000	384171.000000	1772311427.169843
-16854.795000	-19675.170000	-20984.040000	-12902.715000	0.000000	0.000000	0.000000	0.000000	-66.651872	7.869922	49.022172	3.086464	-0.000000	-0.000000	0.000000	0.000000	0.122080	2.762060	-3.006220	0.026062	0.986753	0.026001	-1.000000	-1.000000	-1.000000	-1.000000	-1.000000	-1.000000	-1.000000	147.103448	0.000000	-1.000000	-1.000000	384172.000000	1772311427.174673
-16720.110000	-19664.595000	-20971.665000	-12915.270000	0.000000	0.000000	0.000000	0.000000	-34.829672	29.317222	46.925472	-10.954890	-0.000000	-0.000000	0.000000	0.000000	0.122080	2.762060	-3.006220	0.026062	0.986753	0.026001	-1.000000	-1.000000	-1.000000	-1.000000	-1.000000	-1.000000	-1.000000	147.103448	0.000000	-1.000000	-1.000000	384173.000000	1772311427.174677
-16782.345000	-19692.315000	-21090.465000	-13013.955000	0.000000	0.000000	0.000000	0.000000	31.554859	37.828815	28.967053	-19.832195	-0.000000	-0.000000	0.000000	0.000000	0.122080	2.762060	-3.006220	0.026062	0.986753	0.026001	-1.000000	-1.000000	-1.000000	-1.000000	-1.000000	-1.000000	-1.000000	147.103448	0.000000	-1.000000	-1.000000	384174.000000	1772311427.178221
-16834.230000	-19736.505000	-21152.835000	-12948.615000	0.000000	0.000000	0.000000	0.000000	89.021072	28.589375	-11.355811	-28.223732	-0.000000	-0.000000	0.000000	0.000000	0.122080	2.762060	-3.006220	0.026062	0.986753	0.026001	-1.000000	-1.000000	-1.000000	-1.000000	-1.000000	-1.000000	-1.000000	147.103448	0.000000	-1.000000	-1.000000	384175.000000	1772311427.178223
-16903.530000	-19732.500000	-21256.065000	-13007.970000	0.000000	0.000000	0.000000	0.000000	95.122191	5.540042	-64.275283	-32.979680	-0.000000	-0.000000	0.000000	0.000000	0.122080	2.762060	-3.006220	0.026062	0.986753	0.026001	-1.000000	-1.000000	-1.000000	-1.000000	-1.000000	-1.000000	-1.000000	147.103448	0.000000	-1.000000	-1.000000	384176.000000	1772311427.182114
-16848.990000	-19735.335000	-21180.420000	-13016.250000	0.000000	0.000000	0.000000	0.000000	49.154848	-18.076609	-101.465485	-28.237169	-0.000000	-0.000000	0.000000	0.000000	0.122080	2.762060	-3.006220	0.026062	0.986753	0.026001	-1.000000	-1.000000	-1.000000	-1.000000	-1.000000	-1.000000	-1.000000	147.103448	0.000000	-1.000000	-1.000000	384177.000000	1772311427.182119
-16819.875000	-19726.875000	-21087.450000	-12950.820000	0.000000	0.000000	0.000000	0.000000	-11.148050	-28.743418	-93.677923	-13.818417	-0.000000	-0.000000	0.000000	0.000000	0.122080	2.762060	-3.006220	0.026062	0.986753	0.026001	-1.000000	-1.000000	-1.000000	-1.000000	-1.000000	-1.000000	-1.000000	147.103448	0.000000	-1.000000	-1.000000	384178.000000	1772311427.185866
-16959.735000	-19728.135000	-21101.580000	-12963.465000	0.000000	0.000000	0.000000	0.000000	-49.846979	-22.792978	-36.871028	7.432429	-0.000000	-0.000000	0.000000	0.000000	0.122080	2.762060	-3.006220	0.026062	0.986753	0.026001	-1.000000	-1.000000	-1.000000	-1.000000	-1.000000	-1.000000	-1.000000	147.103448	0.000000	-1.000000	-1.000000	384179.000000	1772311427.185870
-16955.010000	-19709.820000	-21122.415000	-12977.280000	0.000000	0.000000	0.000000	0.000000	-60.598117	-6.624823	36.252737	27.485455	-0.000000	-0.000000	0.000000	0.000000	-5.234180	6.042960	-9.430680	0.041382	0.999875	0.015564	-1.000000	-1.000000	-1.000000	-1.000000	-1.000000	-1.000000	-1.000000	147.103448	0.000000	-1.000000	-1.000000	384180.000000	1772311427.189946
-16751.880000	-19679.445000	-21091.770000	-12928.050000	0.000000	0.000000	0.000000	0.000000	-48.252157	10.463750	82.712687	35.906466	-0.000000	-0.000000	0.000000	0.000000	-5.234180	6.042960	-9.430680	0.041382	0.999875	0.015564	-1.000000	-1.000000	-1.000000	-1.000000	-1.000000	-1.000000	-1.000000	147.103448	0.000000	-1.000000	-1.000000	384181.000000	1772311427.189950
-16703.730000	-19663.380000	-21101.535000	-12903.345000	0.000000	0.000000	0.000000	0.000000	-11.389935	21.836000	84.492332	31.209567	-0.000000	-0.000000	0.000000	0.000000	-5.234180	6.042960	-9.430680	0.041382	0.999875	0.015564	-1.000000	-1.000000	-1.000000	-1.000000	-1.000000	-1.000000	-1.000000	147.103448	0.000000	-1.000000	-1.000000	384182.000000	1772311427.193951
-16959.195000	-19647.225000	-21379.860000	-13031.910000	0.000000	0.000000	0.000000	0.000000	32.691742	24.132554	47.150211	16.961086	-0.000000	-0.000000	0.000000	0.000000	-5.234180	6.042960	-9.430680	0.041382	0.999875	0.015564	-1.000000	-1.000000	-1.000000	-1.000000	-1.000000	-1.000000	-1.000000	147.103448	0.000000	-1.000000	-1.000000	384183.000000	1772311427.193955
-17102.115000	-19635.255000	-21440.655000	-13063.680000	0.000000	0.000000	0.000000	0.000000	42.376630	17.103877	-15.818289	-6.735658	-0.000000	-0.000000	0.000000	0.000000	-5.234180	6.042960	-9.430680	0.041382	0.999875	0.015564	-1.000000	-1.000000	-1.000000	-1.000000	-1.000000	-1.000000	-1.000000	147.103448	0.000000	-1.000000	-1.000000	384184.000000	1772311427.198063
-17055.045000	-19657.440000	-21293.145000	-13022.595000	0.000000	0.000000	0.000000	0.000000	3.635376	3.434118	-72.948171	-32.844187	-0.000000	-0.000000	0.000000	0.000000	-5.234180	6.042960	-9.430680	0.041382	0.999875	0.015564	-1.000000	-1.000000	-1.000000	-1.000000	-1.000000	-1.000000	-1.000000	147.103448	0.000000	-1.000000	-1.000000	384185.000000	1772311427.198067
-16903.215000	-19681.605000	-21176.730000	-13007.295000	0.000000	0.000000	0.000000	0.000000	-41.170653	-12.968712	-79.180602	-43.082590	-0.000000	-0.000000	0.000000	0.000000	-5.234180	6.042960	-9.430680	0.041382	0.999875	0.015564	-1.000000	-1.000000	-1.000000	-1.000000	-1.000000	-1.000000	-1.000000	147.103448	0.000000	-1.000000	-1.000000	384186.000000	1772311427.202025
-16748.865000	-19699.830000	-21045.690000	-12858.165000	0.000000	0.000000	0.000000	0.000000	-39.219244	-27.338755	-20.550057	-25.244356	-0.000000	-0.000000	0.000000	0.000000	-5.234180	6.042960	-9.430680	0.041382	0.999875	0.015564	-1.000000	-1.000000	-1.000000	-1.000000	-1.000000	-1.000000	-1.000000	147.103448	0.000000	-1.000000	-1.000000	384187.000000	1772311427.202028
-16799.850000	-19723.995000	-21123.405000	-12891.735000	0.000000	0.000000	0.000000	0.000000	13.328814	-34.187824	62.766729	13.299349	-0.000000	-0.000000	0.000000	0.000000	-5.234180	6.042960	-9.430680	0.041382	0.999875	0.015564	-1.000000	-1.000000	-1.000000	-1.000000	-1.000000	-1.000000	-1.000000	147.103448	0.000000	-1.000000	-1.000000	384188.000000	1772311427.206011
-17016.255000	-19747.980000	-21285.045000	-13021.020000	0.000000	0.000000	0.000000	0.000000	64.644481	-30.352726	105.889062	44.716689	-0.000000	-0.000000	0.000000	0.000000	-5.234180	6.042960	-9.430680	0.041382	0.999875	0.015564	-1.000000	-1.000000	-1.000000	-1.000000	-1.000000	-1.000000	-1.000000	147.103448	0.000000	-1.000000	-1.000000	384189.000000	1772311427.206014
-16867.665000	-19748.745000	-21159.945000	-12925.980000	0.000000	0.000000	0.000000	0.000000	63.820135	-17.037889	75.811742	42.600488	-0.000000	-0.000000	0.000000	0.000000	11.719680	0.915600	11.445000	0.020508	1.000486	0.036377	-1.000000	-1.000000	-1.000000	-1.000000	-1.000000	-1.000000	-1.000000	147.103448	0.000000	-1.000000	-1.000000	384190.000000	1772311427.210092
-16647.165000	-19713.195000	-20923.470000	-12751.335000	0.000000	0.000000	0.000000	0.000000	22.069722	2.256190	7.047985	16.050375	-0.000000	-0.000000	0.000000	0.000000	11.719680	0.915600	11.445000	0.020508	1.000486	0.036377	-1.000000	-1.000000	-1.000000	-1.000000	-1.000000	-1.000000	-1.000000	147.103448	0.000000	-1.000000	-1.000000	384191.000000	1772311427.210095
-16795.350000	-19686.735000	-20997.405000	-12829.860000	0.000000	0.000000	0.000000	0.000000	-12.582701	23.358495	-39.344775	-3.917224	-0.000000	-0.000000	0.000000	0.000000	11.719680	0.915600	11.445000	0.020508	1.000486	0.036377	-1.000000	-1.000000	-1.000000	-1.000000	-1.000000	-1.000000	-1.000000	147.103448	0.000000	-1.000000	-1.000000	384192.000000	1772311427.214129
-17088.705000	-19687.590000	-21111.570000	-12982.860000	0.000000	0.000000	0.000000	0.000000	-30.756826	39.663451	-48.296749	-12.220336	-0.000000	-0.000000	0.000000	0.000000	11.719680	0.915600	11.445000	0.020508	1.000486	0.036377	-1.000000	-1.000000	-1.000000	-1.000000	-1.000000	-1.000000	-1.000000	147.103448	0.000000	-1.000000	-1.000000	384193.000000	1772311427.214132
-17072.415000	-19675.440000	-21040.695000	-13035.555000	0.000000	0.000000	0.000000	0.000000	-56.474591	43.211675	-46.397965	-27.832058	-0.000000	-0.000000	0.000000	0.000000	11.719680	0.915600	11.445000	0.020508	1.000486	0.036377	-1.000000	-1.000000	-1.000000	-1.000000	-1.000000	-1.000000	-1.000000	147.103448	0.000000	-1.000000	-1.000000	384194.000000	1772311427.220945
-17036.055000	-19706.130000	-21076.155000	-13006.260000	0.000000	0.000000	0.000000	0.000000	-83.130365	30.610740	-47.158311	-51.252722	-0.000000	-0.000000	0.000000	0.000000	11.719680	0.915600	11.445000	0.020508	1.000486	0.036377	-1.000000	-1.000000	-1.000000	-1.000000	-1.000000	-1.000000	-1.000000	147.103448	0.000000	-1.000000	-1.000000	384195.000000	1772311427.220948
-16967.790000	-19768.005000	-21136.545000	-12963.285000	0.000000	0.000000	0.000000	0.000000	-74.621669	5.212711	-43.963193	-57.892137	-0.000000	-0.000000	0.000000	0.000000	11.719680	0.915600	11.445000	0.020508	1.000486	0.036377	-1.000000	-1.000000	-1.000000	-1.000000	-1.000000	-1.000000	-1.000000	147.103448	0.000000	-1.000000	-1.000000	384196.000000	1772311427.222158
-16886.475000	-19804.905000	-21154.140000	-13106.565000	0.000000	0.000000	0.000000	0.000000	-17.862389	-24.644908	-33.088485	-33.998763	-0.000000	-0.000000	0.000000	0.000000	11.719680	0.915600	11.445000	0.020508	1.000486	0.036377	-1.000000	-1.000000	-1.000000	-1.000000	-1.000000	-1.000000	-1.000000	147.103448	0.000000	-1.000000	-1.000000	384197.000000	1772311427.222161
-16961.265000	-19804.995000	-21066.345000	-13031.730000	0.000000	0.000000	0.000000	0.000000	57.902422	-46.339918	-13.898318	5.119052	-0.000000	-0.000000	0.000000	0.000000	11.719680	0.915600	11.445000	0.020508	1.000486	0.036377	-1.000000	-1.000000	-1.000000	-1.000000	-1.000000	-1.000000	-1.000000	147.103448	0.000000	-1.000000	-1.000000	384198.000000	1772311427.226098
-17025.255000	-19807.380000	-21193.425000	-12961.935000	0.000000	0.000000	0.000000	0.000000	104.143930	-47.928452	12.522384	39.878048	-0.000000	-0.000000	0.000000	0.000000	11.719680	0.915600	11.445000	0.020508	1.000486	0.036377	-1.000000	-1.000000	-1.000000	-1.000000	-1.000000	-1.000000	-1.000000	147.103448	0.000000	-1.000000	-1.000000	384199.000000	1772311427.226102
-16894.980000	-19815.750000	-21217.275000	-12904.065000	0.000000	0.000000	0.000000	0.000000	95.419073	-27.795104	34.249197	64.352850	-0.000000	-0.000000	0.000000	0.000000	20.402620	-0.259420	12.955740	0.019409	0.992490	0.039795	-1.000000	-1.000000	-1.000000	-1.000000	-1.000000	-1.000000	-1.000000	147.103448	0.000000	-1.000000	-1.000000	384200.000000	1772311427.230137
-16738.515000	-19828.035000	-21122.595000	-12857.085000	0.000000	0.000000	0.000000	0.000000	53.207031	2.770289	40.691001	74.973891	-0.000000	-0.000000	0.000000	0.000000	20.402620	-0.259420	12.955740	0.019409	0.992490	0.039795	-1.000000	-1.000000	-1.000000	-1.000000	-1.000000	-1.000000	-1.000000	147.103448	0.000000	-1.000000	-1.000000	384201.000000	1772311427.230140
-16615.215000	-19795.635000	-20986.515000	-12800.250000	0.000000	0.000000	0.000000	0.000000	17.671340	28.793353	40.642388	66.103220	-0.000000	-0.000000	0.000000	0.000000	20.402620	-0.259420	12.955740	0.019409	0.992490	0.039795	-1.000000	-1.000000	-1.000000	-1.000000	-1.000000	-1.000000	-1.000000	147.103448	0.000000	-1.000000	-1.000000	384202.000000	1772311427.234083
-16716.690000	-19784.970000	-21107.385000	-12896.145000	0.000000	0.000000	0.000000	0.000000	1.434437	41.860211	43.862066	35.717606	-0.000000	-0.000000	0.000000	0.000000	20.402620	-0.259420	12.955740	0.019409	0.992490	0.039795	-1.000000	-1.000000	-1.000000	-1.000000	-1.000000	-1.000000	-1.000000	147.103448	0.000000	-1.000000	-1.000000	384203.000000	1772311427.234086
-17049.600000	-19792.350000	-21369.015000	-13089.780000	0.000000	0.000000	0.000000	0.000000	-20.914849	40.561524	34.329838	-15.315348	-0.000000	-0.000000	0.000000	0.000000	20.402620	-0.259420	12.955740	0.019409	0.992490	0.039795	-1.000000	-1.000000	-1.000000	-1.000000	-1.000000	-1.000000	-1.000000	147.103448	0.000000	-1.000000	-1.000000	384204.000000	1772311427.238091
-16996.140000	-19769.445000	-21158.685000	-12998.250000	0.000000	0.000000	0.000000	0.000000	-71.603016	27.146899	-3.717009	-74.841599	-0.000000	-0.000000	0.000000	0.000000	20.402620	-0.259420	12.955740	0.019409	0.992490	0.039795	-1.000000	-1.000000	-1.000000	-1.000000	-1.000000	-1.000000	-1.000000	147.103448	0.000000	-1.000000	-1.000000	384205.000000	1772311427.238095
-16770.915000	-19775.520000	-21093.705000	-12945.240000	0.000000	0.000000	0.000000	0.000000	-119.575841	7.430965	-43.452911	-109.004057	-0.000000	-0.000000	0.000000	0.000000	20.402620	-0.259420	12.955740	0.019409	0.992490	0.039795	-1.000000	-1.000000	-1.000000	-1.000000	-1.000000	-1.000000	-1.000000	147.103448	0.000000	-1.000000	-1.000000	384206.000000	1772311427.243018
-16715.430000	-19759.905000	-21110.850000	-12860.595000	0.000000	0.000000	0.000000	0.000000	-106.739689	-11.107152	-46.483910	-87.825900	-0.000000	-0.000000	0.000000	0.000000	20.402620	-0.259420	12.955740	0.019409	0.992490	0.039795	-1.000000	-1.000000	-1.000000	-1.000000	-1.000000	-1.000000	-1.000000	147.103448	0.000000	-1.000000	-1.000000	384207.000000	1772311427.243022
-16740.945000	-19767.555000	-21063.645000	-12844.440000	0.000000	0.000000	0.000000	0.000000	-27.213028	-23.061431	-15.617073	-20.389668	-0.000000	-0.000000	0.000000	0.000000	20.402620	-0.259420	12.955740	0.019409	0.992490	0.039795	-1.000000	-1.000000	-1.000000	-1.000000	-1.000000	-1.000000	-1.000000	147.103448	0.000000	-1.000000	-1.000000	384208.000000	1772311427.248911
-16919.730000	-19782.990000	-21198.015000	-13015.800000	0.000000	0.000000	0.000000	0.000000	58.874810	-27.027344	16.115619	48.197378	-0.000000	-0.000000	0.000000	0.000000	20.402620	-0.259420	12.955740	0.019409	0.992490	0.039795	-1.000000	-1.000000	-1.000000	-1.000000	-1.000000	-1.000000	-1.000000	147.103448	0.000000	-1.000000	-1.000000	384209.000000	1772311427.248915
-17065.035000	-19801.710000	-21255.390000	-13095.135000	0.000000	0.000000	0.000000	0.000000	87.398742	-25.129399	20.871203	71.421986	-0.000000	-0.000000	0.000000	0.000000	21.608160	2.487380	10.239460	0.024658	0.981870	0.038208	-1.000000	-1.000000	-1.000000	-1.000000	-1.000000	-1.000000	-1.000000	147.103448	0.000000	-1.000000	-1.000000	384210.000000	1772311427.250070
-17176.410000	-19826.325000	-21163.230000	-13043.340000	0.000000	0.000000	0.000000	0.000000	46.326825	-20.224055	-1.059306	42.209716	-0.000000	-0.000000	0.000000	0.000000	21.608160	2.487380	10.239460	0.024658	0.981870	0.038208	-1.000000	-1.000000	-1.000000	-1.000000	-1.000000	-1.000000	-1.000000	147.103448	0.000000	-1.000000	-1.000000	384211.000000	1772311427.250073
-17137.755000	-19825.290000	-20988.000000	-12951.540000	0.000000	0.000000	0.000000	0.000000	-20.679462	-13.499488	-19.036993	-0.770957	-0.000000	-0.000000	0.000000	0.000000	21.608160	2.487380	10.239460	0.024658	0.981870	0.038208	-1.000000	-1.000000	-1.000000	-1.000000	-1.000000	-1.000000	-1.000000	147.103448	0.000000	-1.000000	-1.000000	384212.000000	1772311427.254042
-17002.620000	-19820.745000	-21088.755000	-13023.810000	0.000000	0.000000	0.000000	0.000000	-53.408818	-4.342523	-8.335344	-17.791380	-0.000000	-0.000000	0.000000	0.000000	21.608160	2.487380	10.239460	0.024658	0.981870	0.038208	-1.000000	-1.000000	-1.000000	-1.000000	-1.000000	-1.000000	-1.000000	147.103448	0.000000	-1.000000	-1.000000	384213.000000	1772311427.254045
-16944.750000	-19820.655000	-21128.535000	-13019.895000	0.000000	0.000000	0.000000	0.000000	-22.912390	7.167008	16.046586	-6.926813	-0.000000	-0.000000	0.000000	0.000000	21.608160	2.487380	10.239460	0.024658	0.981870	0.038208	-1.000000	-1.000000	-1.000000	-1.000000	-1.000000	-1.000000	-1.000000	147.103448	0.000000	-1.000000	-1.000000	384214.000000	1772311427.258305
-16769.115000	-19808.550000	-21020.490000	-12939.390000	0.000000	0.000000	0.000000	0.000000	48.990847	18.110436	24.927002	11.145365	-0.000000	-0.000000	0.000000	0.000000	21.608160	2.487380	10.239460	0.024658	0.981870	0.038208	-1.000000	-1.000000	-1.000000	-1.000000	-1.000000	-1.000000	-1.000000	147.103448	0.000000	-1.000000	-1.000000	384215.000000	1772311427.258308
-16782.435000	-19792.485000	-21083.670000	-12954.690000	0.000000	0.000000	0.000000	0.000000	112.091758	24.637403	14.207353	23.209022	-0.000000	-0.000000	0.000000	0.000000	21.608160	2.487380	10.239460	0.024658	0.981870	0.038208	-1.000000	-1.000000	-1.000000	-1.000000	-1.000000	-1.000000	-1.000000	147.103448	0.000000	-1.000000	-1.000000	384216.000000	1772311427.262246
-16980.930000	-19823.805000	-21208.725000	-12998.565000	0.000000	0.000000	0.000000	0.000000	119.140803	23.974375	-6.352317	23.592486	-0.000000	-0.000000	0.000000	0.000000	21.608160	2.487380	10.239460	0.024658	0.981870	0.038208	-1.000000	-1.000000	-1.000000	-1.000000	-1.000000	-1.000000	-1.000000	147.103448	0.000000	-1.000000	-1.000000	384217.000000	1772311427.262249
-17033.310000	-19856.295000	-21200.445000	-12933.990000	0.000000	0.000000	0.000000	0.000000	52.125234	14.335034	-30.747397	10.390295	-0.000000	-0.000000	0.000000	0.000000	21.608160	2.487380	10.239460	0.024658	0.981870	0.038208	-1.000000	-1.000000	-1.000000	-1.000000	-1.000000	-1.000000	-1.000000	147.103448	0.000000	-1.000000	-1.000000	384218.000000	1772311427.266261
-16990.830000	-19869.840000	-21288.555000	-12894.075000	0.000000	0.000000	0.000000	0.000000	-54.249170	-2.411428	-48.548713	-7.260655	-0.000000	-0.000000	0.000000	0.000000	21.608160	2.487380	10.239460	0.024658	0.981870	0.038208	-1.000000	-1.000000	-1.000000	-1.000000	-1.000000	-1.000000	-1.000000	147.103448	0.000000	-1.000000	-1.000000	384219.000000	1772311427.266264
-16693.515000	-19845.990000	-21153.780000	-12796.875000	0.000000	0.000000	0.000000	0.000000	-126.913447	-17.878202	-45.264585	-15.057237	-0.000000	-0.000000	0.000000	0.000000	21.562380	2.624720	7.370580	0.014038	0.956724	0.035156	-1.000000	-1.000000	-1.000000	-1.000000	-1.000000	-1.000000	-1.000000	147.103448	0.000000	-1.000000	-1.000000	384220.000000	1772311427.270197
-16551.720000	-19821.690000	-20956.545000	-12774.555000	0.000000	0.000000	0.000000	0.000000	-112.107542	-21.839025	-10.927881	-8.472901	-0.000000	-0.000000	0.000000	0.000000	21.562380	2.624720	7.370580	0.014038	0.956724	0.035156	-1.000000	-1.000000	-1.000000	-1.000000	-1.000000	-1.000000	-1.000000	147.103448	0.000000	-1.000000	-1.000000	384221.000000	1772311427.270199
-16603.470000	-19830.150000	-20977.560000	-12931.695000	0.000000	0.000000	0.000000	0.000000	-26.783402	-11.908532	47.014099	-0.024077	-0.000000	-0.000000	0.000000	0.000000	21.562380	2.624720	7.370580	0.014038	0.956724	0.035156	-1.000000	-1.000000	-1.000000	-1.000000	-1.000000	-1.000000	-1.000000	147.103448	0.000000	-1.000000	-1.000000	384222.000000	1772311427.274161
-16839.225000	-19838.925000	-20826.765000	-12919.275000	0.000000	0.000000	0.000000	0.000000	50.687344	3.291235	95.947425	-8.043116	-0.000000	-0.000000	0.000000	0.000000	21.562380	2.624720	7.370580	0.014038	0.956724	0.035156	-1.000000	-1.000000	-1.000000	-1.000000	-1.000000	-1.000000	-1.000000	147.103448	0.000000	-1.000000	-1.000000	384223.000000	1772311427.274164
-16884.450000	-19852.155000	-20744.595000	-12855.645000	0.000000	0.000000	0.000000	0.000000	54.078039	12.343175	105.056603	-29.536043	-0.000000	-0.000000	0.000000	0.000000	21.562380	2.624720	7.370580	0.014038	0.956724	0.035156	-1.000000	-1.000000	-1.000000	-1.000000	-1.000000	-1.000000	-1.000000	147.103448	0.000000	-1.000000	-1.000000	384224.000000	1772311427.280362
-16943.265000	-19844.370000	-21024.405000	-13027.410000	0.000000	0.000000	0.000000	0.000000	-8.886535	10.977771	65.242447	-43.085514	-0.000000	-0.000000	0.000000	0.000000	21.562380	2.624720	7.370580	0.014038	0.956724	0.035156	-1.000000	-1.000000	-1.000000	-1.000000	-1.000000	-1.000000	-1.000000	147.103448	0.000000	-1.000000	-1.000000	384225.000000	1772311427.280366
-16930.440000	-19819.305000	-21102.705000	-13071.690000	0.000000	0.000000	0.000000	0.000000	-74.904302	3.921394	-18.144221	-40.977547	-0.000000	-0.000000	0.000000	0.000000	21.562380	2.624720	7.370580	0.014038	0.956724	0.035156	-1.000000	-1.000000	-1.000000	-1.000000	-1.000000	-1.000000	-1.000000	147.103448	0.000000	-1.000000	-1.000000	384226.000000	1772311427.282864
-17040.240000	-19823.445000	-21063.105000	-13044.960000	0.000000	0.000000	0.000000	0.000000	-91.471199	-1.464153	-112.605685	-28.280374	-0.000000	-0.000000	0.000000	0.000000	21.562380	2.624720	7.370580	0.014038	0.956724	0.035156	-1.000000	-1.000000	-1.000000	-1.000000	-1.000000	-1.000000	-1.000000	147.103448	0.000000	-1.000000	-1.000000	384227.000000	1772311427.282866
-16929.270000	-19813.140000	-21100.680000	-13037.265000	0.000000	0.000000	0.000000	0.000000	-51.925654	-2.503063	-161.847617	-4.525225	-0.000000	-0.000000	0.000000	0.000000	21.562380	2.624720	7.370580	0.014038	0.956724	0.035156	-1.000000	-1.000000	-1.000000	-1.000000	-1.000000	-1.000000	-1.000000	147.103448	0.000000	-1.000000	-1.000000	384228.000000	1772311427.290381
-16769.070000	-19801.665000	-21088.035000	-13012.380000	0.000000	0.000000	0.000000	0.000000	21.752341	-1.173973	-134.838432	28.806678	-0.000000	-0.000000	0.000000	0.000000	21.562380	2.624720	7.370580	0.014038	0.956724	0.035156	-1.000000	-1.000000	-1.000000	-1.000000	-1.000000	-1.000000	-1.000000	147.103448	0.000000	-1.000000	-1.000000	384229.000000	1772311427.290383
-16942.590000	-19828.755000	-21289.275000	-13089.870000	0.000000	0.000000	0.000000	0.000000	95.697144	-0.397786	-54.206799	57.906853	-0.000000	-0.000000	0.000000	0.000000	21.531860	3.296160	9.339120	0.009888	0.993345	0.030212	-1.000000	-1.000000	-1.000000	-1.000000	-1.000000	-1.000000	-1.000000	147.103448	0.000000	-1.000000	-1.000000	384230.000000	1772311427.290387
-16880.040000	-19800.810000	-21341.430000	-13053.600000	0.000000	0.000000	0.000000	0.000000	128.462599	-1.929531	27.354644	65.897888	-0.000000	-0.000000	0.000000	0.000000	21.531860	3.296160	9.339120	0.009888	0.993345	0.030212	-1.000000	-1.000000	-1.000000	-1.000000	-1.000000	-1.000000	-1.000000	147.103448	0.000000	-1.000000	-1.000000	384231.000000	1772311427.290389
-16885.845000	-19779.435000	-21362.580000	-13014.045000	0.000000	0.000000	0.000000	0.000000	101.716928	-3.921833	73.360528	50.503669	-0.000000	-0.000000	0.000000	0.000000	21.531860	3.296160	9.339120	0.009888	0.993345	0.030212	-1.000000	-1.000000	-1.000000	-1.000000	-1.000000	-1.000000	-1.000000	147.103448	0.000000	-1.000000	-1.000000	384232.000000	1772311427.294815
-16781.400000	-19760.715000	-21263.940000	-13031.685000	0.000000	0.000000	0.000000	0.000000	39.842920	-2.696530	86.438738	24.570089	-0.000000	-0.000000	0.000000	0.000000	21.531860	3.296160	9.339120	0.009888	0.993345	0.030212	-1.000000	-1.000000	-1.000000	-1.000000	-1.000000	-1.000000	-1.000000	147.103448	0.000000	-1.000000	-1.000000	384233.000000	1772311427.294817
-16747.830000	-19710.180000	-21000.960000	-12922.515000	0.000000	0.000000	0.000000	0.000000	-17.214101	2.443247	91.784665	1.402244	-0.000000	-0.000000	0.000000	0.000000	21.531860	3.296160	9.339120	0.009888	0.993345	0.030212	-1.000000	-1.000000	-1.000000	-1.000000	-1.000000	-1.000000	-1.000000	147.103448	0.000000	-1.000000	-1.000000	384234.000000	1772311427.303236
-16826.535000	-19691.820000	-20856.465000	-12876.300000	0.000000	0.000000	0.000000	0.000000	-48.723136	8.925971	106.817675	-10.798899	-0.000000	-0.000000	0.000000	0.000000	21.531860	3.296160	9.339120	0.009888	0.993345	0.030212	-1.000000	-1.000000	-1.000000	-1.000000	-1.000000	-1.000000	-1.000000	147.103448	0.000000	-1.000000	-1.000000	384235.000000	1772311427.303239
-16810.380000	-19695.690000	-20916.720000	-12909.195000	0.000000	0.000000	0.000000	0.000000	-59.895774	12.041623	116.995470	-12.662405	-0.000000	-0.000000	0.000000	0.000000	21.531860	3.296160	9.339120	0.009888	0.993345	0.030212	-1.000000	-1.000000	-1.000000	-1.000000	-1.000000	-1.000000	-1.000000	147.103448	0.000000	-1.000000	-1.000000	384236.000000	1772311427.303737
-16937.730000	-19724.580000	-21109.095000	-12998.565000	0.000000	0.000000	0.000000	0.000000	-62.688606	6.744414	83.203735	-16.686937	-0.000000	-0.000000	0.000000	0.000000	21.531860	3.296160	9.339120	0.009888	0.993345	0.030212	-1.000000	-1.000000	-1.000000	-1.000000	-1.000000	-1.000000	-1.000000	147.103448	0.000000	-1.000000	-1.000000	384237.000000	1772311427.303739
-17005.320000	-19787.445000	-21264.480000	-13120.785000	0.000000	0.000000	0.000000	0.000000	-62.559032	-8.195152	-13.012706	-34.612683	-0.000000	-0.000000	0.000000	0.000000	21.531860	3.296160	9.339120	0.009888	0.993345	0.030212	-1.000000	-1.000000	-1.000000	-1.000000	-1.000000	-1.000000	-1.000000	147.103448	0.000000	-1.000000	-1.000000	384238.000000	1772311427.306265
-16897.905000	-19823.130000	-21251.250000	-13098.195000	0.000000	0.000000	0.000000	0.000000	-54.721097	-27.560920	-134.268914	-60.323826	-0.000000	-0.000000	0.000000	0.000000	21.531860	3.296160	9.339120	0.009888	0.993345	0.030212	-1.000000	-1.000000	-1.000000	-1.000000	-1.000000	-1.000000	-1.000000	147.103448	0.000000	-1.000000	-1.000000	384239.000000	1772311427.306267
-16787.610000	-19816.245000	-21173.895000	-12983.580000	0.000000	0.000000	0.000000	0.000000	-24.996018	-40.175728	-206.699160	-68.249554	-0.000000	-0.000000	0.000000	0.000000	14.329140	3.708180	8.896580	0.004700	1.002439	0.017029	-1.000000	-1.000000	-1.000000	-1.000000	-1.000000	-1.000000	-1.000000	147.103448	0.000000	-1.000000	-1.000000	384240.000000	1772311427.310366
-16521.750000	-19814.130000	-21003.750000	-12907.485000	0.000000	0.000000	0.000000	0.000000	32.914386	-34.988780	-178.440290	-36.340148	-0.000000	-0.000000	0.000000	0.000000	14.329140	3.708180	8.896580	0.004700	1.002439	0.017029	-1.000000	-1.000000	-1.000000	-1.000000	-1.000000	-1.000000	-1.000000	147.103448	0.000000	-1.000000	-1.000000	384241.000000	1772311427.310369
-16652.205000	-19822.320000	-21030.975000	-12887.370000	0.000000	0.000000	0.000000	0.000000	97.345698	-11.316001	-63.050979	25.651824	-0.000000	-0.000000	0.000000	0.000000	14.329140	3.708180	8.896580	0.004700	1.002439	0.017029	-1.000000	-1.000000	-1.000000	-1.000000	-1.000000	-1.000000	-1.000000	147.103448	0.000000	-1.000000	-1.000000	384242.000000	1772311427.314294
-16979.670000	-19837.305000	-21150.090000	-12920.760000	0.000000	0.000000	0.000000	0.000000	116.949486	18.651095	66.527993	78.978102	-0.000000	-0.000000	0.000000	0.000000	14.329140	3.708180	8.896580	0.004700	1.002439	0.017029	-1.000000	-1.000000	-1.000000	-1.000000	-1.000000	-1.000000	-1.000000	147.103448	0.000000	-1.000000	-1.000000	384243.000000	1772311427.314296
-17009.280000	-19830.240000	-21176.640000	-13082.220000	0.000000	0.000000	0.000000	0.000000	54.831186	39.641348	133.390811	86.422917	-0.000000	-0.000000	0.000000	0.000000	14.329140	3.708180	8.896580	0.004700	1.002439	0.017029	-1.000000	-1.000000	-1.000000	-1.000000	-1.000000	-1.000000	-1.000000	147.103448	0.000000	-1.000000	-1.000000	384244.000000	1772311427.319353
-16877.520000	-19789.830000	-21076.380000	-13060.395000	0.000000	0.000000	0.000000	0.000000	-52.113488	44.917916	118.079545	41.355094	-0.000000	-0.000000	0.000000	0.000000	14.329140	3.708180	8.896580	0.004700	1.002439	0.017029	-1.000000	-1.000000	-1.000000	-1.000000	-1.000000	-1.000000	-1.000000	147.103448	0.000000	-1.000000	-1.000000	384245.000000	1772311427.319355
-16907.040000	-19792.350000	-21051.855000	-12982.770000	0.000000	0.000000	0.000000	0.000000	-119.567383	37.590264	60.713758	-22.510896	-0.000000	-0.000000	0.000000	0.000000	14.329140	3.708180	8.896580	0.004700	1.002439	0.017029	-1.000000	-1.000000	-1.000000	-1.000000	-1.000000	-1.000000	-1.000000	147.103448	0.000000	-1.000000	-1.000000	384246.000000	1772311427.322415
-16700.265000	-19787.625000	-20991.825000	-12918.465000	0.000000	0.000000	0.000000	0.000000	-101.347953	22.936613	9.517886	-57.213220	-0.000000	-0.000000	0.000000	0.000000	14.329140	3.708180	8.896580	0.004700	1.002439	0.017029	-1.000000	-1.000000	-1.000000	-1.000000	-1.000000	-1.000000	-1.000000	147.103448	0.000000	-1.000000	-1.000000	384247.000000	1772311427.322419
-16730.055000	-19767.555000	-20953.170000	-12915.540000	0.000000	0.000000	0.000000	0.000000	-18.724166	5.003441	-15.326188	-44.235495	-0.000000	-0.000000	0.000000	0.000000	14.329140	3.708180	8.896580	0.004700	1.002439	0.017029	-1.000000	-1.000000	-1.000000	-1.000000	-1.000000	-1.000000	-1.000000	147.103448	0.000000	-1.000000	-1.000000	384248.000000	1772311427.326418
-16857.540000	-19744.605000	-21054.240000	-12943.755000	0.000000	0.000000	0.000000	0.000000	65.889037	-11.052499	-21.204146	-5.811547	-0.000000	-0.000000	0.000000	0.000000	14.329140	3.708180	8.896580	0.004700	1.002439	0.017029	-1.000000	-1.000000	-1.000000	-1.000000	-1.000000	-1.000000	-1.000000	147.103448	0.000000	-1.000000	-1.000000	384249.000000	1772311427.326420
-16897.950000	-19747.215000	-21152.295000	-13019.130000	0.000000	0.000000	0.000000	0.000000	93.742699	-20.615385	-28.076163	21.932954	-0.000000	-0.000000	0.000000	0.000000	11.979100	3.158820	11.261880	0.027710	1.007322	0.002869	-1.000000	-1.000000	-1.000000	-1.000000	-1.000000	-1.000000	-1.000000	147.103448	0.000000	-1.000000	-1.000000	384250.000000	1772311427.330350
-16828.740000	-19764.540000	-21076.875000	-12994.290000	0.000000	0.000000	0.000000	0.000000	57.204088	-23.660278	-43.910041	20.732854	-0.000000	-0.000000	0.000000	0.000000	11.979100	3.158820	11.261880	0.027710	1.007322	0.002869	-1.000000	-1.000000	-1.000000	-1.000000	-1.000000	-1.000000	-1.000000	147.103448	0.000000	-1.000000	-1.000000	384251.000000	1772311427.330353
-16637.355000	-19781.865000	-20891.925000	-12823.245000	0.000000	0.000000	0.000000	0.000000	2.174880	-23.555200	-49.291867	3.891640	-0.000000	-0.000000	0.000000	0.000000	11.979100	3.158820	11.261880	0.027710	1.007322	0.002869	-1.000000	-1.000000	-1.000000	-1.000000	-1.000000	-1.000000	-1.000000	147.103448	0.000000	-1.000000	-1.000000	384252.000000	1772311427.334391
-16726.590000	-19804.005000	-20941.245000	-12885.030000	0.000000	0.000000	0.000000	0.000000	-24.477201	-22.401318	-23.382048	-2.880718	-0.000000	-0.000000	0.000000	0.000000	11.979100	3.158820	11.261880	0.027710	1.007322	0.002869	-1.000000	-1.000000	-1.000000	-1.000000	-1.000000	-1.000000	-1.000000	147.103448	0.000000	-1.000000	-1.000000	384253.000000	1772311427.334394
-16840.980000	-19820.790000	-21107.565000	-13049.865000	0.000000	0.000000	0.000000	0.000000	-22.517739	-19.428930	17.082663	1.196292	-0.000000	-0.000000	0.000000	0.000000	11.979100	3.158820	11.261880	0.027710	1.007322	0.002869	-1.000000	-1.000000	-1.000000	-1.000000	-1.000000	-1.000000	-1.000000	147.103448	0.000000	-1.000000	-1.000000	384254.000000	1772311427.338289
-16815.285000	-19764.180000	-21124.530000	-13057.515000	0.000000	0.000000	0.000000	0.000000	-20.960552	-11.748005	32.860533	-5.068272	-0.000000	-0.000000	0.000000	0.000000	11.979100	3.158820	11.261880	0.027710	1.007322	0.002869	-1.000000	-1.000000	-1.000000	-1.000000	-1.000000	-1.000000	-1.000000	147.103448	0.000000	-1.000000	-1.000000	384255.000000	1772311427.338292
-16915.815000	-19740.690000	-21186.630000	-13070.430000	0.000000	0.000000	0.000000	0.000000	-30.830070	3.393833	12.817578	-24.671796	-0.000000	-0.000000	0.000000	0.000000	11.979100	3.158820	11.261880	0.027710	1.007322	0.002869	-1.000000	-1.000000	-1.000000	-1.000000	-1.000000	-1.000000	-1.000000	147.103448	0.000000	-1.000000	-1.000000	384256.000000	1772311427.342452
-16902.630000	-19725.120000	-21168.090000	-13005.450000	0.000000	0.000000	0.000000	0.000000	-40.434572	22.677859	-17.808943	-35.591899	-0.000000	-0.000000	0.000000	0.000000	11.979100	3.158820	11.261880	0.027710	1.007322	0.002869	-1.000000	-1.000000	-1.000000	-1.000000	-1.000000	-1.000000	-1.000000	147.103448	0.000000	-1.000000	-1.000000	384257.000000	1772311427.342454
-16904.745000	-19717.965000	-21207.015000	-13031.595000	0.000000	0.000000	0.000000	0.000000	-35.779256	35.781152	-30.299807	-21.232583	-0.000000	-0.000000	0.000000	0.000000	11.979100	3.158820	11.261880	0.027710	1.007322	0.002869	-1.000000	-1.000000	-1.000000	-1.000000	-1.000000	-1.000000	-1.000000	147.103448	0.000000	-1.000000	-1.000000	384258.000000	1772311427.346385
-16818.120000	-19708.425000	-21162.915000	-13011.165000	0.000000	0.000000	0.000000	0.000000	-10.816642	34.289045	-15.882128	10.875090	-0.000000	-0.000000	0.000000	0.000000	11.979100	3.158820	11.261880	0.027710	1.007322	0.002869	-1.000000	-1.000000	-1.000000	-1.000000	-1.000000	-1.000000	-1.000000	147.103448	0.000000	-1.000000	-1.000000	384259.000000	1772311427.346387
-16721.685000	-19713.420000	-21111.435000	-13003.785000	0.000000	0.000000	0.000000	0.000000	29.265271	18.669551	15.903820	39.583037	-0.000000	-0.000000	0.000000	0.000000	10.636220	2.853620	4.639040	0.052795	0.964536	-0.002625	-1.000000	-1.000000	-1.000000	-1.000000	-1.000000	-1.000000	-1.000000	147.103448	0.000000	-1.000000	-1.000000	384260.000000	1772311427.353738
-16876.035000	-19718.730000	-21181.680000	-13040.730000	0.000000	0.000000	0.000000	0.000000	65.043971	-3.443757	46.554312	48.943103	-0.000000	-0.000000	0.000000	0.000000	10.636220	2.853620	4.639040	0.052795	0.964536	-0.002625	-1.000000	-1.000000	-1.000000	-1.000000	-1.000000	-1.000000	-1.000000	147.103448	0.000000	-1.000000	-1.000000	384261.000000	1772311427.353741
-16762.410000	-19724.940000	-21208.995000	-13051.440000	0.000000	0.000000	0.000000	0.000000	71.363712	-22.616291	55.784348	35.390161	-0.000000	-0.000000	0.000000	0.000000	10.636220	2.853620	4.639040	0.052795	0.964536	-0.002625	-1.000000	-1.000000	-1.000000	-1.000000	-1.000000	-1.000000	-1.000000	147.103448	0.000000	-1.000000	-1.000000	384262.000000	1772311427.354427
-16568.145000	-19719.135000	-20998.125000	-12911.940000	0.000000	0.000000	0.000000	0.000000	47.821561	-31.771305	39.976421	10.214956	-0.000000	-0.000000	0.000000	0.000000	10.636220	2.853620	4.639040	0.052795	0.964536	-0.002625	-1.000000	-1.000000	-1.000000	-1.000000	-1.000000	-1.000000	-1.000000	147.103448	0.000000	-1.000000	-1.000000	384263.000000	1772311427.354430
-16632.585000	-19717.695000	-20997.090000	-12855.195000	0.000000	0.000000	0.000000	0.000000	19.273348	-28.489170	19.011246	-5.832140	-0.000000	-0.000000	0.000000	0.000000	10.636220	2.853620	4.639040	0.052795	0.964536	-0.002625	-1.000000	-1.000000	-1.000000	-1.000000	-1.000000	-1.000000	-1.000000	147.103448	0.000000	-1.000000	-1.000000	384264.000000	1772311427.358528
-16708.590000	-19749.195000	-21044.610000	-12867.390000	0.000000	0.000000	0.000000	0.000000	-5.040848	-16.307025	5.771230	-4.506754	-0.000000	-0.000000	0.000000	0.000000	10.636220	2.853620	4.639040	0.052795	0.964536	-0.002625	-1.000000	-1.000000	-1.000000	-1.000000	-1.000000	-1.000000	-1.000000	147.103448	0.000000	-1.000000	-1.000000	384265.000000	1772311427.358531
-16664.805000	-19781.325000	-21137.355000	-13023.630000	0.000000	0.000000	0.000000	0.000000	-33.566538	-3.282885	-10.536300	-2.078702	-0.000000	-0.000000	0.000000	0.000000	10.636220	2.853620	4.639040	0.052795	0.964536	-0.002625	-1.000000	-1.000000	-1.000000	-1.000000	-1.000000	-1.000000	-1.000000	147.103448	0.000000	-1.000000	-1.000000	384266.000000	1772311427.362347
-16545.420000	-19815.795000	-21037.095000	-12871.440000	0.000000	0.000000	0.000000	0.000000	-58.587953	3.803916	-36.744020	-15.210318	-0.000000	-0.000000	0.000000	0.000000	10.636220	2.853620	4.639040	0.052795	0.964536	-0.002625	-1.000000	-1.000000	-1.000000	-1.000000	-1.000000	-1.000000	-1.000000	147.103448	0.000000	-1.000000	-1.000000	384267.000000	1772311427.362350
-16545.150000	-19819.395000	-21046.725000	-12874.860000	0.000000	0.000000	0.000000	0.000000	-59.766461	4.722917	-56.843481	-33.263517	-0.000000	-0.000000	0.000000	0.000000	10.636220	2.853620	4.639040	0.052795	0.964536	-0.002625	-1.000000	-1.000000	-1.000000	-1.000000	-1.000000	-1.000000	-1.000000	147.103448	0.000000	-1.000000	-1.000000	384268.000000	1772311427.366521
-16666.020000	-19816.965000	-21116.700000	-12951.675000	0.000000	0.000000	0.000000	0.000000	-37.639018	4.832918	-54.856154	-37.041062	-0.000000	-0.000000	0.000000	0.000000	10.636220	2.853620	4.639040	0.052795	0.964536	-0.002625	-1.000000	-1.000000	-1.000000	-1.000000	-1.000000	-1.000000	-1.000000	147.103448	0.000000	-1.000000	-1.000000	384269.000000	1772311427.366524
-16770.285000	-19830.600000	-21185.055000	-13044.555000	0.000000	0.000000	0.000000	0.000000	-17.176352	8.587278	-36.922336	-29.273165	-0.000000	-0.000000	0.000000	0.000000	7.767340	6.500760	2.044840	0.068176	0.958127	-0.015381	-1.000000	-1.000000	-1.000000	-1.000000	-1.000000	-1.000000	-1.000000	147.103448	0.000000	-1.000000	-1.000000	384270.000000	1772311427.372417
-16778.160000	-19828.080000	-21224.205000	-13096.395000	0.000000	0.000000	0.000000	0.000000	-14.745400	14.750313	-18.250295	-23.274487	-0.000000	-0.000000	0.000000	0.000000	7.767340	6.500760	2.044840	0.068176	0.958127	-0.015381	-1.000000	-1.000000	-1.000000	-1.000000	-1.000000	-1.000000	-1.000000	147.103448	0.000000	-1.000000	-1.000000	384271.000000	1772311427.372420
-16938.585000	-19829.205000	-21266.460000	-13095.945000	0.000000	0.000000	0.000000	0.000000	-21.709939	18.897586	-4.421177	-19.770537	-0.000000	-0.000000	0.000000	0.000000	7.767340	6.500760	2.044840	0.068176	0.958127	-0.015381	-1.000000	-1.000000	-1.000000	-1.000000	-1.000000	-1.000000	-1.000000	147.103448	0.000000	-1.000000	-1.000000	384272.000000	1772311427.374450
-16928.730000	-19826.145000	-21263.850000	-13064.580000	0.000000	0.000000	0.000000	0.000000	-22.194971	18.134175	8.032540	-8.170143	-0.000000	-0.000000	0.000000	0.000000	7.767340	6.500760	2.044840	0.068176	0.958127	-0.015381	-1.000000	-1.000000	-1.000000	-1.000000	-1.000000	-1.000000	-1.000000	147.103448	0.000000	-1.000000	-1.000000	384273.000000	1772311427.374453
-16717.815000	-19769.985000	-21141.630000	-13047.345000	0.000000	0.000000	0.000000	0.000000	-2.622902	13.438748	25.193627	17.216923	-0.000000	-0.000000	0.000000	0.000000	7.767340	6.500760	2.044840	0.068176	0.958127	-0.015381	-1.000000	-1.000000	-1.000000	-1.000000	-1.000000	-1.000000	-1.000000	147.103448	0.000000	-1.000000	-1.000000	384274.000000	1772311427.378636
-16745.940000	-19755.540000	-21129.255000	-13024.260000	0.000000	0.000000	0.000000	0.000000	42.901035	8.656636	49.153525	47.623747	-0.000000	-0.000000	0.000000	0.000000	7.767340	6.500760	2.044840	0.068176	0.958127	-0.015381	-1.000000	-1.000000	-1.000000	-1.000000	-1.000000	-1.000000	-1.000000	147.103448	0.000000	-1.000000	-1.000000	384275.000000	1772311427.378639
-16771.095000	-19767.690000	-21084.570000	-12920.040000	0.000000	0.000000	0.000000	0.000000	92.195246	4.735607	69.669659	68.110697	-0.000000	-0.000000	0.000000	0.000000	7.767340	6.500760	2.044840	0.068176	0.958127	-0.015381	-1.000000	-1.000000	-1.000000	-1.000000	-1.000000	-1.000000	-1.000000	147.103448	0.000000	-1.000000	-1.000000	384276.000000	1772311427.383017
-16784.595000	-19775.070000	-21057.480000	-12904.470000	0.000000	0.000000	0.000000	0.000000	106.435478	-2.030443	70.251308	70.150969	-0.000000	-0.000000	0.000000	0.000000	7.767340	6.500760	2.044840	0.068176	0.958127	-0.015381	-1.000000	-1.000000	-1.000000	-1.000000	-1.000000	-1.000000	-1.000000	147.103448	0.000000	-1.000000	-1.000000	384277.000000	1772311427.383020
-16820.145000	-19777.320000	-21092.940000	-12971.565000	0.000000	0.000000	0.000000	0.000000	70.951585	-13.045844	44.064962	50.353978	-0.000000	-0.000000	0.000000	0.000000	7.767340	6.500760	2.044840	0.068176	0.958127	-0.015381	-1.000000	-1.000000	-1.000000	-1.000000	-1.000000	-1.000000	-1.000000	147.103448	0.000000	-1.000000	-1.000000	384278.000000	1772311427.386748
-16767.315000	-19809.045000	-21137.670000	-12986.505000	0.000000	0.000000	0.000000	0.000000	6.988839	-24.131908	-2.211647	8.932230	-0.000000	-0.000000	0.000000	0.000000	7.767340	6.500760	2.044840	0.068176	0.958127	-0.015381	-1.000000	-1.000000	-1.000000	-1.000000	-1.000000	-1.000000	-1.000000	147.103448	0.000000	-1.000000	-1.000000	384279.000000	1772311427.386751
-16569.315000	-19849.905000	-21054.195000	-12955.725000	0.000000	0.000000	0.000000	0.000000	-45.602657	-30.551160	-50.141441	-40.411677	-0.000000	-0.000000	0.000000	0.000000	8.454040	4.333840	1.556520	0.054260	0.968625	-0.005554	-1.000000	-1.000000	-1.000000	-1.000000	-1.000000	-1.000000	-1.000000	147.103448	0.000000	-1.000000	-1.000000	384280.000000	1772311427.390545
-16722.630000	-19886.265000	-21071.160000	-12953.880000	0.000000	0.000000	0.000000	0.000000	-59.832764	-30.518967	-75.924114	-72.996644	-0.000000	-0.000000	0.000000	0.000000	8.454040	4.333840	1.556520	0.054260	0.968625	-0.005554	-1.000000	-1.000000	-1.000000	-1.000000	-1.000000	-1.000000	-1.000000	147.103448	0.000000	-1.000000	-1.000000	384281.000000	1772311427.390547
-16712.550000	-19888.020000	-21100.770000	-12874.140000	0.000000	0.000000	0.000000	0.000000	-46.947982	-23.388950	-69.687835	-72.413267	-0.000000	-0.000000	0.000000	0.000000	8.454040	4.333840	1.556520	0.054260	0.968625	-0.005554	-1.000000	-1.000000	-1.000000	-1.000000	-1.000000	-1.000000	-1.000000	147.103448	0.000000	-1.000000	-1.000000	384282.000000	1772311427.394517
-16538.040000	-19870.020000	-21052.170000	-12850.965000	0.000000	0.000000	0.000000	0.000000	-30.869423	-8.272915	-42.062245	-41.296691	-0.000000	-0.000000	0.000000	0.000000	8.454040	4.333840	1.556520	0.054260	0.968625	-0.005554	-1.000000	-1.000000	-1.000000	-1.000000	-1.000000	-1.000000	-1.000000	147.103448	0.000000	-1.000000	-1.000000	384283.000000	1772311427.394520
-16578.270000	-19892.160000	-21192.165000	-12992.220000	0.000000	0.000000	0.000000	0.000000	-14.897728	12.541640	-10.928169	-1.153539	-0.000000	-0.000000	0.000000	0.000000	8.454040	4.333840	1.556520	0.054260	0.968625	-0.005554	-1.000000	-1.000000	-1.000000	-1.000000	-1.000000	-1.000000	-1.000000	147.103448	0.000000	-1.000000	-1.000000	384284.000000	1772311427.398556
-16669.485000	-19910.430000	-21228.570000	-13022.730000	0.000000	0.000000	0.000000	0.000000	-0.585962	30.556476	7.677598	19.630819	-0.000000	-0.000000	0.000000	0.000000	8.454040	4.333840	1.556520	0.054260	0.968625	-0.005554	-1.000000	-1.000000	-1.000000	-1.000000	-1.000000	-1.000000	-1.000000	147.103448	0.000000	-1.000000	-1.000000	384285.000000	1772311427.398560
-16742.745000	-19908.855000	-21073.770000	-12931.245000	0.000000	0.000000	0.000000	0.000000	-1.242866	36.805797	12.358613	14.250558	-0.000000	-0.000000	0.000000	0.000000	8.454040	4.333840	1.556520	0.054260	0.968625	-0.005554	-1.000000	-1.000000	-1.000000	-1.000000	-1.000000	-1.000000	-1.000000	147.103448	0.000000	-1.000000	-1.000000	384286.000000	1772311427.402676
-16657.830000	-19915.290000	-20880.405000	-12827.250000	0.000000	0.000000	0.000000	0.000000	-16.951884	30.027252	23.161298	5.772978	-0.000000	-0.000000	0.000000	0.000000	8.454040	4.333840	1.556520	0.054260	0.968625	-0.005554	-1.000000	-1.000000	-1.000000	-1.000000	-1.000000	-1.000000	-1.000000	147.103448	0.000000	-1.000000	-1.000000	384287.000000	1772311427.402679
-16681.005000	-19918.800000	-20909.565000	-12851.640000	0.000000	0.000000	0.000000	0.000000	-26.834546	15.891167	51.808536	14.322827	-0.000000	-0.000000	0.000000	0.000000	8.454040	4.333840	1.556520	0.054260	0.968625	-0.005554	-1.000000	-1.000000	-1.000000	-1.000000	-1.000000	-1.000000	-1.000000	147.103448	0.000000	-1.000000	-1.000000	384288.000000	1772311427.406565
-16822.530000	-19950.345000	-21155.130000	-13084.245000	0.000000	0.000000	0.000000	0.000000	-18.551660	0.716128	71.092301	26.908011	-0.000000	-0.000000	0.000000	0.000000	8.454040	4.333840	1.556520	0.054260	0.968625	-0.005554	-1.000000	-1.000000	-1.000000	-1.000000	-1.000000	-1.000000	-1.000000	147.103448	0.000000	-1.000000	-1.000000	384289.000000	1772311427.406568
-16804.350000	-19945.620000	-21147.390000	-13050.855000	0.000000	0.000000	0.000000	0.000000	-2.793901	-11.500002	43.411040	16.278410	-0.000000	-0.000000	0.000000	0.000000	5.569900	1.480220	0.488320	0.031494	1.011594	0.004944	-1.000000	-1.000000	-1.000000	-1.000000	-1.000000	-1.000000	-1.000000	147.103448	0.000000	-1.000000	-1.000000	384290.000000	1772311427.410616
-16712.505000	-19920.600000	-21064.095000	-12950.280000	0.000000	0.000000	0.000000	0.000000	11.682779	-17.321562	-21.369686	-13.259958	-0.000000	-0.000000	0.000000	0.000000	5.569900	1.480220	0.488320	0.031494	1.011594	0.004944	-1.000000	-1.000000	-1.000000	-1.000000	-1.000000	-1.000000	-1.000000	147.103448	0.000000	-1.000000	-1.000000	384291.000000	1772311427.410620
-16563.510000	-19902.330000	-20944.395000	-12831.075000	0.000000	0.000000	0.000000	0.000000	31.876312	-13.996567	-68.989114	-26.172633	-0.000000	-0.000000	0.000000	0.000000	5.569900	1.480220	0.488320	0.031494	1.011594	0.004944	-1.000000	-1.000000	-1.000000	-1.000000	-1.000000	-1.000000	-1.000000	147.103448	0.000000	-1.000000	-1.000000	384292.000000	1772311427.414588
-16452.765000	-19881.765000	-20837.655000	-12769.920000	0.000000	0.000000	0.000000	0.000000	61.406165	-3.392035	-60.838979	-3.066266	-0.000000	-0.000000	0.000000	0.000000	5.569900	1.480220	0.488320	0.031494	1.011594	0.004944	-1.000000	-1.000000	-1.000000	-1.000000	-1.000000	-1.000000	-1.000000	147.103448	0.000000	-1.000000	-1.000000	384293.000000	1772311427.414591
-16285.770000	-19877.580000	-20687.805000	-12714.165000	0.000000	0.000000	0.000000	0.000000	87.362601	7.655724	-6.311690	37.308023	-0.000000	-0.000000	0.000000	0.000000	5.569900	1.480220	0.488320	0.031494	1.011594	0.004944	-1.000000	-1.000000	-1.000000	-1.000000	-1.000000	-1.000000	-1.000000	147.103448	0.000000	-1.000000	-1.000000	384294.000000	1772311427.418890
-16700.130000	-19913.940000	-21066.255000	-12972.330000	0.000000	0.000000	0.000000	0.000000	81.902405	11.419437	46.843791	55.990095	-0.000000	-0.000000	0.000000	0.000000	5.569900	1.480220	0.488320	0.031494	1.011594	0.004944	-1.000000	-1.000000	-1.000000	-1.000000	-1.000000	-1.000000	-1.000000	147.103448	0.000000	-1.000000	-1.000000	384295.000000	1772311427.418892
-17134.065000	-19952.145000	-21447.495000	-13285.980000	0.000000	0.000000	0.000000	0.000000	11.636759	3.660274	39.212405	20.290325	-0.000000	-0.000000	0.000000	0.000000	5.569900	1.480220	0.488320	0.031494	1.011594	0.004944	-1.000000	-1.000000	-1.000000	-1.000000	-1.000000	-1.000000	-1.000000	147.103448	0.000000	-1.000000	-1.000000	384296.000000	1772311427.422544
-16723.800000	-19964.880000	-21190.770000	-13050.270000	0.000000	0.000000	0.000000	0.000000	-107.992453	-12.228167	-37.503024	-58.396509	-0.000000	-0.000000	0.000000	0.000000	5.569900	1.480220	0.488320	0.031494	1.011594	0.004944	-1.000000	-1.000000	-1.000000	-1.000000	-1.000000	-1.000000	-1.000000	147.103448	0.000000	-1.000000	-1.000000	384297.000000	1772311427.422547
-16663.860000	-19967.040000	-21156.480000	-13008.600000	0.000000	0.000000	0.000000	0.000000	-181.970178	-25.495733	-106.664320	-112.364167	-0.000000	-0.000000	0.000000	0.000000	5.569900	1.480220	0.488320	0.031494	1.011594	0.004944	-1.000000	-1.000000	-1.000000	-1.000000	-1.000000	-1.000000	-1.000000	147.103448	0.000000	-1.000000	-1.000000	384298.000000	1772311427.426652
-16763.805000	-19978.785000	-21252.915000	-13052.610000	0.000000	0.000000	0.000000	0.000000	-138.540157	-26.277538	-94.074130	-87.863743	-0.000000	-0.000000	0.000000	0.000000	5.569900	1.480220	0.488320	0.031494	1.011594	0.004944	-1.000000	-1.000000	-1.000000	-1.000000	-1.000000	-1.000000	-1.000000	147.103448	0.000000	-1.000000	-1.000000	384299.000000	1772311427.426654
-16692.255000	-19982.115000	-21194.325000	-12989.205000	0.000000	0.000000	0.000000	0.000000	-16.998453	-13.745338	-12.437400	-5.576963	-0.000000	-0.000000	0.000000	0.000000	8.362480	1.144500	-2.838360	0.040100	0.999082	0.002014	-1.000000	-1.000000	-1.000000	-1.000000	-1.000000	-1.000000	-1.000000	147.103448	0.000000	-1.000000	-1.000000	384300.000000	1772311427.430676
-16456.815000	-19988.280000	-20906.280000	-12769.605000	0.000000	0.000000	0.000000	0.000000	99.272854	4.686109	81.388226	79.396459	-0.000000	-0.000000	0.000000	0.000000	8.362480	1.144500	-2.838360	0.040100	0.999082	0.002014	-1.000000	-1.000000	-1.000000	-1.000000	-1.000000	-1.000000	-1.000000	147.103448	0.000000	-1.000000	-1.000000	384301.000000	1772311427.430679
-16391.385000	-19986.705000	-20841.120000	-12722.895000	0.000000	0.000000	0.000000	0.000000	164.078648	19.950158	149.124514	131.391629	-0.000000	-0.000000	0.000000	0.000000	8.362480	1.144500	-2.838360	0.040100	0.999082	0.002014	-1.000000	-1.000000	-1.000000	-1.000000	-1.000000	-1.000000	-1.000000	147.103448	0.000000	-1.000000	-1.000000	384302.000000	1772311427.434585
-16807.500000	-19991.025000	-21040.290000	-12853.350000	0.000000	0.000000	0.000000	0.000000	156.889380	26.471453	163.417247	131.316768	-0.000000	-0.000000	0.000000	0.000000	8.362480	1.144500	-2.838360	0.040100	0.999082	0.002014	-1.000000	-1.000000	-1.000000	-1.000000	-1.000000	-1.000000	-1.000000	147.103448	0.000000	-1.000000	-1.000000	384303.000000	1772311427.434589
-17064.180000	-20004.615000	-21256.965000	-12929.895000	0.000000	0.000000	0.000000	0.000000	63.814732	23.285876	99.113373	69.922882	-0.000000	-0.000000	0.000000	0.000000	8.362480	1.144500	-2.838360	0.040100	0.999082	0.002014	-1.000000	-1.000000	-1.000000	-1.000000	-1.000000	-1.000000	-1.000000	147.103448	0.000000	-1.000000	-1.000000	384304.000000	1772311427.438614
-16767.900000	-20012.445000	-21179.565000	-13053.330000	0.000000	0.000000	0.000000	0.000000	-77.415978	12.886861	-27.361213	-33.124671	-0.000000	-0.000000	0.000000	0.000000	8.362480	1.144500	-2.838360	0.040100	0.999082	0.002014	-1.000000	-1.000000	-1.000000	-1.000000	-1.000000	-1.000000	-1.000000	147.103448	0.000000	-1.000000	-1.000000	384305.000000	1772311427.438617
-16563.780000	-20005.380000	-20953.845000	-12976.920000	0.000000	0.000000	0.000000	0.000000	-164.370459	0.298175	-139.115866	-126.656126	-0.000000	-0.000000	0.000000	0.000000	8.362480	1.144500	-2.838360	0.040100	0.999082	0.002014	-1.000000	-1.000000	-1.000000	-1.000000	-1.000000	-1.000000	-1.000000	147.103448	0.000000	-1.000000	-1.000000	384306.000000	1772311427.448430
-16510.905000	-20020.230000	-20885.805000	-12883.590000	0.000000	0.000000	0.000000	0.000000	-127.497088	-9.029139	-159.211950	-157.076154	-0.000000	-0.000000	0.000000	0.000000	8.362480	1.144500	-2.838360	0.040100	0.999082	0.002014	-1.000000	-1.000000	-1.000000	-1.000000	-1.000000	-1.000000	-1.000000	147.103448	0.000000	-1.000000	-1.000000	384307.000000	1772311427.448433
-16364.385000	-20030.400000	-20870.190000	-12813.705000	0.000000	0.000000	0.000000	0.000000	-4.627199	-12.791497	-85.780937	-106.017351	-0.000000	-0.000000	0.000000	0.000000	8.362480	1.144500	-2.838360	0.040100	0.999082	0.002014	-1.000000	-1.000000	-1.000000	-1.000000	-1.000000	-1.000000	-1.000000	147.103448	0.000000	-1.000000	-1.000000	384308.000000	1772311427.448437
-16364.520000	-19998.675000	-20845.755000	-12824.145000	0.000000	0.000000	0.000000	0.000000	109.556780	-11.459086	14.663215	-7.184319	-0.000000	-0.000000	0.000000	0.000000	8.362480	1.144500	-2.838360	0.040100	0.999082	0.002014	-1.000000	-1.000000	-1.000000	-1.000000	-1.000000	-1.000000	-1.000000	147.103448	0.000000	-1.000000	-1.000000	384309.000000	1772311427.448439
-16874.055000	-20007.405000	-21212.640000	-13129.920000	0.000000	0.000000	0.000000	0.000000	136.404204	-5.821607	69.128634	73.309783	-0.000000	-0.000000	0.000000	0.000000	7.843640	3.357200	1.266580	0.064575	0.968442	-0.011902	-1.000000	-1.000000	-1.000000	-1.000000	-1.000000	-1.000000	-1.000000	147.103448	0.000000	-1.000000	-1.000000	384310.000000	1772311427.450609
-16826.085000	-20014.920000	-21256.605000	-13056.840000	0.000000	0.000000	0.000000	0.000000	52.442378	1.305942	44.422075	85.700302	-0.000000	-0.000000	0.000000	0.000000	7.843640	3.357200	1.266580	0.064575	0.968442	-0.011902	-1.000000	-1.000000	-1.000000	-1.000000	-1.000000	-1.000000	-1.000000	147.103448	0.000000	-1.000000	-1.000000	384311.000000	1772311427.450612
-16628.850000	-20027.700000	-21243.870000	-13042.170000	0.000000	0.000000	0.000000	0.000000	-77.369259	5.064826	-28.384423	41.774977	-0.000000	-0.000000	0.000000	0.000000	7.843640	3.357200	1.266580	0.064575	0.968442	-0.011902	-1.000000	-1.000000	-1.000000	-1.000000	-1.000000	-1.000000	-1.000000	147.103448	0.000000	-1.000000	-1.000000	384312.000000	1772311427.456111
-16499.340000	-20022.255000	-21206.835000	-13057.020000	0.000000	0.000000	0.000000	0.000000	-141.680568	3.465789	-77.730673	-4.737671	-0.000000	-0.000000	0.000000	0.000000	7.843640	3.357200	1.266580	0.064575	0.968442	-0.011902	-1.000000	-1.000000	-1.000000	-1.000000	-1.000000	-1.000000	-1.000000	147.103448	0.000000	-1.000000	-1.000000	384313.000000	1772311427.456114
-16521.480000	-19964.925000	-21096.990000	-13009.005000	0.000000	0.000000	0.000000	0.000000	-94.802794	0.321430	-58.308941	-18.732365	-0.000000	-0.000000	0.000000	0.000000	7.843640	3.357200	1.266580	0.064575	0.968442	-0.011902	-1.000000	-1.000000	-1.000000	-1.000000	-1.000000	-1.000000	-1.000000	147.103448	0.000000	-1.000000	-1.000000	384314.000000	1772311427.458762
-16726.455000	-19938.555000	-21097.305000	-13024.440000	0.000000	0.000000	0.000000	0.000000	5.769958	1.682775	16.172332	-2.551045	-0.000000	-0.000000	0.000000	0.000000	7.843640	3.357200	1.266580	0.064575	0.968442	-0.011902	-1.000000	-1.000000	-1.000000	-1.000000	-1.000000	-1.000000	-1.000000	147.103448	0.000000	-1.000000	-1.000000	384315.000000	1772311427.458765
-16779.780000	-19946.745000	-21183.435000	-13001.850000	0.000000	0.000000	0.000000	0.000000	71.022808	7.573532	91.466599	22.156092	-0.000000	-0.000000	0.000000	0.000000	7.843640	3.357200	1.266580	0.064575	0.968442	-0.011902	-1.000000	-1.000000	-1.000000	-1.000000	-1.000000	-1.000000	-1.000000	147.103448	0.000000	-1.000000	-1.000000	384316.000000	1772311427.462726
-16471.890000	-19944.765000	-20956.905000	-12881.385000	0.000000	0.000000	0.000000	0.000000	71.437969	10.514823	119.939827	37.014959	-0.000000	-0.000000	0.000000	0.000000	7.843640	3.357200	1.266580	0.064575	0.968442	-0.011902	-1.000000	-1.000000	-1.000000	-1.000000	-1.000000	-1.000000	-1.000000	147.103448	0.000000	-1.000000	-1.000000	384317.000000	1772311427.462729
-16462.755000	-19964.160000	-20809.575000	-12750.165000	0.000000	0.000000	0.000000	0.000000	47.685491	4.610805	101.026257	40.411629	-0.000000	-0.000000	0.000000	0.000000	7.843640	3.357200	1.266580	0.064575	0.968442	-0.011902	-1.000000	-1.000000	-1.000000	-1.000000	-1.000000	-1.000000	-1.000000	147.103448	0.000000	-1.000000	-1.000000	384318.000000	1772311427.466832
-16777.305000	-19980.315000	-21042.720000	-12962.115000	0.000000	0.000000	0.000000	0.000000	30.624864	-8.344102	57.830705	33.161240	-0.000000	-0.000000	0.000000	0.000000	7.843640	3.357200	1.266580	0.064575	0.968442	-0.011902	-1.000000	-1.000000	-1.000000	-1.000000	-1.000000	-1.000000	-1.000000	147.103448	0.000000	-1.000000	-1.000000	384319.000000	1772311427.466835
-16869.600000	-19996.425000	-21202.830000	-13126.320000	0.000000	0.000000	0.000000	0.000000	1.934895	-21.277216	-6.659931	1.853123	-0.000000	-0.000000	0.000000	0.000000	7.538440	2.441600	3.769220	0.051941	0.969663	-0.012207	-1.000000	-1.000000	-1.000000	-1.000000	-1.000000	-1.000000	-1.000000	147.103448	0.000000	-1.000000	-1.000000	384320.000000	1772311427.470684
-16763.400000	-19999.710000	-21136.455000	-13026.015000	0.000000	0.000000	0.000000	0.000000	-45.407056	-26.802660	-86.589772	-53.891564	-0.000000	-0.000000	0.000000	0.000000	7.538440	2.441600	3.769220	0.051941	0.969663	-0.012207	-1.000000	-1.000000	-1.000000	-1.000000	-1.000000	-1.000000	-1.000000	147.103448	0.000000	-1.000000	-1.000000	384321.000000	1772311427.470686
-16401.330000	-19969.650000	-20818.665000	-12771.045000	0.000000	0.000000	0.000000	0.000000	-67.970635	-20.769637	-135.994853	-92.066678	-0.000000	-0.000000	0.000000	0.000000	7.538440	2.441600	3.769220	0.051941	0.969663	-0.012207	-1.000000	-1.000000	-1.000000	-1.000000	-1.000000	-1.000000	-1.000000	147.103448	0.000000	-1.000000	-1.000000	384322.000000	1772311427.474845
-16269.615000	-19946.880000	-20739.195000	-12714.120000	0.000000	0.000000	0.000000	0.000000	-23.886076	-4.016951	-106.324859	-67.740339	-0.000000	-0.000000	0.000000	0.000000	7.538440	2.441600	3.769220	0.051941	0.969663	-0.012207	-1.000000	-1.000000	-1.000000	-1.000000	-1.000000	-1.000000	-1.000000	147.103448	0.000000	-1.000000	-1.000000	384323.000000	1772311427.474847
-16777.710000	-19965.330000	-21290.715000	-13195.080000	0.000000	0.000000	0.000000	0.000000	54.011355	16.125786	-22.491690	-2.155715	-0.000000	-0.000000	0.000000	0.000000	7.538440	2.441600	3.769220	0.051941	0.969663	-0.012207	-1.000000	-1.000000	-1.000000	-1.000000	-1.000000	-1.000000	-1.000000	147.103448	0.000000	-1.000000	-1.000000	384324.000000	1772311427.478765
-16877.970000	-19964.520000	-21446.595000	-13314.825000	0.000000	0.000000	0.000000	0.000000	75.784480	28.371091	26.018375	29.522338	-0.000000	-0.000000	0.000000	0.000000	7.538440	2.441600	3.769220	0.051941	0.969663	-0.012207	-1.000000	-1.000000	-1.000000	-1.000000	-1.000000	-1.000000	-1.000000	147.103448	0.000000	-1.000000	-1.000000	384325.000000	1772311427.478768
-16612.515000	-19960.515000	-21163.005000	-13048.560000	0.000000	0.000000	0.000000	0.000000	13.288215	26.431763	3.480726	1.721257	-0.000000	-0.000000	0.000000	0.000000	7.538440	2.441600	3.769220	0.051941	0.969663	-0.012207	-1.000000	-1.000000	-1.000000	-1.000000	-1.000000	-1.000000	-1.000000	147.103448	0.000000	-1.000000	-1.000000	384326.000000	1772311427.482797
-16643.430000	-19975.725000	-21154.365000	-12983.445000	0.000000	0.000000	0.000000	0.000000	-59.499377	13.572106	-25.934677	-25.527762	-0.000000	-0.000000	0.000000	0.000000	7.538440	2.441600	3.769220	0.051941	0.969663	-0.012207	-1.000000	-1.000000	-1.000000	-1.000000	-1.000000	-1.000000	-1.000000	147.103448	0.000000	-1.000000	-1.000000	384327.000000	1772311427.482800
-16643.565000	-19994.490000	-21198.060000	-12992.355000	0.000000	0.000000	0.000000	0.000000	-73.176342	-2.623223	-3.717819	-1.185388	-0.000000	-0.000000	0.000000	0.000000	7.538440	2.441600	3.769220	0.051941	0.969663	-0.012207	-1.000000	-1.000000	-1.000000	-1.000000	-1.000000	-1.000000	-1.000000	147.103448	0.000000	-1.000000	-1.000000	384328.000000	1772311427.486696
-16431.705000	-19981.665000	-20995.875000	-12880.530000	0.000000	0.000000	0.000000	0.000000	-29.517180	-15.227953	54.829124	54.930747	-0.000000	-0.000000	0.000000	0.000000	7.538440	2.441600	3.769220	0.051941	0.969663	-0.012207	-1.000000	-1.000000	-1.000000	-1.000000	-1.000000	-1.000000	-1.000000	147.103448	0.000000	-1.000000	-1.000000	384329.000000	1772311427.486698
-16588.710000	-19989.720000	-21069.810000	-12977.865000	0.000000	0.000000	0.000000	0.000000	32.005788	-19.309929	104.704026	93.249088	-0.000000	-0.000000	0.000000	0.000000	8.835540	1.403920	-1.617560	0.032410	0.980649	-0.001648	-1.000000	-1.000000	-1.000000	-1.000000	-1.000000	-1.000000	-1.000000	147.103448	0.000000	-1.000000	-1.000000	384330.000000	1772311427.490856
-16597.035000	-20029.095000	-21038.265000	-12940.965000	0.000000	0.000000	0.000000	0.000000	66.822300	-14.990172	112.444196	83.238259	-0.000000	-0.000000	0.000000	0.000000	8.835540	1.403920	-1.617560	0.032410	0.980649	-0.001648	-1.000000	-1.000000	-1.000000	-1.000000	-1.000000	-1.000000	-1.000000	147.103448	0.000000	-1.000000	-1.000000	384331.000000	1772311427.490859
-16507.575000	-20064.420000	-21062.115000	-12949.875000	0.000000	0.000000	0.000000	0.000000	53.814058	-8.180756	69.410869	30.337109	-0.000000	-0.000000	0.000000	0.000000	8.835540	1.403920	-1.617560	0.032410	0.980649	-0.001648	-1.000000	-1.000000	-1.000000	-1.000000	-1.000000	-1.000000	-1.000000	147.103448	0.000000	-1.000000	-1.000000	384332.000000	1772311427.495047
-16601.175000	-20056.815000	-21110.490000	-12948.525000	0.000000	0.000000	0.000000	0.000000	11.903706	-3.657529	-3.623910	-32.977970	-0.000000	-0.000000	0.000000	0.000000	8.835540	1.403920	-1.617560	0.032410	0.980649	-0.001648	-1.000000	-1.000000	-1.000000	-1.000000	-1.000000	-1.000000	-1.000000	147.103448	0.000000	-1.000000	-1.000000	384333.000000	1772311427.495049
-16450.155000	-20038.545000	-21080.115000	-12988.035000	0.000000	0.000000	0.000000	0.000000	-26.558310	0.483883	-71.795783	-75.525132	-0.000000	-0.000000	0.000000	0.000000	8.835540	1.403920	-1.617560	0.032410	0.980649	-0.001648	-1.000000	-1.000000	-1.000000	-1.000000	-1.000000	-1.000000	-1.000000	147.103448	0.000000	-1.000000	-1.000000	384334.000000	1772311427.499583
-16686.540000	-20074.230000	-21094.020000	-13040.055000	0.000000	0.000000	0.000000	0.000000	-44.494656	7.286688	-105.782389	-85.970655	-0.000000	-0.000000	0.000000	0.000000	8.835540	1.403920	-1.617560	0.032410	0.980649	-0.001648	-1.000000	-1.000000	-1.000000	-1.000000	-1.000000	-1.000000	-1.000000	147.103448	0.000000	-1.000000	-1.000000	384335.000000	1772311427.499585
-16455.690000	-20060.415000	-20831.805000	-12773.115000	0.000000	0.000000	0.000000	0.000000	-43.058139	14.140128	-91.202696	-64.914928	-0.000000	-0.000000	0.000000	0.000000	8.835540	1.403920	-1.617560	0.032410	0.980649	-0.001648	-1.000000	-1.000000	-1.000000	-1.000000	-1.000000	-1.000000	-1.000000	147.103448	0.000000	-1.000000	-1.000000	384336.000000	1772311427.506568
-16233.705000	-20024.190000	-20747.520000	-12715.830000	0.000000	0.000000	0.000000	0.000000	-21.102660	17.453662	-31.988919	-14.184061	-0.000000	-0.000000	0.000000	0.000000	8.835540	1.403920	-1.617560	0.032410	0.980649	-0.001648	-1.000000	-1.000000	-1.000000	-1.000000	-1.000000	-1.000000	-1.000000	147.103448	0.000000	-1.000000	-1.000000	384337.000000	1772311427.506571
-16428.105000	-20046.105000	-20958.840000	-12888.135000	0.000000	0.000000	0.000000	0.000000	20.215817	17.172191	38.052802	44.716809	-0.000000	-0.000000	0.000000	0.000000	8.835540	1.403920	-1.617560	0.032410	0.980649	-0.001648	-1.000000	-1.000000	-1.000000	-1.000000	-1.000000	-1.000000	-1.000000	147.103448	0.000000	-1.000000	-1.000000	384338.000000	1772311427.506576
-16803.225000	-20086.470000	-21289.500000	-13137.165000	0.000000	0.000000	0.000000	0.000000	43.071296	12.047294	60.369581	64.396313	-0.000000	-0.000000	0.000000	0.000000	8.835540	1.403920	-1.617560	0.032410	0.980649	-0.001648	-1.000000	-1.000000	-1.000000	-1.000000	-1.000000	-1.000000	-1.000000	147.103448	0.000000	-1.000000	-1.000000	384339.000000	1772311427.506578
-16779.015000	-20100.330000	-21230.460000	-13113.270000	0.000000	0.000000	0.000000	0.000000	7.512872	0.032418	9.332548	21.631426	-0.000000	-0.000000	0.000000	0.000000	9.751140	-1.327620	1.098720	0.018677	0.996274	0.002197	-1.000000	-1.000000	-1.000000	-1.000000	-1.000000	-1.000000	-1.000000	147.103448	0.000000	-1.000000	-1.000000	384340.000000	1772311427.510878
-16712.100000	-20121.345000	-21240.945000	-13085.955000	0.000000	0.000000	0.000000	0.000000	-58.438629	-15.043912	-65.886615	-44.532455	-0.000000	-0.000000	0.000000	0.000000	9.751140	-1.327620	1.098720	0.018677	0.996274	0.002197	-1.000000	-1.000000	-1.000000	-1.000000	-1.000000	-1.000000	-1.000000	147.103448	0.000000	-1.000000	-1.000000	384341.000000	1772311427.510881
-16687.890000	-20092.815000	-21256.380000	-13092.030000	0.000000	0.000000	0.000000	0.000000	-84.746736	-24.149896	-93.057280	-73.247649	-0.000000	-0.000000	0.000000	0.000000	9.751140	-1.327620	1.098720	0.018677	0.996274	0.002197	-1.000000	-1.000000	-1.000000	-1.000000	-1.000000	-1.000000	-1.000000	147.103448	0.000000	-1.000000	-1.000000	384342.000000	1772311427.514867
-16571.250000	-20043.945000	-21134.790000	-12981.420000	0.000000	0.000000	0.000000	0.000000	-40.854525	-19.671802	-48.783772	-42.208765	-0.000000	-0.000000	0.000000	0.000000	9.751140	-1.327620	1.098720	0.018677	0.996274	0.002197	-1.000000	-1.000000	-1.000000	-1.000000	-1.000000	-1.000000	-1.000000	147.103448	0.000000	-1.000000	-1.000000	384343.000000	1772311427.514870
-16593.120000	-20020.815000	-21093.570000	-12942.315000	0.000000	0.000000	0.000000	0.000000	42.860037	-1.736499	37.713579	25.519366	-0.000000	-0.000000	0.000000	0.000000	9.751140	-1.327620	1.098720	0.018677	0.996274	0.002197	-1.000000	-1.000000	-1.000000	-1.000000	-1.000000	-1.000000	-1.000000	147.103448	0.000000	-1.000000	-1.000000	384344.000000	1772311427.518992
-16561.260000	-20005.830000	-21021.570000	-12925.215000	0.000000	0.000000	0.000000	0.000000	110.164158	19.410376	116.612441	87.376989	-0.000000	-0.000000	0.000000	0.000000	9.751140	-1.327620	1.098720	0.018677	0.996274	0.002197	-1.000000	-1.000000	-1.000000	-1.000000	-1.000000	-1.000000	-1.000000	147.103448	0.000000	-1.000000	-1.000000	384345.000000	1772311427.518995
-16432.380000	-19974.870000	-20833.200000	-12722.715000	0.000000	0.000000	0.000000	0.000000	124.162491	30.601794	149.663121	110.935218	-0.000000	-0.000000	0.000000	0.000000	9.751140	-1.327620	1.098720	0.018677	0.996274	0.002197	-1.000000	-1.000000	-1.000000	-1.000000	-1.000000	-1.000000	-1.000000	147.103448	0.000000	-1.000000	-1.000000	384346.000000	1772311427.523041
