Channel1	Channel2	Channel3	Channel4	Channel5	Channel6	Channel7	Channel8	FilteredChannel1	FilteredChannel2	FilteredChannel3	FilteredChannel4	FilteredChannel5	FilteredChannel6	FilteredChannel7	FilteredChannel8	GyroX	GyroY	GyroZ	AccX	AccY	AccZ	PPG1	PPG2	rawPPG1	rawPPG2	rawPPG3	Hr	Hrv	Battery	Trigger	PhysicalTrigger	AutoTrigger	NumMeasurements	Timestamp
-21400.020000	-27035.415000	-27076.185000	-14534.910000	0.000000	0.000000	0.000000	0.000000	-5.426788	2.524908	-3.738117	-4.229499	0.000000	0.000000	-0.000000	-0.000000	3.036740	0.137340	-0.244160	0.018555	0.982236	0.016846	-1.000000	-1.000000	-1.000000	-1.000000	-1.000000	-1.000000	-1.000000	146.758621	0.000000	-1.000000	-1.000000	474149.000000	1772311607.659140
-21387.015000	-27080.820000	-27063.855000	-14519.745000	0.000000	0.000000	0.000000	0.000000	-5.103072	-6.860681	-2.844646	-3.013697	0.000000	0.000000	-0.000000	-0.000000	3.036740	0.137340	-0.244160	0.018555	0.982236	0.016846	-1.000000	-1.000000	-1.000000	-1.000000	-1.000000	-1.000000	-1.000000	146.758621	0.000000	-1.000000	-1.000000	474150.000000	1772311607.659142
-21373.470000	-27086.220000	-27050.850000	-14506.110000	0.000000	0.000000	0.000000	0.000000	-0.473462	-22.204449	1.759222	2.350865	0.000000	0.000000	-0.000000	-0.000000	3.036740	0.137340	-0.244160	0.018555	0.982236	0.016846	-1.000000	-1.000000	-1.000000	-1.000000	-1.000000	-1.000000	-1.000000	146.758621	0.000000	-1.000000	-1.000000	474151.000000	1772311607.663086
-21374.640000	-27094.905000	-27056.115000	-14511.600000	0.000000	0.000000	0.000000	0.000000	5.932464	-30.475800	7.073397	8.409722	0.000000	0.000000	-0.000000	-0.000000	3.036740	0.137340	-0.244160	0.018555	0.982236	0.016846	-1.000000	-1.000000	-1.000000	-1.000000	-1.000000	-1.000000	-1.000000	146.758621	0.000000	-1.000000	-1.000000	474152.000000	1772311607.663089
-21386.385000	-27109.080000	-27070.065000	-14525.280000	0.000000	0.000000	0.000000	0.000000	9.194811	-23.582285	8.418609	9.897357	0.000000	0.000000	-0.000000	-0.000000	3.036740	0.137340	-0.244160	0.018555	0.982236	0.016846	-1.000000	-1.000000	-1.000000	-1.000000	-1.000000	-1.000000	-1.000000	146.758621	0.000000	-1.000000	-1.000000	474153.000000	1772311607.667043
-21374.325000	-27147.150000	-27057.645000	-14516.010000	0.000000	0.000000	0.000000	0.000000	6.492675	-5.039500	3.884470	4.685704	0.000000	0.000000	-0.000000	-0.000000	3.036740	0.137340	-0.244160	0.018555	0.982236	0.016846	-1.000000	-1.000000	-1.000000	-1.000000	-1.000000	-1.000000	-1.000000	146.758621	0.000000	-1.000000	-1.000000	474154.000000	1772311607.667046
-21376.215000	-27154.080000	-27059.715000	-14517.495000	0.000000	0.000000	0.000000	0.000000	-0.029151	14.238927	-3.316347	-3.725856	0.000000	0.000000	-0.000000	-0.000000	3.341940	0.335720	-0.595140	0.019592	0.981260	0.016968	-1.000000	-1.000000	-1.000000	-1.000000	-1.000000	-1.000000	-1.000000	146.758621	0.000000	-1.000000	-1.000000	474155.000000	1772311607.671123
-21389.895000	-27129.870000	-27071.820000	-14528.115000	0.000000	0.000000	0.000000	0.000000	-6.139934	26.561025	-8.524690	-9.986090	0.000000	0.000000	-0.000000	-0.000000	3.341940	0.335720	-0.595140	0.019592	0.981260	0.016968	-1.000000	-1.000000	-1.000000	-1.000000	-1.000000	-1.000000	-1.000000	146.758621	0.000000	-1.000000	-1.000000	474156.000000	1772311607.671126
-21387.555000	-27145.530000	-27068.400000	-14524.740000	0.000000	0.000000	0.000000	0.000000	-9.518986	31.172740	-9.921295	-11.600819	0.000000	0.000000	-0.000000	-0.000000	3.341940	0.335720	-0.595140	0.019592	0.981260	0.016968	-1.000000	-1.000000	-1.000000	-1.000000	-1.000000	-1.000000	-1.000000	146.758621	0.000000	-1.000000	-1.000000	474157.000000	1772311607.675130
-21369.105000	-27185.850000	-27050.400000	-14507.595000	0.000000	0.000000	0.000000	0.000000	-9.101817	28.225558	-7.486612	-8.518906	0.000000	0.000000	-0.000000	-0.000000	3.341940	0.335720	-0.595140	0.019592	0.981260	0.016968	-1.000000	-1.000000	-1.000000	-1.000000	-1.000000	-1.000000	-1.000000	146.758621	0.000000	-1.000000	-1.000000	474158.000000	1772311607.675133
-21365.820000	-27214.695000	-27049.905000	-14505.840000	0.000000	0.000000	0.000000	0.000000	-4.366669	16.515298	-1.733449	-1.807847	0.000000	0.000000	-0.000000	-0.000000	3.341940	0.335720	-0.595140	0.019592	0.981260	0.016968	-1.000000	-1.000000	-1.000000	-1.000000	-1.000000	-1.000000	-1.000000	146.758621	0.000000	-1.000000	-1.000000	474159.000000	1772311607.679184
-21353.805000	-27250.290000	-27036.315000	-14493.690000	0.000000	0.000000	0.000000	0.000000	2.823901	-1.377348	5.054792	5.705471	-0.000000	0.000000	-0.000000	-0.000000	3.341940	0.335720	-0.595140	0.019592	0.981260	0.016968	-1.000000	-1.000000	-1.000000	-1.000000	-1.000000	-1.000000	-1.000000	146.758621	0.000000	-1.000000	-1.000000	474160.000000	1772311607.679187
-21369.555000	-27239.220000	-27054.630000	-14510.340000	0.000000	0.000000	0.000000	0.000000	8.321438	-17.302831	9.203988	10.115780	-0.000000	0.000000	-0.000000	-0.000000	3.341940	0.335720	-0.595140	0.019592	0.981260	0.016968	-1.000000	-1.000000	-1.000000	-1.000000	-1.000000	-1.000000	-1.000000	146.758621	0.000000	-1.000000	-1.000000	474161.000000	1772311607.688238
-21383.955000	-27213.975000	-27068.445000	-14525.640000	0.000000	0.000000	0.000000	0.000000	8.317876	-21.962441	7.778927	8.544050	-0.000000	0.000000	-0.000000	-0.000000	3.341940	0.335720	-0.595140	0.019592	0.981260	0.016968	-1.000000	-1.000000	-1.000000	-1.000000	-1.000000	-1.000000	-1.000000	146.758621	0.000000	-1.000000	-1.000000	474162.000000	1772311607.688240
-21381.030000	-27166.365000	-27065.970000	-14521.950000	0.000000	0.000000	0.000000	0.000000	2.575731	-11.383266	1.199847	1.605155	-0.000000	0.000000	-0.000000	-0.000000	3.341940	0.335720	-0.595140	0.019592	0.981260	0.016968	-1.000000	-1.000000	-1.000000	-1.000000	-1.000000	-1.000000	-1.000000	146.758621	0.000000	-1.000000	-1.000000	474163.000000	1772311607.688244
-21379.365000	-27160.740000	-27064.710000	-14518.575000	0.000000	0.000000	0.000000	0.000000	-4.487962	8.647228	-5.891622	-5.810211	-0.000000	0.000000	-0.000000	-0.000000	3.341940	0.335720	-0.595140	0.019592	0.981260	0.016968	-1.000000	-1.000000	-1.000000	-1.000000	-1.000000	-1.000000	-1.000000	146.758621	0.000000	-1.000000	-1.000000	474164.000000	1772311607.688246
-21381.165000	-27174.465000	-27064.305000	-14515.380000	0.000000	0.000000	0.000000	0.000000	-7.736265	24.537795	-8.531003	-8.480371	-0.000000	0.000000	-0.000000	-0.000000	4.257540	-0.091560	-0.442540	0.017883	0.980649	0.018372	-1.000000	-1.000000	-1.000000	-1.000000	-1.000000	-1.000000	-1.000000	146.758621	0.000000	-1.000000	-1.000000	474165.000000	1772311607.691086
-21376.620000	-27165.195000	-27059.850000	-14513.490000	0.000000	0.000000	0.000000	0.000000	-5.725548	24.777865	-5.627499	-5.357730	-0.000000	0.000000	-0.000000	-0.000000	4.257540	-0.091560	-0.442540	0.017883	0.980649	0.018372	-1.000000	-1.000000	-1.000000	-1.000000	-1.000000	-1.000000	-1.000000	146.758621	0.000000	-1.000000	-1.000000	474166.000000	1772311607.691090
-21365.010000	-27159.255000	-27053.730000	-14515.425000	0.000000	0.000000	0.000000	0.000000	-0.379117	9.777819	0.373367	0.523186	-0.000000	0.000000	-0.000000	-0.000000	4.257540	-0.091560	-0.442540	0.017883	0.980649	0.018372	-1.000000	-1.000000	-1.000000	-1.000000	-1.000000	-1.000000	-1.000000	146.758621	0.000000	-1.000000	-1.000000	474167.000000	1772311607.695098
-21355.245000	-27172.755000	-27044.010000	-14504.895000	0.000000	0.000000	0.000000	0.000000	5.489735	-10.252062	6.128624	5.334857	-0.000000	0.000000	-0.000000	-0.000000	4.257540	-0.091560	-0.442540	0.017883	0.980649	0.018372	-1.000000	-1.000000	-1.000000	-1.000000	-1.000000	-1.000000	-1.000000	146.758621	0.000000	-1.000000	-1.000000	474168.000000	1772311607.695100
-21386.385000	-27141.120000	-27077.715000	-14535.855000	0.000000	0.000000	0.000000	0.000000	8.688046	-24.561818	8.536342	6.629800	-0.000000	0.000000	-0.000000	-0.000000	4.257540	-0.091560	-0.442540	0.017883	0.980649	0.018372	-1.000000	-1.000000	-1.000000	-1.000000	-1.000000	-1.000000	-1.000000	146.758621	0.000000	-1.000000	-1.000000	474169.000000	1772311607.699213
-21395.610000	-27107.685000	-27086.670000	-14546.880000	0.000000	0.000000	0.000000	0.000000	6.198075	-26.467239	5.291133	3.329975	-0.000000	0.000000	-0.000000	-0.000000	4.257540	-0.091560	-0.442540	0.017883	0.980649	0.018372	-1.000000	-1.000000	-1.000000	-1.000000	-1.000000	-1.000000	-1.000000	146.758621	0.000000	-1.000000	-1.000000	474170.000000	1772311607.699216
-21377.520000	-27084.195000	-27065.565000	-14529.285000	0.000000	0.000000	0.000000	0.000000	-0.876457	-15.557154	-1.819186	-2.630677	-0.000000	0.000000	-0.000000	-0.000000	4.257540	-0.091560	-0.442540	0.017883	0.980649	0.018372	-1.000000	-1.000000	-1.000000	-1.000000	-1.000000	-1.000000	-1.000000	146.758621	0.000000	-1.000000	-1.000000	474171.000000	1772311607.703373
-21380.445000	-27069.255000	-27070.695000	-14532.345000	0.000000	0.000000	0.000000	0.000000	-6.599494	1.033795	-6.716171	-6.112720	-0.000000	0.000000	-0.000000	-0.000000	4.257540	-0.091560	-0.442540	0.017883	0.980649	0.018372	-1.000000	-1.000000	-1.000000	-1.000000	-1.000000	-1.000000	-1.000000	146.758621	0.000000	-1.000000	-1.000000	474172.000000	1772311607.703375
-21383.640000	-27044.325000	-27072.630000	-14531.445000	0.000000	0.000000	0.000000	0.000000	-6.844297	13.466782	-5.851996	-4.224971	-0.000000	0.000000	-0.000000	-0.000000	4.257540	-0.091560	-0.442540	0.017883	0.980649	0.018372	-1.000000	-1.000000	-1.000000	-1.000000	-1.000000	-1.000000	-1.000000	146.758621	0.000000	-1.000000	-1.000000	474173.000000	1772311607.707230
-21382.245000	-27036.765000	-27071.505000	-14530.320000	0.000000	0.000000	0.000000	0.000000	-3.006062	16.210699	-1.388031	0.824707	-0.000000	0.000000	-0.000000	-0.000000	4.257540	-0.091560	-0.442540	0.017883	0.980649	0.018372	-1.000000	-1.000000	-1.000000	-1.000000	-1.000000	-1.000000	-1.000000	146.758621	0.000000	-1.000000	-1.000000	474174.000000	1772311607.707233
-21395.520000	-27042.615000	-27087.840000	-14548.455000	0.000000	0.000000	0.000000	0.000000	1.169747	9.572677	2.580520	4.822255	-0.000000	0.000000	-0.000000	-0.000000	5.173140	-0.091560	-0.244160	0.018005	0.980405	0.018982	-1.000000	-1.000000	-1.000000	-1.000000	-1.000000	-1.000000	-1.000000	146.965517	0.000000	-1.000000	-1.000000	474175.000000	1772311607.711209
-21393.405000	-27032.985000	-27087.570000	-14551.605000	0.000000	0.000000	0.000000	0.000000	3.025358	-2.313273	3.464102	4.883818	-0.000000	0.000000	-0.000000	-0.000000	5.173140	-0.091560	-0.244160	0.018005	0.980405	0.018982	-1.000000	-1.000000	-1.000000	-1.000000	-1.000000	-1.000000	-1.000000	146.965517	0.000000	-1.000000	-1.000000	474176.000000	1772311607.711213
-21387.195000	-27011.880000	-27077.085000	-14540.715000	0.000000	0.000000	0.000000	0.000000	2.581332	-12.875473	1.833815	1.699287	-0.000000	0.000000	-0.000000	-0.000000	5.173140	-0.091560	-0.244160	0.018005	0.980405	0.018982	-1.000000	-1.000000	-1.000000	-1.000000	-1.000000	-1.000000	-1.000000	146.965517	0.000000	-1.000000	-1.000000	474177.000000	1772311607.716368
-21402.405000	-27007.425000	-27092.880000	-14547.060000	0.000000	0.000000	0.000000	0.000000	1.492320	-16.284959	0.204762	-1.259344	-0.000000	0.000000	-0.000000	-0.000000	5.173140	-0.091560	-0.244160	0.018005	0.980405	0.018982	-1.000000	-1.000000	-1.000000	-1.000000	-1.000000	-1.000000	-1.000000	146.965517	0.000000	-1.000000	-1.000000	474178.000000	1772311607.716371
-21390.795000	-27004.815000	-27082.215000	-14534.865000	0.000000	0.000000	0.000000	0.000000	0.640067	-11.924278	-0.261280	-1.678785	-0.000000	0.000000	-0.000000	-0.000000	5.173140	-0.091560	-0.244160	0.018005	0.980405	0.018982	-1.000000	-1.000000	-1.000000	-1.000000	-1.000000	-1.000000	-1.000000	146.965517	0.000000	-1.000000	-1.000000	474179.000000	1772311607.719159
-21370.455000	-26983.800000	-27062.505000	-14518.485000	0.000000	0.000000	0.000000	0.000000	0.715381	-3.751946	0.543663	0.382099	-0.000000	0.000000	-0.000000	-0.000000	5.173140	-0.091560	-0.244160	0.018005	0.980405	0.018982	-1.000000	-1.000000	-1.000000	-1.000000	-1.000000	-1.000000	-1.000000	146.965517	0.000000	-1.000000	-1.000000	474180.000000	1772311607.719162
-21379.095000	-26985.780000	-27068.265000	-14525.415000	0.000000	0.000000	0.000000	0.000000	2.335548	4.013724	2.649909	3.425614	-0.000000	0.000000	-0.000000	-0.000000	5.173140	-0.091560	-0.244160	0.018005	0.980405	0.018982	-1.000000	-1.000000	-1.000000	-1.000000	-1.000000	-1.000000	-1.000000	146.965517	0.000000	-1.000000	-1.000000	474181.000000	1772311607.722951
-21374.730000	-26986.185000	-27064.980000	-14525.415000	0.000000	0.000000	0.000000	0.000000	3.904666	8.418199	4.397519	4.723816	-0.000000	0.000000	-0.000000	-0.000000	5.173140	-0.091560	-0.244160	0.018005	0.980405	0.018982	-1.000000	-1.000000	-1.000000	-1.000000	-1.000000	-1.000000	-1.000000	146.965517	0.000000	-1.000000	-1.000000	474182.000000	1772311607.722954
-21356.145000	-26970.435000	-27047.880000	-14510.070000	0.000000	0.000000	0.000000	0.000000	3.437396	8.352096	3.863262	2.723740	-0.000000	0.000000	-0.000000	-0.000000	5.173140	-0.091560	-0.244160	0.018005	0.980405	0.018982	-1.000000	-1.000000	-1.000000	-1.000000	-1.000000	-1.000000	-1.000000	146.965517	0.000000	-1.000000	-1.000000	474183.000000	1772311607.727259
-21383.865000	-26929.395000	-27077.265000	-14533.470000	0.000000	0.000000	0.000000	0.000000	0.947098	6.183077	0.994723	-1.332875	-0.000000	0.000000	-0.000000	-0.000000	5.173140	-0.091560	-0.244160	0.018005	0.980405	0.018982	-1.000000	-1.000000	-1.000000	-1.000000	-1.000000	-1.000000	-1.000000	146.965517	0.000000	-1.000000	-1.000000	474184.000000	1772311607.727261
-21403.800000	-26898.840000	-27098.550000	-14551.470000	0.000000	0.000000	0.000000	0.000000	-3.524865	5.931469	-4.082135	-6.072349	-0.000000	0.000000	-0.000000	-0.000000	5.600420	-0.442540	0.549360	0.016357	0.981077	0.017517	-1.000000	-1.000000	-1.000000	-1.000000	-1.000000	-1.000000	-1.000000	146.965517	0.000000	-1.000000	-1.000000	474185.000000	1772311607.734641
-21382.065000	-26865.540000	-27079.695000	-14535.135000	0.000000	0.000000	0.000000	0.000000	-8.952627	8.538992	-10.038157	-10.169694	-0.000000	0.000000	-0.000000	-0.000000	5.600420	-0.442540	0.549360	0.016357	0.981077	0.017517	-1.000000	-1.000000	-1.000000	-1.000000	-1.000000	-1.000000	-1.000000	146.965517	0.000000	-1.000000	-1.000000	474186.000000	1772311607.734645
-21386.610000	-26839.440000	-27085.770000	-14541.930000	0.000000	0.000000	0.000000	0.000000	-11.132948	10.849190	-12.404314	-10.622073	-0.000000	0.000000	-0.000000	-0.000000	5.600420	-0.442540	0.549360	0.016357	0.981077	0.017517	-1.000000	-1.000000	-1.000000	-1.000000	-1.000000	-1.000000	-1.000000	146.965517	0.000000	-1.000000	-1.000000	474187.000000	1772311607.735223
-21403.890000	-26814.240000	-27100.305000	-14556.285000	0.000000	0.000000	0.000000	0.000000	-7.632979	9.192150	-8.564136	-6.207094	-0.000000	0.000000	-0.000000	-0.000000	5.600420	-0.442540	0.549360	0.016357	0.981077	0.017517	-1.000000	-1.000000	-1.000000	-1.000000	-1.000000	-1.000000	-1.000000	146.965517	0.000000	-1.000000	-1.000000	474188.000000	1772311607.735226
-21399.030000	-26793.180000	-27096.165000	-14550.480000	0.000000	0.000000	0.000000	0.000000	-1.299769	2.678918	-1.287874	0.265149	-0.000000	0.000000	-0.000000	-0.000000	5.600420	-0.442540	0.549360	0.016357	0.981077	0.017517	-1.000000	-1.000000	-1.000000	-1.000000	-1.000000	-1.000000	-1.000000	146.965517	0.000000	-1.000000	-1.000000	474189.000000	1772311607.739264
-21387.150000	-26794.575000	-27085.410000	-14540.265000	0.000000	0.000000	0.000000	0.000000	4.414770	-6.749717	5.608728	5.883455	-0.000000	0.000000	-0.000000	-0.000000	5.600420	-0.442540	0.549360	0.016357	0.981077	0.017517	-1.000000	-1.000000	-1.000000	-1.000000	-1.000000	-1.000000	-1.000000	146.965517	0.000000	-1.000000	-1.000000	474190.000000	1772311607.739267
-21390.120000	-26791.020000	-27087.975000	-14543.955000	0.000000	0.000000	0.000000	0.000000	8.449452	-16.170471	10.365667	9.656808	-0.000000	0.000000	-0.000000	-0.000000	5.600420	-0.442540	0.549360	0.016357	0.981077	0.017517	-1.000000	-1.000000	-1.000000	-1.000000	-1.000000	-1.000000	-1.000000	146.965517	0.000000	-1.000000	-1.000000	474191.000000	1772311607.751070
-21389.130000	-26787.015000	-27088.785000	-14545.665000	0.000000	0.000000	0.000000	0.000000	10.077233	-22.435163	11.865409	10.673548	-0.000000	0.000000	-0.000000	-0.000000	5.600420	-0.442540	0.549360	0.016357	0.981077	0.017517	-1.000000	-1.000000	-1.000000	-1.000000	-1.000000	-1.000000	-1.000000	146.965517	0.000000	-1.000000	-1.000000	474192.000000	1772311607.751076
-21385.080000	-26787.600000	-27087.390000	-14545.620000	0.000000	0.000000	0.000000	0.000000	8.547339	-22.783764	9.456683	8.191428	-0.000000	0.000000	-0.000000	-0.000000	5.600420	-0.442540	0.549360	0.016357	0.981077	0.017517	-1.000000	-1.000000	-1.000000	-1.000000	-1.000000	-1.000000	-1.000000	146.965517	0.000000	-1.000000	-1.000000	474193.000000	1772311607.751081
-21377.655000	-26804.970000	-27078.930000	-14537.115000	0.000000	0.000000	0.000000	0.000000	4.668433	-17.000176	4.377509	3.350273	-0.000000	0.000000	-0.000000	-0.000000	5.600420	-0.442540	0.549360	0.016357	0.981077	0.017517	-1.000000	-1.000000	-1.000000	-1.000000	-1.000000	-1.000000	-1.000000	146.965517	0.000000	-1.000000	-1.000000	474194.000000	1772311607.751083
-21375.495000	-26800.830000	-27076.050000	-14535.360000	0.000000	0.000000	0.000000	0.000000	0.405775	-7.774379	-0.741757	-1.284316	-0.000000	0.000000	-0.000000	-0.000000	5.447820	-0.366240	0.930860	0.016602	0.981870	0.015320	-1.000000	-1.000000	-1.000000	-1.000000	-1.000000	-1.000000	-1.000000	146.965517	0.000000	-1.000000	-1.000000	474195.000000	1772311607.751501
-21373.515000	-26794.215000	-27073.350000	-14529.780000	0.000000	0.000000	0.000000	0.000000	-2.833730	2.147822	-4.006965	-3.885664	-0.000000	0.000000	-0.000000	-0.000000	5.447820	-0.366240	0.930860	0.016602	0.981870	0.015320	-1.000000	-1.000000	-1.000000	-1.000000	-1.000000	-1.000000	-1.000000	146.965517	0.000000	-1.000000	-1.000000	474196.000000	1772311607.751506
-21382.830000	-26799.750000	-27082.440000	-14538.870000	0.000000	0.000000	0.000000	0.000000	-4.920834	11.087929	-5.413757	-4.542142	-0.000000	0.000000	-0.000000	-0.000000	5.447820	-0.366240	0.930860	0.016602	0.981870	0.015320	-1.000000	-1.000000	-1.000000	-1.000000	-1.000000	-1.000000	-1.000000	146.965517	0.000000	-1.000000	-1.000000	474197.000000	1772311607.755395
-21385.305000	-26784.990000	-27084.690000	-14541.840000	0.000000	0.000000	0.000000	0.000000	-6.361557	17.272163	-6.038266	-4.589700	-0.000000	0.000000	-0.000000	-0.000000	5.447820	-0.366240	0.930860	0.016602	0.981870	0.015320	-1.000000	-1.000000	-1.000000	-1.000000	-1.000000	-1.000000	-1.000000	146.965517	0.000000	-1.000000	-1.000000	474198.000000	1772311607.755397
-21379.815000	-26801.415000	-27079.245000	-14533.650000	0.000000	0.000000	0.000000	0.000000	-6.948922	19.055162	-6.194748	-4.668429	-0.000000	0.000000	-0.000000	-0.000000	5.447820	-0.366240	0.930860	0.016602	0.981870	0.015320	-1.000000	-1.000000	-1.000000	-1.000000	-1.000000	-1.000000	-1.000000	146.965517	0.000000	-1.000000	-1.000000	474199.000000	1772311607.759392
-21380.130000	-26797.365000	-27082.215000	-14535.990000	0.000000	0.000000	0.000000	0.000000	-5.649313	15.735879	-5.064158	-3.948469	-0.000000	0.000000	-0.000000	-0.000000	5.447820	-0.366240	0.930860	0.016602	0.981870	0.015320	-1.000000	-1.000000	-1.000000	-1.000000	-1.000000	-1.000000	-1.000000	146.965517	0.000000	-1.000000	-1.000000	474200.000000	1772311607.759396
-21375.990000	-26785.350000	-27079.695000	-14533.695000	0.000000	0.000000	0.000000	0.000000	-2.263778	8.790853	-2.371593	-1.900737	-0.000000	0.000000	-0.000000	-0.000000	5.447820	-0.366240	0.930860	0.016602	0.981870	0.015320	-1.000000	-1.000000	-1.000000	-1.000000	-1.000000	-1.000000	-1.000000	146.965517	0.000000	-1.000000	-1.000000	474201.000000	1772311607.763348
-21378.780000	-26780.895000	-27083.835000	-14537.340000	0.000000	0.000000	0.000000	0.000000	1.811452	1.887991	0.843450	0.601734	-0.000000	0.000000	-0.000000	-0.000000	5.447820	-0.366240	0.930860	0.016602	0.981870	0.015320	-1.000000	-1.000000	-1.000000	-1.000000	-1.000000	-1.000000	-1.000000	146.965517	0.000000	-1.000000	-1.000000	474202.000000	1772311607.763351
-21378.015000	-26774.865000	-27082.485000	-14538.105000	0.000000	0.000000	0.000000	0.000000	4.638881	-2.277510	3.187699	2.269507	-0.000000	0.000000	-0.000000	-0.000000	5.447820	-0.366240	0.930860	0.016602	0.981870	0.015320	-1.000000	-1.000000	-1.000000	-1.000000	-1.000000	-1.000000	-1.000000	146.965517	0.000000	-1.000000	-1.000000	474203.000000	1772311607.767392
-21378.870000	-26749.035000	-27082.395000	-14539.860000	0.000000	0.000000	0.000000	0.000000	5.137418	-3.359523	3.983453	2.514740	-0.000000	0.000000	-0.000000	-0.000000	5.447820	-0.366240	0.930860	0.016602	0.981870	0.015320	-1.000000	-1.000000	-1.000000	-1.000000	-1.000000	-1.000000	-1.000000	146.965517	0.000000	-1.000000	-1.000000	474204.000000	1772311607.767395
-21392.640000	-26720.595000	-27095.355000	-14551.650000	0.000000	0.000000	0.000000	0.000000	3.392571	-1.680646	3.257252	1.514972	-0.000000	0.000000	-0.000000	-0.000000	4.852680	0.320460	0.335720	0.019043	0.982541	0.012695	-1.000000	-1.000000	-1.000000	-1.000000	-1.000000	-1.000000	-1.000000	146.965517	0.000000	-1.000000	-1.000000	474205.000000	1772311607.771310
-21377.160000	-26714.340000	-27078.660000	-14536.710000	0.000000	0.000000	0.000000	0.000000	0.471890	1.582953	1.557125	0.054735	-0.000000	0.000000	-0.000000	-0.000000	4.852680	0.320460	0.335720	0.019043	0.982541	0.012695	-1.000000	-1.000000	-1.000000	-1.000000	-1.000000	-1.000000	-1.000000	146.965517	0.000000	-1.000000	-1.000000	474206.000000	1772311607.771313
-21368.205000	-26740.215000	-27070.785000	-14527.800000	0.000000	0.000000	0.000000	0.000000	-1.369272	2.767740	0.482550	-0.238616	-0.000000	0.000000	-0.000000	-0.000000	4.852680	0.320460	0.335720	0.019043	0.982541	0.012695	-1.000000	-1.000000	-1.000000	-1.000000	-1.000000	-1.000000	-1.000000	146.965517	0.000000	-1.000000	-1.000000	474207.000000	1772311607.775437
-21367.890000	-26748.630000	-27072.090000	-14527.935000	0.000000	0.000000	0.000000	0.000000	-0.534806	-1.902408	1.182832	1.521781	-0.000000	0.000000	-0.000000	-0.000000	4.852680	0.320460	0.335720	0.019043	0.982541	0.012695	-1.000000	-1.000000	-1.000000	-1.000000	-1.000000	-1.000000	-1.000000	146.965517	0.000000	-1.000000	-1.000000	474208.000000	1772311607.775440
-21379.230000	-26726.355000	-27084.825000	-14541.570000	0.000000	0.000000	0.000000	0.000000	1.443757	-10.516403	2.140872	3.443882	-0.000000	0.000000	-0.000000	-0.000000	4.852680	0.320460	0.335720	0.019043	0.982541	0.012695	-1.000000	-1.000000	-1.000000	-1.000000	-1.000000	-1.000000	-1.000000	146.965517	0.000000	-1.000000	-1.000000	474209.000000	1772311607.785130
-21380.670000	-26702.640000	-27086.040000	-14543.370000	0.000000	0.000000	0.000000	0.000000	1.614224	-15.313562	0.958924	2.714607	-0.000000	0.000000	-0.000000	-0.000000	4.852680	0.320460	0.335720	0.019043	0.982541	0.012695	-1.000000	-1.000000	-1.000000	-1.000000	-1.000000	-1.000000	-1.000000	146.965517	0.000000	-1.000000	-1.000000	474210.000000	1772311607.785133
-21366.855000	-26682.435000	-27074.655000	-14531.805000	0.000000	0.000000	0.000000	0.000000	-0.410704	-10.690870	-2.015737	-0.530598	-0.000000	0.000000	-0.000000	-0.000000	4.852680	0.320460	0.335720	0.019043	0.982541	0.012695	-1.000000	-1.000000	-1.000000	-1.000000	-1.000000	-1.000000	-1.000000	146.965517	0.000000	-1.000000	-1.000000	474211.000000	1772311607.785137
-21357.585000	-26660.700000	-27064.845000	-14525.820000	0.000000	0.000000	0.000000	0.000000	-1.981931	1.041898	-3.746202	-3.097358	-0.000000	0.000000	-0.000000	-0.000000	4.852680	0.320460	0.335720	0.019043	0.982541	0.012695	-1.000000	-1.000000	-1.000000	-1.000000	-1.000000	-1.000000	-1.000000	146.965517	0.000000	-1.000000	-1.000000	474212.000000	1772311607.785140
-21382.515000	-26647.020000	-27090.405000	-14551.245000	0.000000	0.000000	0.000000	0.000000	-1.618745	12.448805	-2.807594	-3.210963	-0.000000	0.000000	-0.000000	-0.000000	4.852680	0.320460	0.335720	0.019043	0.982541	0.012695	-1.000000	-1.000000	-1.000000	-1.000000	-1.000000	-1.000000	-1.000000	146.965517	0.000000	-1.000000	-1.000000	474213.000000	1772311607.787779
-21401.865000	-26632.125000	-27111.555000	-14570.415000	0.000000	0.000000	0.000000	0.000000	-1.569209	17.071048	-1.805261	-2.965086	-0.000000	0.000000	-0.000000	-0.000000	4.852680	0.320460	0.335720	0.019043	0.982541	0.012695	-1.000000	-1.000000	-1.000000	-1.000000	-1.000000	-1.000000	-1.000000	146.965517	0.000000	-1.000000	-1.000000	474214.000000	1772311607.787782
-21389.670000	-26628.480000	-27099.495000	-14556.690000	0.000000	0.000000	0.000000	0.000000	-3.599120	13.044251	-3.000705	-4.097764	-0.000000	0.000000	-0.000000	-0.000000	4.181240	0.061040	0.106820	0.019470	0.982969	0.011658	-1.000000	-1.000000	-1.000000	-1.000000	-1.000000	-1.000000	-1.000000	146.965517	0.000000	-1.000000	-1.000000	474215.000000	1772311607.791384
-21391.290000	-26620.785000	-27101.655000	-14555.205000	0.000000	0.000000	0.000000	0.000000	-5.173208	3.062038	-4.161624	-4.329169	-0.000000	0.000000	-0.000000	-0.000000	4.181240	0.061040	0.106820	0.019470	0.982969	0.011658	-1.000000	-1.000000	-1.000000	-1.000000	-1.000000	-1.000000	-1.000000	146.965517	0.000000	-1.000000	-1.000000	474216.000000	1772311607.791386
-21378.915000	-26620.290000	-27083.520000	-14543.640000	0.000000	0.000000	0.000000	0.000000	-3.018174	-7.856076	-1.887223	-0.943957	-0.000000	0.000000	-0.000000	-0.000000	4.181240	0.061040	0.106820	0.019470	0.982969	0.011658	-1.000000	-1.000000	-1.000000	-1.000000	-1.000000	-1.000000	-1.000000	146.965517	0.000000	-1.000000	-1.000000	474217.000000	1772311607.795383
-21358.890000	-26659.890000	-27064.665000	-14525.640000	0.000000	0.000000	0.000000	0.000000	2.871236	-15.862066	4.137935	5.333941	-0.000000	0.000000	-0.000000	-0.000000	4.181240	0.061040	0.106820	0.019470	0.982969	0.011658	-1.000000	-1.000000	-1.000000	-1.000000	-1.000000	-1.000000	-1.000000	146.965517	0.000000	-1.000000	-1.000000	474218.000000	1772311607.795386
-21360.330000	-26671.320000	-27069.345000	-14528.970000	0.000000	0.000000	0.000000	0.000000	9.537656	-20.102422	10.808272	11.113342	-0.000000	0.000000	-0.000000	-0.000000	4.181240	0.061040	0.106820	0.019470	0.982969	0.011658	-1.000000	-1.000000	-1.000000	-1.000000	-1.000000	-1.000000	-1.000000	146.965517	0.000000	-1.000000	-1.000000	474219.000000	1772311607.799514
-21378.960000	-26679.915000	-27079.335000	-14539.455000	0.000000	0.000000	0.000000	0.000000	12.327505	-20.001947	13.118512	12.273470	-0.000000	0.000000	-0.000000	-0.000000	4.181240	0.061040	0.106820	0.019470	0.982969	0.011658	-1.000000	-1.000000	-1.000000	-1.000000	-1.000000	-1.000000	-1.000000	146.965517	0.000000	-1.000000	-1.000000	474220.000000	1772311607.799518
-21397.635000	-26687.655000	-27088.740000	-14547.645000	0.000000	0.000000	0.000000	0.000000	7.684354	-13.970977	7.993439	6.706247	-0.000000	0.000000	-0.000000	-0.000000	4.181240	0.061040	0.106820	0.019470	0.982969	0.011658	-1.000000	-1.000000	-1.000000	-1.000000	-1.000000	-1.000000	-1.000000	146.965517	0.000000	-1.000000	-1.000000	474221.000000	1772311607.803487
-21370.995000	-26692.335000	-27074.835000	-14536.170000	0.000000	0.000000	0.000000	0.000000	-2.298763	-2.535026	-2.011094	-2.888893	-0.000000	0.000000	-0.000000	-0.000000	4.181240	0.061040	0.106820	0.019470	0.982969	0.011658	-1.000000	-1.000000	-1.000000	-1.000000	-1.000000	-1.000000	-1.000000	146.965517	0.000000	-1.000000	-1.000000	474222.000000	1772311607.803490
-21363.660000	-26698.725000	-27075.105000	-14537.970000	0.000000	0.000000	0.000000	0.000000	-10.036230	10.401141	-10.339459	-10.507630	-0.000000	0.000000	-0.000000	-0.000000	4.181240	0.061040	0.106820	0.019470	0.982969	0.011658	-1.000000	-1.000000	-1.000000	-1.000000	-1.000000	-1.000000	-1.000000	146.965517	0.000000	-1.000000	-1.000000	474223.000000	1772311607.808546
-21352.320000	-26711.865000	-27064.395000	-14527.755000	0.000000	0.000000	0.000000	0.000000	-9.899082	19.734966	-12.224794	-11.964384	-0.000000	0.000000	-0.000000	-0.000000	4.181240	0.061040	0.106820	0.019470	0.982969	0.011658	-1.000000	-1.000000	-1.000000	-1.000000	-1.000000	-1.000000	-1.000000	146.965517	0.000000	-1.000000	-1.000000	474224.000000	1772311607.808549
-21367.575000	-26714.565000	-27080.190000	-14537.610000	0.000000	0.000000	0.000000	0.000000	-3.783319	22.080747	-8.227571	-7.797194	-0.000000	0.000000	-0.000000	-0.000000	4.318580	0.030520	0.366240	0.019165	0.982480	0.012390	-1.000000	-1.000000	-1.000000	-1.000000	-1.000000	-1.000000	-1.000000	146.965517	0.000000	-1.000000	-1.000000	474225.000000	1772311607.811765
-21364.695000	-26717.085000	-27077.670000	-14535.405000	0.000000	0.000000	0.000000	0.000000	2.015539	17.757118	-2.582487	-1.807061	-0.000000	0.000000	-0.000000	-0.000000	4.318580	0.030520	0.366240	0.019165	0.982480	0.012390	-1.000000	-1.000000	-1.000000	-1.000000	-1.000000	-1.000000	-1.000000	146.965517	0.000000	-1.000000	-1.000000	474226.000000	1772311607.811768
-21353.715000	-26728.785000	-27066.915000	-14526.180000	0.000000	0.000000	0.000000	0.000000	3.738323	9.844571	1.427705	2.668044	-0.000000	0.000000	-0.000000	-0.000000	4.318580	0.030520	0.366240	0.019165	0.982480	0.012390	-1.000000	-1.000000	-1.000000	-1.000000	-1.000000	-1.000000	-1.000000	146.965517	0.000000	-1.000000	-1.000000	474227.000000	1772311607.817807
-21359.790000	-26730.180000	-27074.655000	-14531.715000	0.000000	0.000000	0.000000	0.000000	2.394028	1.575393	3.516069	4.762260	-0.000000	0.000000	-0.000000	-0.000000	4.318580	0.030520	0.366240	0.019165	0.982480	0.012390	-1.000000	-1.000000	-1.000000	-1.000000	-1.000000	-1.000000	-1.000000	146.965517	0.000000	-1.000000	-1.000000	474228.000000	1772311607.817810
-21355.470000	-26715.330000	-27068.400000	-14526.315000	0.000000	0.000000	0.000000	0.000000	0.289315	-4.347168	4.198830	4.796459	-0.000000	0.000000	-0.000000	-0.000000	4.318580	0.030520	0.366240	0.019165	0.982480	0.012390	-1.000000	-1.000000	-1.000000	-1.000000	-1.000000	-1.000000	-1.000000	146.965517	0.000000	-1.000000	-1.000000	474229.000000	1772311607.819481
-21365.325000	-26690.400000	-27075.645000	-14534.505000	0.000000	0.000000	0.000000	0.000000	-1.475191	-5.589985	3.573792	3.206474	-0.000000	0.000000	-0.000000	-0.000000	4.318580	0.030520	0.366240	0.019165	0.982480	0.012390	-1.000000	-1.000000	-1.000000	-1.000000	-1.000000	-1.000000	-1.000000	146.965517	0.000000	-1.000000	-1.000000	474230.000000	1772311607.819485
-21374.820000	-26681.445000	-27084.285000	-14544.630000	0.000000	0.000000	0.000000	0.000000	-2.836683	-2.009815	1.743406	0.482060	-0.000000	0.000000	-0.000000	-0.000000	4.318580	0.030520	0.366240	0.019165	0.982480	0.012390	-1.000000	-1.000000	-1.000000	-1.000000	-1.000000	-1.000000	-1.000000	146.965517	0.000000	-1.000000	-1.000000	474231.000000	1772311607.823588
-21363.795000	-26704.665000	-27073.260000	-14533.695000	0.000000	0.000000	0.000000	0.000000	-3.637301	2.363681	-0.655264	-2.434917	-0.000000	0.000000	-0.000000	-0.000000	4.318580	0.030520	0.366240	0.019165	0.982480	0.012390	-1.000000	-1.000000	-1.000000	-1.000000	-1.000000	-1.000000	-1.000000	146.965517	0.000000	-1.000000	-1.000000	474232.000000	1772311607.823592
-21360.465000	-26722.215000	-27072.405000	-14532.840000	0.000000	0.000000	0.000000	0.000000	-2.724663	1.693260	-1.978608	-3.671473	-0.000000	0.000000	-0.000000	-0.000000	4.318580	0.030520	0.366240	0.019165	0.982480	0.012390	-1.000000	-1.000000	-1.000000	-1.000000	-1.000000	-1.000000	-1.000000	146.965517	0.000000	-1.000000	-1.000000	474233.000000	1772311607.836724
-21343.230000	-26735.220000	-27058.230000	-14521.230000	0.000000	0.000000	0.000000	0.000000	0.680560	-5.534324	-0.949949	-1.982253	-0.000000	0.000000	-0.000000	-0.000000	4.318580	0.030520	0.366240	0.019165	0.982480	0.012390	-1.000000	-1.000000	-1.000000	-1.000000	-1.000000	-1.000000	-1.000000	146.965517	0.000000	-1.000000	-1.000000	474234.000000	1772311607.836728
-21317.130000	-26744.940000	-27033.435000	-14497.335000	0.000000	0.000000	0.000000	0.000000	5.768595	-14.351077	2.229766	2.053311	-0.000000	0.000000	-0.000000	-0.000000	5.539380	-0.244160	0.106820	0.018982	0.981992	0.013489	-1.000000	-1.000000	-1.000000	-1.000000	-1.000000	-1.000000	-1.000000	146.965517	0.000000	-1.000000	-1.000000	474235.000000	1772311607.836733
-21341.070000	-26744.535000	-27055.440000	-14520.870000	0.000000	0.000000	0.000000	0.000000	9.912141	-17.942094	5.651225	6.122385	-0.000000	0.000000	-0.000000	-0.000000	5.539380	-0.244160	0.106820	0.018982	0.981992	0.013489	-1.000000	-1.000000	-1.000000	-1.000000	-1.000000	-1.000000	-1.000000	146.965517	0.000000	-1.000000	-1.000000	474236.000000	1772311607.836735
-21377.745000	-26719.695000	-27091.530000	-14551.965000	0.000000	0.000000	0.000000	0.000000	8.476066	-12.621411	5.123055	6.010619	-0.000000	0.000000	-0.000000	-0.000000	5.539380	-0.244160	0.106820	0.018982	0.981992	0.013489	-1.000000	-1.000000	-1.000000	-1.000000	-1.000000	-1.000000	-1.000000	146.965517	0.000000	-1.000000	-1.000000	474237.000000	1772311607.836739
-21365.775000	-26686.080000	-27080.055000	-14541.030000	0.000000	0.000000	0.000000	0.000000	-0.503784	0.737894	-1.705276	-0.376271	-0.000000	0.000000	-0.000000	-0.000000	5.539380	-0.244160	0.106820	0.018982	0.981992	0.013489	-1.000000	-1.000000	-1.000000	-1.000000	-1.000000	-1.000000	-1.000000	146.965517	0.000000	-1.000000	-1.000000	474238.000000	1772311607.836741
-21368.835000	-26674.155000	-27076.770000	-14540.715000	0.000000	0.000000	0.000000	0.000000	-11.222053	16.705951	-10.039268	-8.356653	-0.000000	0.000000	-0.000000	-0.000000	5.539380	-0.244160	0.106820	0.018982	0.981992	0.013489	-1.000000	-1.000000	-1.000000	-1.000000	-1.000000	-1.000000	-1.000000	146.965517	0.000000	-1.000000	-1.000000	474239.000000	1772311607.839569
-21391.740000	-26656.605000	-27099.495000	-14563.485000	0.000000	0.000000	0.000000	0.000000	-15.829978	27.044286	-12.885391	-11.468742	0.000000	0.000000	-0.000000	-0.000000	5.539380	-0.244160	0.106820	0.018982	0.981992	0.013489	-1.000000	-1.000000	-1.000000	-1.000000	-1.000000	-1.000000	-1.000000	146.965517	0.000000	-1.000000	-1.000000	474240.000000	1772311607.839572
-21390.840000	-26635.860000	-27104.805000	-14568.480000	0.000000	0.000000	0.000000	0.000000	-12.622344	26.095047	-9.206336	-8.755568	0.000000	0.000000	-0.000000	-0.000000	5.539380	-0.244160	0.106820	0.018982	0.981992	0.013489	-1.000000	-1.000000	-1.000000	-1.000000	-1.000000	-1.000000	-1.000000	146.965517	0.000000	-1.000000	-1.000000	474241.000000	1772311607.843634
-21350.340000	-26625.645000	-27067.590000	-14532.570000	0.000000	0.000000	0.000000	0.000000	-3.892930	14.815602	-1.804069	-2.439620	0.000000	0.000000	-0.000000	-0.000000	5.539380	-0.244160	0.106820	0.018982	0.981992	0.013489	-1.000000	-1.000000	-1.000000	-1.000000	-1.000000	-1.000000	-1.000000	146.965517	0.000000	-1.000000	-1.000000	474242.000000	1772311607.843637
-21352.725000	-26619.030000	-27073.170000	-14537.925000	0.000000	0.000000	0.000000	0.000000	7.884280	-1.191264	7.311248	6.029590	0.000000	0.000000	-0.000000	-0.000000	5.539380	-0.244160	0.106820	0.018982	0.981992	0.013489	-1.000000	-1.000000	-1.000000	-1.000000	-1.000000	-1.000000	-1.000000	146.965517	0.000000	-1.000000	-1.000000	474243.000000	1772311607.847683
-21358.215000	-26629.290000	-27079.470000	-14542.965000	0.000000	0.000000	0.000000	0.000000	17.779949	-15.969768	14.751860	13.474409	0.000000	0.000000	-0.000000	-0.000000	5.539380	-0.244160	0.106820	0.018982	0.981992	0.013489	-1.000000	-1.000000	-1.000000	-1.000000	-1.000000	-1.000000	-1.000000	146.965517	0.000000	-1.000000	-1.000000	474244.000000	1772311607.847686
-21359.295000	-26645.670000	-27075.555000	-14539.905000	0.000000	0.000000	0.000000	0.000000	19.581054	-25.754048	15.867461	15.148060	0.000000	0.000000	-0.000000	-0.000000	6.821220	-0.305200	-0.289940	0.019409	0.980710	0.013306	-1.000000	-1.000000	-1.000000	-1.000000	-1.000000	-1.000000	-1.000000	146.965517	0.000000	-1.000000	-1.000000	474245.000000	1772311607.851702
-21355.875000	-26656.695000	-27068.850000	-14533.470000	0.000000	0.000000	0.000000	0.000000	12.095853	-28.995160	10.040672	10.047901	0.000000	0.000000	-0.000000	-0.000000	6.821220	-0.305200	-0.289940	0.019409	0.980710	0.013306	-1.000000	-1.000000	-1.000000	-1.000000	-1.000000	-1.000000	-1.000000	146.965517	0.000000	-1.000000	-1.000000	474246.000000	1772311607.851705
-21354.255000	-26673.120000	-27066.645000	-14532.705000	0.000000	0.000000	0.000000	0.000000	0.311236	-25.361454	1.339945	1.791269	0.000000	0.000000	-0.000000	-0.000000	6.821220	-0.305200	-0.289940	0.019409	0.980710	0.013306	-1.000000	-1.000000	-1.000000	-1.000000	-1.000000	-1.000000	-1.000000	146.965517	0.000000	-1.000000	-1.000000	474247.000000	1772311607.855588
-21352.455000	-26675.550000	-27062.820000	-14528.115000	0.000000	0.000000	0.000000	0.000000	-9.402096	-15.706474	-5.766765	-5.317630	0.000000	0.000000	-0.000000	-0.000000	6.821220	-0.305200	-0.289940	0.019409	0.980710	0.013306	-1.000000	-1.000000	-1.000000	-1.000000	-1.000000	-1.000000	-1.000000	146.965517	0.000000	-1.000000	-1.000000	474248.000000	1772311607.855590
-21365.190000	-26671.005000	-27078.345000	-14543.055000	0.000000	0.000000	0.000000	0.000000	-13.692630	-2.164262	-9.436628	-9.218775	0.000000	0.000000	-0.000000	-0.000000	6.821220	-0.305200	-0.289940	0.019409	0.980710	0.013306	-1.000000	-1.000000	-1.000000	-1.000000	-1.000000	-1.000000	-1.000000	146.965517	0.000000	-1.000000	-1.000000	474249.000000	1772311607.859599
-21375.315000	-26660.115000	-27090.630000	-14555.655000	0.000000	0.000000	0.000000	0.000000	-13.170530	12.201576	-10.544940	-10.476413	0.000000	0.000000	-0.000000	-0.000000	6.821220	-0.305200	-0.289940	0.019409	0.980710	0.013306	-1.000000	-1.000000	-1.000000	-1.000000	-1.000000	-1.000000	-1.000000	146.965517	0.000000	-1.000000	-1.000000	474250.000000	1772311607.859602
-21353.310000	-26659.890000	-27068.940000	-14531.625000	0.000000	0.000000	0.000000	0.000000	-9.579609	23.494257	-9.876506	-9.762478	0.000000	0.000000	-0.000000	-0.000000	6.821220	-0.305200	-0.289940	0.019409	0.980710	0.013306	-1.000000	-1.000000	-1.000000	-1.000000	-1.000000	-1.000000	-1.000000	146.965517	0.000000	-1.000000	-1.000000	474251.000000	1772311607.863641
-21342.645000	-26677.170000	-27060.345000	-14524.020000	0.000000	0.000000	0.000000	0.000000	-3.252796	27.484077	-6.170354	-5.891636	0.000000	0.000000	-0.000000	-0.000000	6.821220	-0.305200	-0.289940	0.019409	0.980710	0.013306	-1.000000	-1.000000	-1.000000	-1.000000	-1.000000	-1.000000	-1.000000	146.965517	0.000000	-1.000000	-1.000000	474252.000000	1772311607.863645
-21366.270000	-26688.870000	-27084.105000	-14545.890000	0.000000	0.000000	0.000000	0.000000	4.340635	21.784154	0.326031	0.716072	0.000000	0.000000	-0.000000	-0.000000	6.821220	-0.305200	-0.289940	0.019409	0.980710	0.013306	-1.000000	-1.000000	-1.000000	-1.000000	-1.000000	-1.000000	-1.000000	146.965517	0.000000	-1.000000	-1.000000	474253.000000	1772311607.867705
-21365.730000	-26686.620000	-27081.585000	-14545.755000	0.000000	0.000000	0.000000	0.000000	8.825474	8.861723	5.533928	5.814334	0.000000	0.000000	-0.000000	-0.000000	6.821220	-0.305200	-0.289940	0.019409	0.980710	0.013306	-1.000000	-1.000000	-1.000000	-1.000000	-1.000000	-1.000000	-1.000000	146.965517	0.000000	-1.000000	-1.000000	474254.000000	1772311607.867707
-21358.800000	-26676.405000	-27074.070000	-14542.200000	0.000000	0.000000	0.000000	0.000000	7.819211	-4.241453	6.573031	6.392122	0.000000	0.000000	-0.000000	-0.000000	6.897520	0.061040	-0.610400	0.020447	0.980100	0.010986	-1.000000	-1.000000	-1.000000	-1.000000	-1.000000	-1.000000	-1.000000	146.965517	0.000000	-1.000000	-1.000000	474255.000000	1772311607.871635
-21347.415000	-26686.980000	-27063.675000	-14533.245000	0.000000	0.000000	0.000000	0.000000	4.049373	-11.232145	5.122109	4.144187	0.000000	0.000000	-0.000000	-0.000000	6.897520	0.061040	-0.610400	0.020447	0.980100	0.010986	-1.000000	-1.000000	-1.000000	-1.000000	-1.000000	-1.000000	-1.000000	146.965517	0.000000	-1.000000	-1.000000	474256.000000	1772311607.871637
-21333.645000	-26699.040000	-27049.905000	-14516.415000	0.000000	0.000000	0.000000	0.000000	1.574481	-11.470178	4.116249	2.504151	0.000000	0.000000	-0.000000	-0.000000	6.897520	0.061040	-0.610400	0.020447	0.980100	0.010986	-1.000000	-1.000000	-1.000000	-1.000000	-1.000000	-1.000000	-1.000000	146.965517	0.000000	-1.000000	-1.000000	474257.000000	1772311607.877905
-21345.570000	-26719.830000	-27060.930000	-14521.410000	0.000000	0.000000	0.000000	0.000000	1.392083	-8.776602	4.062741	2.810614	0.000000	0.000000	-0.000000	-0.000000	6.897520	0.061040	-0.610400	0.020447	0.980100	0.010986	-1.000000	-1.000000	-1.000000	-1.000000	-1.000000	-1.000000	-1.000000	146.965517	0.000000	-1.000000	-1.000000	474258.000000	1772311607.877909
-21355.155000	-26746.245000	-27071.550000	-14531.580000	0.000000	0.000000	0.000000	0.000000	1.024734	-6.871646	2.798395	3.130898	0.000000	0.000000	-0.000000	-0.000000	6.897520	0.061040	-0.610400	0.020447	0.980100	0.010986	-1.000000	-1.000000	-1.000000	-1.000000	-1.000000	-1.000000	-1.000000	146.965517	0.000000	-1.000000	-1.000000	474259.000000	1772311607.879671
-21344.085000	-26761.455000	-27062.730000	-14525.550000	0.000000	0.000000	0.000000	0.000000	-1.538042	-6.649207	-1.092091	1.017974	0.000000	0.000000	-0.000000	-0.000000	6.897520	0.061040	-0.610400	0.020447	0.980100	0.010986	-1.000000	-1.000000	-1.000000	-1.000000	-1.000000	-1.000000	-1.000000	146.965517	0.000000	-1.000000	-1.000000	474260.000000	1772311607.879673
-21331.035000	-26759.520000	-27051.930000	-14517.945000	0.000000	0.000000	0.000000	0.000000	-4.434534	-5.950643	-5.291090	-2.735650	0.000000	0.000000	-0.000000	-0.000000	6.897520	0.061040	-0.610400	0.020447	0.980100	0.010986	-1.000000	-1.000000	-1.000000	-1.000000	-1.000000	-1.000000	-1.000000	146.965517	0.000000	-1.000000	-1.000000	474261.000000	1772311607.887276
-21324.150000	-26758.755000	-27039.375000	-14505.840000	0.000000	0.000000	0.000000	0.000000	-4.474519	-1.836106	-6.131187	-4.938298	0.000000	0.000000	-0.000000	-0.000000	6.897520	0.061040	-0.610400	0.020447	0.980100	0.010986	-1.000000	-1.000000	-1.000000	-1.000000	-1.000000	-1.000000	-1.000000	146.965517	0.000000	-1.000000	-1.000000	474262.000000	1772311607.887280
-21342.375000	-26776.980000	-27056.610000	-14522.535000	0.000000	0.000000	0.000000	0.000000	-1.849984	5.471872	-3.266449	-4.199303	0.000000	0.000000	-0.000000	-0.000000	6.897520	0.061040	-0.610400	0.020447	0.980100	0.010986	-1.000000	-1.000000	-1.000000	-1.000000	-1.000000	-1.000000	-1.000000	146.965517	0.000000	-1.000000	-1.000000	474263.000000	1772311607.887699
-21369.105000	-26783.145000	-27083.700000	-14548.590000	0.000000	0.000000	0.000000	0.000000	-0.386817	11.805545	-0.616813	-2.906678	0.000000	0.000000	-0.000000	-0.000000	6.897520	0.061040	-0.610400	0.020447	0.980100	0.010986	-1.000000	-1.000000	-1.000000	-1.000000	-1.000000	-1.000000	-1.000000	146.965517	0.000000	-1.000000	-1.000000	474264.000000	1772311607.887702
-21359.790000	-26747.460000	-27072.090000	-14537.385000	0.000000	0.000000	0.000000	0.000000	-2.498006	14.080552	-1.496498	-3.638837	0.000000	0.000000	-0.000000	-0.000000	5.920880	-0.061040	-0.854560	0.021301	0.983579	0.007202	-1.000000	-1.000000	-1.000000	-1.000000	-1.000000	-1.000000	-1.000000	146.965517	0.000000	-1.000000	-1.000000	474265.000000	1772311607.891790
-21356.460000	-26708.040000	-27070.155000	-14535.090000	0.000000	0.000000	0.000000	0.000000	-5.305947	14.159735	-3.839782	-4.734347	0.000000	0.000000	-0.000000	-0.000000	5.920880	-0.061040	-0.854560	0.021301	0.983579	0.007202	-1.000000	-1.000000	-1.000000	-1.000000	-1.000000	-1.000000	-1.000000	146.965517	0.000000	-1.000000	-1.000000	474266.000000	1772311607.891793
-21357.090000	-26717.445000	-27072.540000	-14537.070000	0.000000	0.000000	0.000000	0.000000	-4.392504	14.202181	-3.441598	-2.913489	0.000000	0.000000	-0.000000	-0.000000	5.920880	-0.061040	-0.854560	0.021301	0.983579	0.007202	-1.000000	-1.000000	-1.000000	-1.000000	-1.000000	-1.000000	-1.000000	146.965517	0.000000	-1.000000	-1.000000	474267.000000	1772311607.895739
-21349.305000	-26729.955000	-27069.210000	-14534.910000	0.000000	0.000000	0.000000	0.000000	0.677622	11.169460	0.364482	1.754944	0.000000	0.000000	-0.000000	-0.000000	5.920880	-0.061040	-0.854560	0.021301	0.983579	0.007202	-1.000000	-1.000000	-1.000000	-1.000000	-1.000000	-1.000000	-1.000000	146.965517	0.000000	-1.000000	-1.000000	474268.000000	1772311607.895742
-21348.855000	-26710.335000	-27067.860000	-14534.505000	0.000000	0.000000	0.000000	0.000000	6.760018	1.711158	5.040421	6.441540	0.000000	0.000000	-0.000000	-0.000000	5.920880	-0.061040	-0.854560	0.021301	0.983579	0.007202	-1.000000	-1.000000	-1.000000	-1.000000	-1.000000	-1.000000	-1.000000	146.965517	0.000000	-1.000000	-1.000000	474269.000000	1772311607.901687
-21346.605000	-26708.265000	-27068.850000	-14536.305000	0.000000	0.000000	0.000000	0.000000	10.325138	-10.787608	7.865708	8.585179	0.000000	0.000000	-0.000000	-0.000000	5.920880	-0.061040	-0.854560	0.021301	0.983579	0.007202	-1.000000	-1.000000	-1.000000	-1.000000	-1.000000	-1.000000	-1.000000	146.965517	0.000000	-1.000000	-1.000000	474270.000000	1772311607.901690
-21345.480000	-26715.465000	-27066.915000	-14533.290000	0.000000	0.000000	0.000000	0.000000	9.587490	-19.688519	7.515102	7.372122	0.000000	0.000000	-0.000000	-0.000000	5.920880	-0.061040	-0.854560	0.021301	0.983579	0.007202	-1.000000	-1.000000	-1.000000	-1.000000	-1.000000	-1.000000	-1.000000	146.965517	0.000000	-1.000000	-1.000000	474271.000000	1772311607.903727
-21318.480000	-26720.685000	-27037.800000	-14505.120000	0.000000	0.000000	0.000000	0.000000	5.691285	-21.927610	4.995835	4.342718	0.000000	0.000000	-0.000000	-0.000000	5.920880	-0.061040	-0.854560	0.021301	0.983579	0.007202	-1.000000	-1.000000	-1.000000	-1.000000	-1.000000	-1.000000	-1.000000	146.965517	0.000000	-1.000000	-1.000000	474272.000000	1772311607.903731
-21309.570000	-26737.740000	-27027.765000	-14497.245000	0.000000	0.000000	0.000000	0.000000	1.800703	-18.567118	2.950371	2.269786	0.000000	0.000000	-0.000000	-0.000000	5.920880	-0.061040	-0.854560	0.021301	0.983579	0.007202	-1.000000	-1.000000	-1.000000	-1.000000	-1.000000	-1.000000	-1.000000	146.965517	0.000000	-1.000000	-1.000000	474273.000000	1772311607.907819
-21373.740000	-26733.375000	-27092.340000	-14556.870000	0.000000	0.000000	0.000000	0.000000	-1.551694	-11.982537	1.121804	0.725521	0.000000	0.000000	-0.000000	-0.000000	5.920880	-0.061040	-0.854560	0.021301	0.983579	0.007202	-1.000000	-1.000000	-1.000000	-1.000000	-1.000000	-1.000000	-1.000000	146.965517	0.000000	-1.000000	-1.000000	474274.000000	1772311607.907823
-21356.955000	-26745.570000	-27077.265000	-14543.550000	0.000000	0.000000	0.000000	0.000000	-7.160516	-4.008597	-4.077736	-3.962123	0.000000	0.000000	-0.000000	-0.000000	4.135460	0.320460	-0.991900	0.021545	0.984739	0.004395	-1.000000	-1.000000	-1.000000	-1.000000	-1.000000	-1.000000	-1.000000	146.965517	0.000000	-1.000000	-1.000000	474275.000000	1772311607.911743
-21340.395000	-26755.830000	-27059.400000	-14525.640000	0.000000	0.000000	0.000000	0.000000	-13.328278	3.644199	-11.170024	-10.521546	0.000000	0.000000	-0.000000	-0.000000	4.135460	0.320460	-0.991900	0.021545	0.984739	0.004395	-1.000000	-1.000000	-1.000000	-1.000000	-1.000000	-1.000000	-1.000000	146.965517	0.000000	-1.000000	-1.000000	474276.000000	1772311607.911746
-21345.615000	-26746.065000	-27066.645000	-14531.490000	0.000000	0.000000	0.000000	0.000000	-13.607296	9.283110	-13.138442	-12.310625	0.000000	0.000000	-0.000000	-0.000000	4.135460	0.320460	-0.991900	0.021545	0.984739	0.004395	-1.000000	-1.000000	-1.000000	-1.000000	-1.000000	-1.000000	-1.000000	146.965517	0.000000	-1.000000	-1.000000	474277.000000	1772311607.915837
-21356.505000	-26745.165000	-27076.230000	-14542.335000	0.000000	0.000000	0.000000	0.000000	-6.687080	12.556296	-7.796467	-7.233746	0.000000	0.000000	-0.000000	-0.000000	4.135460	0.320460	-0.991900	0.021545	0.984739	0.004395	-1.000000	-1.000000	-1.000000	-1.000000	-1.000000	-1.000000	-1.000000	146.965517	0.000000	-1.000000	-1.000000	474278.000000	1772311607.915840
-21362.715000	-26733.285000	-27082.260000	-14550.480000	0.000000	0.000000	0.000000	0.000000	1.977940	13.908363	0.052406	0.045116	0.000000	0.000000	-0.000000	-0.000000	4.135460	0.320460	-0.991900	0.021545	0.984739	0.004395	-1.000000	-1.000000	-1.000000	-1.000000	-1.000000	-1.000000	-1.000000	146.965517	0.000000	-1.000000	-1.000000	474279.000000	1772311607.919935
-21339.945000	-26737.650000	-27057.375000	-14527.620000	0.000000	0.000000	0.000000	0.000000	7.662598	13.138302	5.902754	5.166968	0.000000	0.000000	-0.000000	-0.000000	4.135460	0.320460	-0.991900	0.021545	0.984739	0.004395	-1.000000	-1.000000	-1.000000	-1.000000	-1.000000	-1.000000	-1.000000	146.965517	0.000000	-1.000000	-1.000000	474280.000000	1772311607.919938
-21349.305000	-26760.780000	-27066.600000	-14535.540000	0.000000	0.000000	0.000000	0.000000	9.924158	9.135807	9.053729	7.735533	0.000000	0.000000	-0.000000	-0.000000	4.135460	0.320460	-0.991900	0.021545	0.984739	0.004395	-1.000000	-1.000000	-1.000000	-1.000000	-1.000000	-1.000000	-1.000000	146.965517	0.000000	-1.000000	-1.000000	474281.000000	1772311607.923836
-21354.795000	-26734.320000	-27071.415000	-14539.230000	0.000000	0.000000	0.000000	0.000000	9.365427	1.901328	9.523294	8.228133	0.000000	0.000000	-0.000000	-0.000000	4.135460	0.320460	-0.991900	0.021545	0.984739	0.004395	-1.000000	-1.000000	-1.000000	-1.000000	-1.000000	-1.000000	-1.000000	146.965517	0.000000	-1.000000	-1.000000	474282.000000	1772311607.923838
-21363.345000	-26691.795000	-27067.365000	-14531.220000	0.000000	0.000000	0.000000	0.000000	5.746773	-4.303119	6.738969	6.300782	0.000000	0.000000	-0.000000	-0.000000	4.135460	0.320460	-0.991900	0.021545	0.984739	0.004395	-1.000000	-1.000000	-1.000000	-1.000000	-1.000000	-1.000000	-1.000000	146.965517	0.000000	-1.000000	-1.000000	474283.000000	1772311607.927806
-21361.905000	-26649.180000	-27072.720000	-14536.125000	0.000000	0.000000	0.000000	0.000000	0.102706	-3.785896	1.754926	2.683486	0.000000	0.000000	-0.000000	-0.000000	4.135460	0.320460	-0.991900	0.021545	0.984739	0.004395	-1.000000	-1.000000	-1.000000	-1.000000	-1.000000	-1.000000	-1.000000	146.965517	0.000000	-1.000000	-1.000000	474284.000000	1772311607.927809
-21328.605000	-26603.955000	-27058.095000	-14524.920000	0.000000	0.000000	0.000000	0.000000	-4.131261	3.670969	-2.802528	-0.861625	0.000000	0.000000	-0.000000	-0.000000	2.502640	0.244160	-1.113980	0.021545	0.985471	0.002075	-1.000000	-1.000000	-1.000000	-1.000000	-1.000000	-1.000000	-1.000000	146.965517	0.000000	-1.000000	-1.000000	474285.000000	1772311607.931821
-21304.710000	-26595.180000	-27035.640000	-14505.615000	0.000000	0.000000	0.000000	0.000000	-3.212873	11.560258	-4.295073	-2.583234	0.000000	0.000000	-0.000000	-0.000000	2.502640	0.244160	-1.113980	0.021545	0.985471	0.002075	-1.000000	-1.000000	-1.000000	-1.000000	-1.000000	-1.000000	-1.000000	146.965517	0.000000	-1.000000	-1.000000	474286.000000	1772311607.931824
-21336.570000	-26607.465000	-27065.070000	-14535.225000	0.000000	0.000000	0.000000	0.000000	1.883253	11.393225	-2.440960	-2.216301	0.000000	0.000000	-0.000000	-0.000000	2.502640	0.244160	-1.113980	0.021545	0.985471	0.002075	-1.000000	-1.000000	-1.000000	-1.000000	-1.000000	-1.000000	-1.000000	146.965517	0.000000	-1.000000	-1.000000	474287.000000	1772311607.935884
-21353.580000	-26613.360000	-27078.210000	-14546.835000	0.000000	0.000000	0.000000	0.000000	4.311733	-0.504798	-0.978492	-2.418069	0.000000	0.000000	-0.000000	-0.000000	2.502640	0.244160	-1.113980	0.021545	0.985471	0.002075	-1.000000	-1.000000	-1.000000	-1.000000	-1.000000	-1.000000	-1.000000	146.965517	0.000000	-1.000000	-1.000000	474288.000000	1772311607.935887
-21340.215000	-26614.620000	-27063.405000	-14532.030000	0.000000	0.000000	0.000000	0.000000	-0.208065	-18.704743	-2.786500	-4.849093	0.000000	0.000000	-0.000000	-0.000000	2.502640	0.244160	-1.113980	0.021545	0.985471	0.002075	-1.000000	-1.000000	-1.000000	-1.000000	-1.000000	-1.000000	-1.000000	146.965517	0.000000	-1.000000	-1.000000	474289.000000	1772311607.939938
-21354.390000	-26635.545000	-27078.525000	-14546.115000	0.000000	0.000000	0.000000	0.000000	-7.615792	-32.639928	-5.515054	-6.861586	0.000000	0.000000	-0.000000	-0.000000	2.502640	0.244160	-1.113980	0.021545	0.985471	0.002075	-1.000000	-1.000000	-1.000000	-1.000000	-1.000000	-1.000000	-1.000000	146.965517	0.000000	-1.000000	-1.000000	474290.000000	1772311607.939941
-21355.155000	-26636.580000	-27079.110000	-14546.565000	0.000000	0.000000	0.000000	0.000000	-11.585742	-34.911431	-5.865712	-5.805819	0.000000	0.000000	-0.000000	-0.000000	2.502640	0.244160	-1.113980	0.021545	0.985471	0.002075	-1.000000	-1.000000	-1.000000	-1.000000	-1.000000	-1.000000	-1.000000	146.965517	0.000000	-1.000000	-1.000000	474291.000000	1772311607.943961
-21353.040000	-26602.155000	-27075.600000	-14544.000000	0.000000	0.000000	0.000000	0.000000	-9.758218	-24.037385	-3.343551	-2.113392	0.000000	0.000000	-0.000000	-0.000000	2.502640	0.244160	-1.113980	0.021545	0.985471	0.002075	-1.000000	-1.000000	-1.000000	-1.000000	-1.000000	-1.000000	-1.000000	146.965517	0.000000	-1.000000	-1.000000	474292.000000	1772311607.943964
-21359.970000	-26582.580000	-27084.060000	-14553.540000	0.000000	0.000000	0.000000	0.000000	-3.557800	-3.049738	0.820393	2.359261	0.000000	0.000000	-0.000000	-0.000000	2.502640	0.244160	-1.113980	0.021545	0.985471	0.002075	-1.000000	-1.000000	-1.000000	-1.000000	-1.000000	-1.000000	-1.000000	146.965517	0.000000	-1.000000	-1.000000	474293.000000	1772311607.949308
-21343.455000	-26579.790000	-27068.220000	-14537.970000	0.000000	0.000000	0.000000	0.000000	3.845016	20.042195	4.864222	5.826102	0.000000	0.000000	-0.000000	-0.000000	2.502640	0.244160	-1.113980	0.021545	0.985471	0.002075	-1.000000	-1.000000	-1.000000	-1.000000	-1.000000	-1.000000	-1.000000	146.965517	0.000000	-1.000000	-1.000000	474294.000000	1772311607.949311
-21340.530000	-26602.515000	-27063.720000	-14534.055000	0.000000	0.000000	0.000000	0.000000	9.728501	33.963829	7.654576	7.654936	0.000000	0.000000	-0.000000	-0.000000	2.273740	0.152600	-0.793520	0.020813	0.984800	0.002930	-1.000000	-1.000000	-1.000000	-1.000000	-1.000000	-1.000000	-1.000000	146.965517	0.000000	-1.000000	-1.000000	474295.000000	1772311607.952018
-21343.995000	-26617.635000	-27067.320000	-14538.555000	0.000000	0.000000	0.000000	0.000000	12.309458	31.311821	8.577589	7.819915	0.000000	0.000000	-0.000000	-0.000000	2.273740	0.152600	-0.793520	0.020813	0.984800	0.002930	-1.000000	-1.000000	-1.000000	-1.000000	-1.000000	-1.000000	-1.000000	146.965517	0.000000	-1.000000	-1.000000	474296.000000	1772311607.952021
-21344.535000	-26610.030000	-27066.420000	-14536.665000	0.000000	0.000000	0.000000	0.000000	10.393149	14.934971	6.757035	5.767813	0.000000	0.000000	-0.000000	-0.000000	2.273740	0.152600	-0.793520	0.020813	0.984800	0.002930	-1.000000	-1.000000	-1.000000	-1.000000	-1.000000	-1.000000	-1.000000	146.965517	0.000000	-1.000000	-1.000000	474297.000000	1772311607.955964
-21353.760000	-26592.840000	-27074.115000	-14543.685000	0.000000	0.000000	0.000000	0.000000	4.478458	-3.620665	2.197301	1.540167	0.000000	0.000000	-0.000000	-0.000000	2.273740	0.152600	-0.793520	0.020813	0.984800	0.002930	-1.000000	-1.000000	-1.000000	-1.000000	-1.000000	-1.000000	-1.000000	146.965517	0.000000	-1.000000	-1.000000	474298.000000	1772311607.955966
-21348.405000	-26586.720000	-27067.950000	-14537.925000	0.000000	0.000000	0.000000	0.000000	-2.812260	-13.398160	-3.321111	-3.305440	0.000000	0.000000	-0.000000	-0.000000	2.273740	0.152600	-0.793520	0.020813	0.984800	0.002930	-1.000000	-1.000000	-1.000000	-1.000000	-1.000000	-1.000000	-1.000000	146.965517	0.000000	-1.000000	-1.000000	474299.000000	1772311607.959950
-21349.980000	-26559.585000	-27070.290000	-14540.895000	0.000000	0.000000	0.000000	0.000000	-8.027118	-11.574827	-7.163391	-6.565578	0.000000	0.000000	-0.000000	-0.000000	2.273740	0.152600	-0.793520	0.020813	0.984800	0.002930	-1.000000	-1.000000	-1.000000	-1.000000	-1.000000	-1.000000	-1.000000	146.965517	0.000000	-1.000000	-1.000000	474300.000000	1772311607.959953
-21350.475000	-26524.215000	-27072.225000	-14544.180000	0.000000	0.000000	0.000000	0.000000	-9.063522	-2.213079	-7.758403	-7.037855	0.000000	0.000000	-0.000000	-0.000000	2.273740	0.152600	-0.793520	0.020813	0.984800	0.002930	-1.000000	-1.000000	-1.000000	-1.000000	-1.000000	-1.000000	-1.000000	146.965517	0.000000	-1.000000	-1.000000	474301.000000	1772311607.964057
-21353.805000	-26519.580000	-27076.185000	-14548.545000	0.000000	0.000000	0.000000	0.000000	-6.476445	8.139013	-5.669297	-5.319916	0.000000	0.000000	-0.000000	-0.000000	2.273740	0.152600	-0.793520	0.020813	0.984800	0.002930	-1.000000	-1.000000	-1.000000	-1.000000	-1.000000	-1.000000	-1.000000	146.965517	0.000000	-1.000000	-1.000000	474302.000000	1772311607.964060
-21354.390000	-26534.295000	-27076.590000	-14548.050000	0.000000	0.000000	0.000000	0.000000	-2.444552	12.454974	-2.548053	-2.736015	0.000000	0.000000	-0.000000	-0.000000	2.273740	0.152600	-0.793520	0.020813	0.984800	0.002930	-1.000000	-1.000000	-1.000000	-1.000000	-1.000000	-1.000000	-1.000000	146.965517	0.000000	-1.000000	-1.000000	474303.000000	1772311607.967980
-21332.970000	-26539.380000	-27054.090000	-14526.765000	0.000000	0.000000	0.000000	0.000000	1.456264	6.642530	0.737793	0.253812	0.000000	0.000000	-0.000000	-0.000000	2.273740	0.152600	-0.793520	0.020813	0.984800	0.002930	-1.000000	-1.000000	-1.000000	-1.000000	-1.000000	-1.000000	-1.000000	146.965517	0.000000	-1.000000	-1.000000	474304.000000	1772311607.967982
-21327.030000	-26521.380000	-27047.475000	-14522.670000	0.000000	0.000000	0.000000	0.000000	5.034833	-5.887516	4.397903	3.931185	0.000000	0.000000	-0.000000	-0.000000	2.899400	0.503580	-0.885080	0.019897	0.981931	0.004639	-1.000000	-1.000000	-1.000000	-1.000000	-1.000000	-1.000000	-1.000000	146.965517	0.000000	-1.000000	-1.000000	474305.000000	1772311607.972004
-21335.310000	-26497.665000	-27055.170000	-14532.660000	0.000000	0.000000	0.000000	0.000000	7.475719	-15.798429	7.478432	7.073557	0.000000	0.000000	-0.000000	-0.000000	2.899400	0.503580	-0.885080	0.019897	0.981931	0.004639	-1.000000	-1.000000	-1.000000	-1.000000	-1.000000	-1.000000	-1.000000	146.965517	0.000000	-1.000000	-1.000000	474306.000000	1772311607.972007
-21320.100000	-26495.730000	-27039.195000	-14515.065000	0.000000	0.000000	0.000000	0.000000	6.940214	-16.195137	7.658619	7.242242	0.000000	0.000000	-0.000000	-0.000000	2.899400	0.503580	-0.885080	0.019897	0.981931	0.004639	-1.000000	-1.000000	-1.000000	-1.000000	-1.000000	-1.000000	-1.000000	146.965517	0.000000	-1.000000	-1.000000	474307.000000	1772311607.975991
-21316.770000	-26485.155000	-27037.980000	-14507.190000	0.000000	0.000000	0.000000	0.000000	3.487396	-8.397627	4.522263	4.389601	0.000000	0.000000	-0.000000	-0.000000	2.899400	0.503580	-0.885080	0.019897	0.981931	0.004639	-1.000000	-1.000000	-1.000000	-1.000000	-1.000000	-1.000000	-1.000000	146.965517	0.000000	-1.000000	-1.000000	474308.000000	1772311607.975994
-21366.360000	-26442.945000	-27087.795000	-14550.840000	0.000000	0.000000	0.000000	0.000000	-1.683011	1.822990	-0.960861	-0.052868	0.000000	0.000000	-0.000000	-0.000000	2.899400	0.503580	-0.885080	0.019897	0.981931	0.004639	-1.000000	-1.000000	-1.000000	-1.000000	-1.000000	-1.000000	-1.000000	146.965517	0.000000	-1.000000	-1.000000	474309.000000	1772311607.980054
-21375.045000	-26417.700000	-27098.415000	-14566.905000	0.000000	0.000000	0.000000	0.000000	-8.528637	10.525922	-8.587096	-6.301858	0.000000	0.000000	-0.000000	-0.000000	2.899400	0.503580	-0.885080	0.019897	0.981931	0.004639	-1.000000	-1.000000	-1.000000	-1.000000	-1.000000	-1.000000	-1.000000	146.965517	0.000000	-1.000000	-1.000000	474310.000000	1772311607.980058
-21361.590000	-26382.555000	-27081.855000	-14553.090000	0.000000	0.000000	0.000000	0.000000	-14.586717	15.809385	-15.377023	-12.809545	0.000000	0.000000	-0.000000	-0.000000	2.899400	0.503580	-0.885080	0.019897	0.981931	0.004639	-1.000000	-1.000000	-1.000000	-1.000000	-1.000000	-1.000000	-1.000000	146.965517	0.000000	-1.000000	-1.000000	474311.000000	1772311607.984075
-21379.320000	-26346.825000	-27101.475000	-14573.115000	0.000000	0.000000	0.000000	0.000000	-14.518485	16.340380	-15.476980	-14.543888	0.000000	0.000000	-0.000000	-0.000000	2.899400	0.503580	-0.885080	0.019897	0.981931	0.004639	-1.000000	-1.000000	-1.000000	-1.000000	-1.000000	-1.000000	-1.000000	146.965517	0.000000	-1.000000	-1.000000	474312.000000	1772311607.984078
-21378.555000	-26352.945000	-27101.880000	-14576.895000	0.000000	0.000000	0.000000	0.000000	-7.020413	11.445197	-7.579518	-9.277017	0.000000	0.000000	-0.000000	-0.000000	2.899400	0.503580	-0.885080	0.019897	0.981931	0.004639	-1.000000	-1.000000	-1.000000	-1.000000	-1.000000	-1.000000	-1.000000	146.965517	0.000000	-1.000000	-1.000000	474313.000000	1772311607.988029
-21373.515000	-26363.925000	-27095.220000	-14568.030000	0.000000	0.000000	0.000000	0.000000	3.739072	0.789533	3.723707	0.099116	0.000000	0.000000	-0.000000	-0.000000	2.899400	0.503580	-0.885080	0.019897	0.981931	0.004639	-1.000000	-1.000000	-1.000000	-1.000000	-1.000000	-1.000000	-1.000000	146.965517	0.000000	-1.000000	-1.000000	474314.000000	1772311607.988031
-21339.765000	-26376.165000	-27062.865000	-14535.315000	0.000000	0.000000	0.000000	0.000000	13.446111	-13.885277	13.833758	10.125314	0.000000	0.000000	-0.000000	-0.000000	3.723440	-0.091560	-0.839300	0.018982	0.980893	0.005981	-1.000000	-1.000000	-1.000000	-1.000000	-1.000000	-1.000000	-1.000000	146.965517	0.000000	-1.000000	-1.000000	474315.000000	1772311607.992049
-21328.830000	-26388.945000	-27051.840000	-14526.360000	0.000000	0.000000	0.000000	0.000000	19.943938	-26.964488	20.512189	18.486536	0.000000	0.000000	-0.000000	-0.000000	3.723440	-0.091560	-0.839300	0.018982	0.980893	0.005981	-1.000000	-1.000000	-1.000000	-1.000000	-1.000000	-1.000000	-1.000000	146.965517	0.000000	-1.000000	-1.000000	474316.000000	1772311607.992052
-21342.690000	-26390.745000	-27066.240000	-14538.285000	0.000000	0.000000	0.000000	0.000000	20.963722	-31.744356	21.464790	21.773254	0.000000	0.000000	-0.000000	-0.000000	3.723440	-0.091560	-0.839300	0.018982	0.980893	0.005981	-1.000000	-1.000000	-1.000000	-1.000000	-1.000000	-1.000000	-1.000000	146.965517	0.000000	-1.000000	-1.000000	474317.000000	1772311607.995980
-21363.210000	-26387.280000	-27088.290000	-14557.005000	0.000000	0.000000	0.000000	0.000000	13.677736	-24.853995	13.921329	16.128406	0.000000	0.000000	-0.000000	-0.000000	3.723440	-0.091560	-0.839300	0.018982	0.980893	0.005981	-1.000000	-1.000000	-1.000000	-1.000000	-1.000000	-1.000000	-1.000000	146.965517	0.000000	-1.000000	-1.000000	474318.000000	1772311607.995983
-21358.260000	-26368.380000	-27082.980000	-14552.640000	0.000000	0.000000	0.000000	0.000000	-0.844444	-8.167298	-0.930661	2.242998	0.000000	0.000000	-0.000000	-0.000000	3.723440	-0.091560	-0.839300	0.018982	0.980893	0.005981	-1.000000	-1.000000	-1.000000	-1.000000	-1.000000	-1.000000	-1.000000	146.965517	0.000000	-1.000000	-1.000000	474319.000000	1772311608.000154
-21351.195000	-26361.945000	-27073.845000	-14545.755000	0.000000	0.000000	0.000000	0.000000	-15.297196	12.049510	-15.567771	-12.624714	0.000000	0.000000	-0.000000	-0.000000	3.723440	-0.091560	-0.839300	0.018982	0.980893	0.005981	-1.000000	-1.000000	-1.000000	-1.000000	-1.000000	-1.000000	-1.000000	146.965517	0.000000	-1.000000	-1.000000	474320.000000	1772311608.000158
-21343.005000	-26355.420000	-27066.645000	-14540.040000	0.000000	0.000000	0.000000	0.000000	-21.461594	27.672424	-21.582690	-20.087739	0.000000	0.000000	-0.000000	-0.000000	3.723440	-0.091560	-0.839300	0.018982	0.980893	0.005981	-1.000000	-1.000000	-1.000000	-1.000000	-1.000000	-1.000000	-1.000000	146.965517	0.000000	-1.000000	-1.000000	474321.000000	1772311608.004073
-21348.495000	-26356.545000	-27071.505000	-14544.090000	0.000000	0.000000	0.000000	0.000000	-17.185743	32.478198	-16.962199	-17.492142	-0.000000	0.000000	-0.000000	-0.000000	3.723440	-0.091560	-0.839300	0.018982	0.980893	0.005981	-1.000000	-1.000000	-1.000000	-1.000000	-1.000000	-1.000000	-1.000000	146.965517	0.000000	-1.000000	-1.000000	474322.000000	1772311608.004075
-21346.065000	-26367.570000	-27070.065000	-14542.965000	0.000000	0.000000	0.000000	0.000000	-7.069524	25.216957	-6.649329	-8.705674	-0.000000	0.000000	-0.000000	-0.000000	3.723440	-0.091560	-0.839300	0.018982	0.980893	0.005981	-1.000000	-1.000000	-1.000000	-1.000000	-1.000000	-1.000000	-1.000000	146.965517	0.000000	-1.000000	-1.000000	474323.000000	1772311608.008023
-21342.105000	-26350.290000	-27067.140000	-14542.020000	0.000000	0.000000	0.000000	0.000000	2.604824	10.214602	2.873951	0.447789	-0.000000	0.000000	-0.000000	-0.000000	3.723440	-0.091560	-0.839300	0.018982	0.980893	0.005981	-1.000000	-1.000000	-1.000000	-1.000000	-1.000000	-1.000000	-1.000000	146.965517	0.000000	-1.000000	-1.000000	474324.000000	1772311608.008026
-21360.465000	-26304.930000	-27086.805000	-14562.945000	0.000000	0.000000	0.000000	0.000000	7.881117	-3.948620	7.700542	5.878094	-0.000000	0.000000	-0.000000	-0.000000	3.876040	0.183120	-0.625660	0.019165	0.981931	0.005310	-1.000000	-1.000000	-1.000000	-1.000000	-1.000000	-1.000000	-1.000000	146.965517	0.000000	-1.000000	-1.000000	474325.000000	1772311608.012036
-21361.635000	-26274.420000	-27089.640000	-14566.140000	0.000000	0.000000	0.000000	0.000000	7.609274	-9.325749	6.912883	6.088553	-0.000000	0.000000	-0.000000	-0.000000	3.876040	0.183120	-0.625660	0.019165	0.981931	0.005310	-1.000000	-1.000000	-1.000000	-1.000000	-1.000000	-1.000000	-1.000000	146.965517	0.000000	-1.000000	-1.000000	474326.000000	1772311608.012039
-21343.230000	-26270.010000	-27072.720000	-14547.195000	0.000000	0.000000	0.000000	0.000000	3.939290	-5.585905	2.925974	3.112168	-0.000000	0.000000	-0.000000	-0.000000	3.876040	0.183120	-0.625660	0.019165	0.981931	0.005310	-1.000000	-1.000000	-1.000000	-1.000000	-1.000000	-1.000000	-1.000000	146.965517	0.000000	-1.000000	-1.000000	474327.000000	1772311608.016138
-21336.075000	-26276.130000	-27066.015000	-14536.620000	0.000000	0.000000	0.000000	0.000000	1.288773	-0.383381	0.330572	1.480101	-0.000000	0.000000	-0.000000	-0.000000	3.876040	0.183120	-0.625660	0.019165	0.981931	0.005310	-1.000000	-1.000000	-1.000000	-1.000000	-1.000000	-1.000000	-1.000000	146.965517	0.000000	-1.000000	-1.000000	474328.000000	1772311608.016142
-21331.665000	-26303.130000	-27060.390000	-14531.310000	0.000000	0.000000	0.000000	0.000000	1.855707	-1.601764	1.391172	3.379028	-0.000000	0.000000	-0.000000	-0.000000	3.876040	0.183120	-0.625660	0.019165	0.981931	0.005310	-1.000000	-1.000000	-1.000000	-1.000000	-1.000000	-1.000000	-1.000000	146.965517	0.000000	-1.000000	-1.000000	474329.000000	1772311608.020117
-21332.880000	-26327.070000	-27059.895000	-14530.905000	0.000000	0.000000	0.000000	0.000000	3.685007	-10.566516	4.089414	6.378856	-0.000000	0.000000	-0.000000	-0.000000	3.876040	0.183120	-0.625660	0.019165	0.981931	0.005310	-1.000000	-1.000000	-1.000000	-1.000000	-1.000000	-1.000000	-1.000000	146.965517	0.000000	-1.000000	-1.000000	474330.000000	1772311608.020120
-21329.280000	-26337.915000	-27055.530000	-14528.835000	0.000000	0.000000	0.000000	0.000000	3.761865	-21.440226	5.127438	6.747004	-0.000000	0.000000	-0.000000	-0.000000	3.876040	0.183120	-0.625660	0.019165	0.981931	0.005310	-1.000000	-1.000000	-1.000000	-1.000000	-1.000000	-1.000000	-1.000000	146.965517	0.000000	-1.000000	-1.000000	474331.000000	1772311608.028693
-21341.655000	-26317.665000	-27070.290000	-14544.765000	0.000000	0.000000	0.000000	0.000000	1.001695	-25.231777	2.898145	2.977487	-0.000000	0.000000	-0.000000	-0.000000	3.876040	0.183120	-0.625660	0.019165	0.981931	0.005310	-1.000000	-1.000000	-1.000000	-1.000000	-1.000000	-1.000000	-1.000000	146.965517	0.000000	-1.000000	-1.000000	474332.000000	1772311608.028696
-21358.170000	-26302.770000	-27086.355000	-14559.795000	0.000000	0.000000	0.000000	0.000000	-3.834395	-16.172878	-2.280182	-3.869477	-0.000000	0.000000	-0.000000	-0.000000	3.876040	0.183120	-0.625660	0.019165	0.981931	0.005310	-1.000000	-1.000000	-1.000000	-1.000000	-1.000000	-1.000000	-1.000000	146.965517	0.000000	-1.000000	-1.000000	474333.000000	1772311608.028701
-21339.855000	-26304.660000	-27069.210000	-14544.315000	0.000000	0.000000	0.000000	0.000000	-8.449693	2.823304	-7.995557	-10.482997	-0.000000	0.000000	-0.000000	-0.000000	3.876040	0.183120	-0.625660	0.019165	0.981931	0.005310	-1.000000	-1.000000	-1.000000	-1.000000	-1.000000	-1.000000	-1.000000	146.965517	0.000000	-1.000000	-1.000000	474334.000000	1772311608.028703
-21340.620000	-26300.340000	-27071.145000	-14546.070000	0.000000	0.000000	0.000000	0.000000	-9.316958	21.366756	-10.119469	-12.374162	-0.000000	0.000000	-0.000000	-0.000000	3.296160	0.106820	-0.656180	0.018249	0.982969	0.003845	-1.000000	-1.000000	-1.000000	-1.000000	-1.000000	-1.000000	-1.000000	146.965517	0.000000	-1.000000	-1.000000	474335.000000	1772311608.031973
-21345.210000	-26285.265000	-27076.320000	-14549.130000	0.000000	0.000000	0.000000	0.000000	-5.148333	30.034920	-6.786218	-7.943658	-0.000000	0.000000	-0.000000	-0.000000	3.296160	0.106820	-0.656180	0.018249	0.982969	0.003845	-1.000000	-1.000000	-1.000000	-1.000000	-1.000000	-1.000000	-1.000000	146.965517	0.000000	-1.000000	-1.000000	474336.000000	1772311608.031976
-21355.695000	-26282.340000	-27086.220000	-14559.165000	0.000000	0.000000	0.000000	0.000000	0.931637	26.721518	-0.814918	-0.525077	-0.000000	0.000000	-0.000000	-0.000000	3.296160	0.106820	-0.656180	0.018249	0.982969	0.003845	-1.000000	-1.000000	-1.000000	-1.000000	-1.000000	-1.000000	-1.000000	146.965517	0.000000	-1.000000	-1.000000	474337.000000	1772311608.037863
-21349.890000	-26279.640000	-27076.365000	-14550.345000	0.000000	0.000000	0.000000	0.000000	4.935753	15.176870	3.875466	5.332520	-0.000000	0.000000	-0.000000	-0.000000	3.296160	0.106820	-0.656180	0.018249	0.982969	0.003845	-1.000000	-1.000000	-1.000000	-1.000000	-1.000000	-1.000000	-1.000000	146.965517	0.000000	-1.000000	-1.000000	474338.000000	1772311608.037868
-21338.820000	-26281.080000	-27063.225000	-14536.980000	0.000000	0.000000	0.000000	0.000000	6.041881	0.913052	6.280191	8.092708	-0.000000	0.000000	-0.000000	-0.000000	3.296160	0.106820	-0.656180	0.018249	0.982969	0.003845	-1.000000	-1.000000	-1.000000	-1.000000	-1.000000	-1.000000	-1.000000	146.965517	0.000000	-1.000000	-1.000000	474339.000000	1772311608.040189
-21342.915000	-26278.155000	-27072.495000	-14543.280000	0.000000	0.000000	0.000000	0.000000	5.771024	-11.052760	7.240630	8.621973	-0.000000	0.000000	-0.000000	-0.000000	3.296160	0.106820	-0.656180	0.018249	0.982969	0.003845	-1.000000	-1.000000	-1.000000	-1.000000	-1.000000	-1.000000	-1.000000	146.965517	0.000000	-1.000000	-1.000000	474340.000000	1772311608.040192
-21343.410000	-26241.390000	-27071.820000	-14541.840000	0.000000	0.000000	0.000000	0.000000	4.786479	-16.723073	6.482647	7.185634	-0.000000	0.000000	-0.000000	-0.000000	3.296160	0.106820	-0.656180	0.018249	0.982969	0.003845	-1.000000	-1.000000	-1.000000	-1.000000	-1.000000	-1.000000	-1.000000	146.965517	0.000000	-1.000000	-1.000000	474341.000000	1772311608.044208
-21339.225000	-26212.545000	-27071.415000	-14543.280000	0.000000	0.000000	0.000000	0.000000	2.750264	-13.740497	3.444885	3.599254	-0.000000	0.000000	-0.000000	-0.000000	3.296160	0.106820	-0.656180	0.018249	0.982969	0.003845	-1.000000	-1.000000	-1.000000	-1.000000	-1.000000	-1.000000	-1.000000	146.965517	0.000000	-1.000000	-1.000000	474342.000000	1772311608.044211
-21331.980000	-26196.930000	-27068.985000	-14542.290000	0.000000	0.000000	0.000000	0.000000	0.207787	-3.968734	-0.686304	-1.057179	-0.000000	0.000000	-0.000000	-0.000000	3.296160	0.106820	-0.656180	0.018249	0.982969	0.003845	-1.000000	-1.000000	-1.000000	-1.000000	-1.000000	-1.000000	-1.000000	146.965517	0.000000	-1.000000	-1.000000	474343.000000	1772311608.048506
-21333.645000	-26199.945000	-27070.515000	-14543.505000	0.000000	0.000000	0.000000	0.000000	-1.683447	5.714103	-3.902892	-4.880073	-0.000000	0.000000	-0.000000	-0.000000	3.296160	0.106820	-0.656180	0.018249	0.982969	0.003845	-1.000000	-1.000000	-1.000000	-1.000000	-1.000000	-1.000000	-1.000000	146.965517	0.000000	-1.000000	-1.000000	474344.000000	1772311608.048509
-21342.465000	-26222.355000	-27075.735000	-14547.510000	0.000000	0.000000	0.000000	0.000000	-2.790418	7.882942	-5.227361	-6.595646	-0.000000	0.000000	-0.000000	-0.000000	2.227960	-0.061040	-0.610400	0.018311	0.983945	0.003174	-1.000000	-1.000000	-1.000000	-1.000000	-1.000000	-1.000000	-1.000000	146.965517	0.000000	-1.000000	-1.000000	474345.000000	1772311608.052310
-21334.410000	-26255.880000	-27068.805000	-14541.615000	0.000000	0.000000	0.000000	0.000000	-3.679646	0.021019	-4.823516	-6.018872	-0.000000	0.000000	-0.000000	-0.000000	2.227960	-0.061040	-0.610400	0.018311	0.983945	0.003174	-1.000000	-1.000000	-1.000000	-1.000000	-1.000000	-1.000000	-1.000000	146.965517	0.000000	-1.000000	-1.000000	474346.000000	1772311608.052313
-21340.575000	-26265.105000	-27072.405000	-14544.270000	0.000000	0.000000	0.000000	0.000000	-4.107543	-13.297809	-3.100716	-3.629433	-0.000000	0.000000	-0.000000	-0.000000	2.227960	-0.061040	-0.610400	0.018311	0.983945	0.003174	-1.000000	-1.000000	-1.000000	-1.000000	-1.000000	-1.000000	-1.000000	146.965517	0.000000	-1.000000	-1.000000	474347.000000	1772311608.056241
-21333.870000	-26258.040000	-27065.835000	-14539.950000	0.000000	0.000000	0.000000	0.000000	-3.404826	-22.519830	-0.635112	-0.418703	-0.000000	0.000000	-0.000000	-0.000000	2.227960	-0.061040	-0.610400	0.018311	0.983945	0.003174	-1.000000	-1.000000	-1.000000	-1.000000	-1.000000	-1.000000	-1.000000	146.965517	0.000000	-1.000000	-1.000000	474348.000000	1772311608.056243
-21335.355000	-26251.830000	-27060.435000	-14535.270000	0.000000	0.000000	0.000000	0.000000	-1.544979	-19.727444	1.829142	2.449720	-0.000000	0.000000	-0.000000	-0.000000	2.227960	-0.061040	-0.610400	0.018311	0.983945	0.003174	-1.000000	-1.000000	-1.000000	-1.000000	-1.000000	-1.000000	-1.000000	146.965517	0.000000	-1.000000	-1.000000	474349.000000	1772311608.060542
-21358.530000	-26212.770000	-27081.945000	-14554.935000	0.000000	0.000000	0.000000	0.000000	0.331465	-4.569215	3.239035	3.834789	-0.000000	0.000000	-0.000000	-0.000000	2.227960	-0.061040	-0.610400	0.018311	0.983945	0.003174	-1.000000	-1.000000	-1.000000	-1.000000	-1.000000	-1.000000	-1.000000	146.965517	0.000000	-1.000000	-1.000000	474350.000000	1772311608.060545
-21335.760000	-26201.565000	-27071.865000	-14545.170000	0.000000	0.000000	0.000000	0.000000	0.906343	15.962836	2.424031	2.867801	-0.000000	0.000000	-0.000000	-0.000000	2.227960	-0.061040	-0.610400	0.018311	0.983945	0.003174	-1.000000	-1.000000	-1.000000	-1.000000	-1.000000	-1.000000	-1.000000	146.965517	0.000000	-1.000000	-1.000000	474351.000000	1772311608.064247
-21330.405000	-26215.380000	-27068.670000	-14546.025000	0.000000	0.000000	0.000000	0.000000	1.144353	31.040478	0.142327	0.478041	-0.000000	0.000000	-0.000000	-0.000000	2.227960	-0.061040	-0.610400	0.018311	0.983945	0.003174	-1.000000	-1.000000	-1.000000	-1.000000	-1.000000	-1.000000	-1.000000	146.965517	0.000000	-1.000000	-1.000000	474352.000000	1772311608.064249
-21341.970000	-26231.445000	-27082.530000	-14561.145000	0.000000	0.000000	0.000000	0.000000	2.494113	31.405304	-1.478026	-1.414316	-0.000000	0.000000	-0.000000	-0.000000	2.227960	-0.061040	-0.610400	0.018311	0.983945	0.003174	-1.000000	-1.000000	-1.000000	-1.000000	-1.000000	-1.000000	-1.000000	146.965517	0.000000	-1.000000	-1.000000	474353.000000	1772311608.068676
-21298.905000	-26239.680000	-27034.425000	-14514.480000	0.000000	0.000000	0.000000	0.000000	4.373571	16.311261	-1.105844	-1.534629	-0.000000	0.000000	-0.000000	-0.000000	2.227960	-0.061040	-0.610400	0.018311	0.983945	0.003174	-1.000000	-1.000000	-1.000000	-1.000000	-1.000000	-1.000000	-1.000000	146.965517	0.000000	-1.000000	-1.000000	474354.000000	1772311608.068679
-21297.150000	-26260.920000	-27032.715000	-14510.880000	0.000000	0.000000	0.000000	0.000000	6.255801	-5.532816	2.093978	1.346101	-0.000000	0.000000	-0.000000	-0.000000	0.976640	0.228900	-0.289940	0.018127	0.985105	0.001648	-1.000000	-1.000000	-1.000000	-1.000000	-1.000000	-1.000000	-1.000000	146.965517	0.000000	-1.000000	-1.000000	474355.000000	1772311608.072366
-21344.895000	-26273.610000	-27082.215000	-14557.095000	0.000000	0.000000	0.000000	0.000000	6.367085	-22.925381	5.657582	5.244657	-0.000000	0.000000	-0.000000	-0.000000	0.976640	0.228900	-0.289940	0.018127	0.985105	0.001648	-1.000000	-1.000000	-1.000000	-1.000000	-1.000000	-1.000000	-1.000000	146.965517	0.000000	-1.000000	-1.000000	474356.000000	1772311608.072369
-21344.130000	-26261.055000	-27078.615000	-14555.025000	0.000000	0.000000	0.000000	0.000000	1.015841	-28.453176	3.773887	4.340598	-0.000000	0.000000	-0.000000	-0.000000	0.976640	0.228900	-0.289940	0.018127	0.985105	0.001648	-1.000000	-1.000000	-1.000000	-1.000000	-1.000000	-1.000000	-1.000000	146.965517	0.000000	-1.000000	-1.000000	474357.000000	1772311608.076310
-21341.565000	-26248.545000	-27076.320000	-14553.990000	0.000000	0.000000	0.000000	0.000000	-8.426983	-20.358528	-3.858213	-2.397946	-0.000000	0.000000	-0.000000	-0.000000	0.976640	0.228900	-0.289940	0.018127	0.985105	0.001648	-1.000000	-1.000000	-1.000000	-1.000000	-1.000000	-1.000000	-1.000000	146.965517	0.000000	-1.000000	-1.000000	474358.000000	1772311608.076313
-21334.590000	-26256.690000	-27071.055000	-14548.545000	0.000000	0.000000	0.000000	0.000000	-14.499757	-3.377058	-10.198612	-8.710275	-0.000000	0.000000	-0.000000	-0.000000	0.976640	0.228900	-0.289940	0.018127	0.985105	0.001648	-1.000000	-1.000000	-1.000000	-1.000000	-1.000000	-1.000000	-1.000000	146.965517	0.000000	-1.000000	-1.000000	474359.000000	1772311608.082222
-21322.890000	-26255.025000	-27060.345000	-14538.645000	0.000000	0.000000	0.000000	0.000000	-11.947768	12.975089	-9.535126	-8.897455	-0.000000	0.000000	-0.000000	-0.000000	0.976640	0.228900	-0.289940	0.018127	0.985105	0.001648	-1.000000	-1.000000	-1.000000	-1.000000	-1.000000	-1.000000	-1.000000	146.965517	0.000000	-1.000000	-1.000000	474360.000000	1772311608.082225
-21318.840000	-26262.270000	-27056.205000	-14536.170000	0.000000	0.000000	0.000000	0.000000	-2.323876	20.652333	-2.404877	-2.912664	-0.000000	0.000000	-0.000000	-0.000000	0.976640	0.228900	-0.289940	0.018127	0.985105	0.001648	-1.000000	-1.000000	-1.000000	-1.000000	-1.000000	-1.000000	-1.000000	146.965517	0.000000	-1.000000	-1.000000	474361.000000	1772311608.084270
-21319.920000	-26263.080000	-27056.880000	-14539.545000	0.000000	0.000000	0.000000	0.000000	8.167666	17.882754	6.161466	4.749810	-0.000000	0.000000	-0.000000	-0.000000	0.976640	0.228900	-0.289940	0.018127	0.985105	0.001648	-1.000000	-1.000000	-1.000000	-1.000000	-1.000000	-1.000000	-1.000000	146.965517	0.000000	-1.000000	-1.000000	474362.000000	1772311608.084272
-21337.110000	-26244.720000	-27074.070000	-14559.795000	0.000000	0.000000	0.000000	0.000000	13.140729	8.873819	10.486204	8.636592	-0.000000	0.000000	-0.000000	-0.000000	0.976640	0.228900	-0.289940	0.018127	0.985105	0.001648	-1.000000	-1.000000	-1.000000	-1.000000	-1.000000	-1.000000	-1.000000	146.965517	0.000000	-1.000000	-1.000000	474363.000000	1772311608.088262
-21343.905000	-26243.640000	-27080.820000	-14564.250000	0.000000	0.000000	0.000000	0.000000	9.983041	0.083425	7.887454	6.168953	-0.000000	0.000000	-0.000000	-0.000000	0.976640	0.228900	-0.289940	0.018127	0.985105	0.001648	-1.000000	-1.000000	-1.000000	-1.000000	-1.000000	-1.000000	-1.000000	146.965517	0.000000	-1.000000	-1.000000	474364.000000	1772311608.088266
-21330.630000	-26231.310000	-27066.510000	-14542.875000	0.000000	0.000000	0.000000	0.000000	1.772995	-4.575380	0.856458	0.096834	-0.000000	0.000000	-0.000000	-0.000000	0.579880	0.320460	-0.289940	0.019043	0.985227	0.002136	-1.000000	-1.000000	-1.000000	-1.000000	-1.000000	-1.000000	-1.000000	146.965517	0.000000	-1.000000	-1.000000	474365.000000	1772311608.092346
-21333.330000	-26234.460000	-27070.470000	-14545.350000	0.000000	0.000000	0.000000	0.000000	-5.104244	-5.371249	-4.878321	-3.799765	-0.000000	0.000000	-0.000000	-0.000000	0.579880	0.320460	-0.289940	0.019043	0.985227	0.002136	-1.000000	-1.000000	-1.000000	-1.000000	-1.000000	-1.000000	-1.000000	146.965517	0.000000	-1.000000	-1.000000	474366.000000	1772311608.092349
-21333.060000	-26265.465000	-27070.875000	-14546.430000	0.000000	0.000000	0.000000	0.000000	-6.759460	-5.290736	-5.911075	-2.989550	-0.000000	0.000000	-0.000000	-0.000000	0.579880	0.320460	-0.289940	0.019043	0.985227	0.002136	-1.000000	-1.000000	-1.000000	-1.000000	-1.000000	-1.000000	-1.000000	146.965517	0.000000	-1.000000	-1.000000	474367.000000	1772311608.096421
-21328.425000	-26281.665000	-27067.590000	-14543.145000	0.000000	0.000000	0.000000	0.000000	-4.070334	-7.459455	-3.280024	0.135504	-0.000000	0.000000	-0.000000	-0.000000	0.579880	0.320460	-0.289940	0.019043	0.985227	0.002136	-1.000000	-1.000000	-1.000000	-1.000000	-1.000000	-1.000000	-1.000000	146.965517	0.000000	-1.000000	-1.000000	474368.000000	1772311608.096425
-21316.365000	-26270.415000	-27055.980000	-14533.920000	0.000000	0.000000	0.000000	0.000000	0.246617	-11.090215	0.523318	2.566443	-0.000000	0.000000	-0.000000	-0.000000	0.579880	0.320460	-0.289940	0.019043	0.985227	0.002136	-1.000000	-1.000000	-1.000000	-1.000000	-1.000000	-1.000000	-1.000000	146.965517	0.000000	-1.000000	-1.000000	474369.000000	1772311608.100434
-21310.695000	-26263.035000	-27048.465000	-14530.455000	0.000000	0.000000	0.000000	0.000000	4.093163	-11.182515	3.874408	3.347339	-0.000000	0.000000	-0.000000	-0.000000	0.579880	0.320460	-0.289940	0.019043	0.985227	0.002136	-1.000000	-1.000000	-1.000000	-1.000000	-1.000000	-1.000000	-1.000000	146.965517	0.000000	-1.000000	-1.000000	474370.000000	1772311608.100437
-21299.445000	-26269.650000	-27036.855000	-14520.015000	0.000000	0.000000	0.000000	0.000000	6.129583	-4.834095	5.854487	2.805847	-0.000000	0.000000	-0.000000	-0.000000	0.579880	0.320460	-0.289940	0.019043	0.985227	0.002136	-1.000000	-1.000000	-1.000000	-1.000000	-1.000000	-1.000000	-1.000000	146.965517	0.000000	-1.000000	-1.000000	474371.000000	1772311608.106193
-21306.690000	-26280.090000	-27047.520000	-14526.630000	0.000000	0.000000	0.000000	0.000000	5.510680	4.521167	5.566193	1.346779	-0.000000	0.000000	-0.000000	-0.000000	0.579880	0.320460	-0.289940	0.019043	0.985227	0.002136	-1.000000	-1.000000	-1.000000	-1.000000	-1.000000	-1.000000	-1.000000	146.965517	0.000000	-1.000000	-1.000000	474372.000000	1772311608.106197
-21328.155000	-26265.780000	-27069.075000	-14543.235000	0.000000	0.000000	0.000000	0.000000	1.643106	11.179143	1.919301	-1.286434	-0.000000	0.000000	-0.000000	-0.000000	0.579880	0.320460	-0.289940	0.019043	0.985227	0.002136	-1.000000	-1.000000	-1.000000	-1.000000	-1.000000	-1.000000	-1.000000	146.965517	0.000000	-1.000000	-1.000000	474373.000000	1772311608.108367
-21327.480000	-26256.240000	-27066.780000	-14544.360000	0.000000	0.000000	0.000000	0.000000	-4.879435	13.055041	-4.719969	-5.186511	-0.000000	0.000000	-0.000000	-0.000000	0.579880	0.320460	-0.289940	0.019043	0.985227	0.002136	-1.000000	-1.000000	-1.000000	-1.000000	-1.000000	-1.000000	-1.000000	146.965517	0.000000	-1.000000	-1.000000	474374.000000	1772311608.108370
-21304.350000	-26254.350000	-27041.580000	-14520.870000	0.000000	0.000000	0.000000	0.000000	-10.285018	11.424339	-10.237492	-8.064528	-0.000000	0.000000	-0.000000	-0.000000	0.915600	0.244160	-0.213640	0.019714	0.983030	0.004028	-1.000000	-1.000000	-1.000000	-1.000000	-1.000000	-1.000000	-1.000000	146.965517	0.000000	-1.000000	-1.000000	474375.000000	1772311608.112413
-21305.700000	-26257.545000	-27046.170000	-14526.315000	0.000000	0.000000	0.000000	0.000000	-9.839263	7.429506	-9.646107	-6.599233	-0.000000	0.000000	-0.000000	-0.000000	0.915600	0.244160	-0.213640	0.019714	0.983030	0.004028	-1.000000	-1.000000	-1.000000	-1.000000	-1.000000	-1.000000	-1.000000	146.965517	0.000000	-1.000000	-1.000000	474376.000000	1772311608.112416
-21342.780000	-26226.135000	-27086.625000	-14566.500000	0.000000	0.000000	0.000000	0.000000	-4.193547	2.170604	-3.942628	-1.869707	-0.000000	0.000000	-0.000000	-0.000000	0.915600	0.244160	-0.213640	0.019714	0.983030	0.004028	-1.000000	-1.000000	-1.000000	-1.000000	-1.000000	-1.000000	-1.000000	146.965517	0.000000	-1.000000	-1.000000	474377.000000	1772311608.116460
-21349.800000	-26230.095000	-27092.565000	-14570.460000	0.000000	0.000000	0.000000	0.000000	0.600681	-2.120819	0.453644	0.885333	-0.000000	0.000000	-0.000000	-0.000000	0.915600	0.244160	-0.213640	0.019714	0.983030	0.004028	-1.000000	-1.000000	-1.000000	-1.000000	-1.000000	-1.000000	-1.000000	146.965517	0.000000	-1.000000	-1.000000	474378.000000	1772311608.116463
-21322.710000	-26211.240000	-27064.215000	-14541.615000	0.000000	0.000000	0.000000	0.000000	1.700968	-4.164254	1.042252	0.380036	-0.000000	0.000000	-0.000000	-0.000000	0.915600	0.244160	-0.213640	0.019714	0.983030	0.004028	-1.000000	-1.000000	-1.000000	-1.000000	-1.000000	-1.000000	-1.000000	146.965517	0.000000	-1.000000	-1.000000	474379.000000	1772311608.120671
-21312.045000	-26167.995000	-27056.025000	-14536.260000	0.000000	0.000000	0.000000	0.000000	2.739999	-3.932394	2.038867	1.174574	-0.000000	0.000000	-0.000000	-0.000000	0.915600	0.244160	-0.213640	0.019714	0.983030	0.004028	-1.000000	-1.000000	-1.000000	-1.000000	-1.000000	-1.000000	-1.000000	146.965517	0.000000	-1.000000	-1.000000	474380.000000	1772311608.120675
-21314.925000	-26192.475000	-27057.105000	-14535.765000	0.000000	0.000000	0.000000	0.000000	6.439048	-1.970238	6.192241	5.569671	-0.000000	0.000000	-0.000000	-0.000000	0.915600	0.244160	-0.213640	0.019714	0.983030	0.004028	-1.000000	-1.000000	-1.000000	-1.000000	-1.000000	-1.000000	-1.000000	146.965517	0.000000	-1.000000	-1.000000	474381.000000	1772311608.130715
-21333.195000	-26210.790000	-27074.970000	-14554.170000	0.000000	0.000000	0.000000	0.000000	9.655956	-1.657342	10.026396	9.663657	-0.000000	0.000000	-0.000000	-0.000000	0.915600	0.244160	-0.213640	0.019714	0.983030	0.004028	-1.000000	-1.000000	-1.000000	-1.000000	-1.000000	-1.000000	-1.000000	146.965517	0.000000	-1.000000	-1.000000	474382.000000	1772311608.130718
-21326.220000	-26222.040000	-27070.470000	-14548.995000	0.000000	0.000000	0.000000	0.000000	8.053824	-6.360606	8.874587	8.724615	-0.000000	0.000000	-0.000000	-0.000000	0.915600	0.244160	-0.213640	0.019714	0.983030	0.004028	-1.000000	-1.000000	-1.000000	-1.000000	-1.000000	-1.000000	-1.000000	146.965517	0.000000	-1.000000	-1.000000	474383.000000	1772311608.130722
-21303.990000	-26213.895000	-27050.040000	-14527.800000	0.000000	0.000000	0.000000	0.000000	2.489258	-13.300695	3.264484	3.324632	-0.000000	0.000000	-0.000000	-0.000000	0.915600	0.244160	-0.213640	0.019714	0.983030	0.004028	-1.000000	-1.000000	-1.000000	-1.000000	-1.000000	-1.000000	-1.000000	146.965517	0.000000	-1.000000	-1.000000	474384.000000	1772311608.130724
-21275.505000	-26199.630000	-27025.470000	-14508.315000	0.000000	0.000000	0.000000	0.000000	-1.674436	-15.430396	-1.552998	-1.379323	-0.000000	0.000000	-0.000000	-0.000000	1.220800	0.274680	-0.259420	0.019653	0.982480	0.005371	-1.000000	-1.000000	-1.000000	-1.000000	-1.000000	-1.000000	-1.000000	146.965517	0.000000	-1.000000	-1.000000	474385.000000	1772311608.132546
-21317.490000	-26197.965000	-27065.655000	-14546.655000	0.000000	0.000000	0.000000	0.000000	-1.963166	-8.945596	-2.731302	-2.735603	-0.000000	0.000000	-0.000000	-0.000000	1.220800	0.274680	-0.259420	0.019653	0.982480	0.005371	-1.000000	-1.000000	-1.000000	-1.000000	-1.000000	-1.000000	-1.000000	146.965517	0.000000	-1.000000	-1.000000	474386.000000	1772311608.132549
-21340.440000	-26195.355000	-27085.320000	-14563.890000	0.000000	0.000000	0.000000	0.000000	-2.624025	2.878501	-3.750423	-4.038083	-0.000000	0.000000	-0.000000	-0.000000	1.220800	0.274680	-0.259420	0.019653	0.982480	0.005371	-1.000000	-1.000000	-1.000000	-1.000000	-1.000000	-1.000000	-1.000000	146.965517	0.000000	-1.000000	-1.000000	474387.000000	1772311608.136447
-21312.990000	-26174.070000	-27057.420000	-14536.980000	0.000000	0.000000	0.000000	0.000000	-6.946714	13.384138	-7.392925	-7.591219	-0.000000	0.000000	-0.000000	-0.000000	1.220800	0.274680	-0.259420	0.019653	0.982480	0.005371	-1.000000	-1.000000	-1.000000	-1.000000	-1.000000	-1.000000	-1.000000	146.965517	0.000000	-1.000000	-1.000000	474388.000000	1772311608.136450
-21332.520000	-26145.180000	-27078.165000	-14556.825000	0.000000	0.000000	0.000000	0.000000	-10.905828	18.700290	-10.090469	-9.817829	-0.000000	0.000000	-0.000000	-0.000000	1.220800	0.274680	-0.259420	0.019653	0.982480	0.005371	-1.000000	-1.000000	-1.000000	-1.000000	-1.000000	-1.000000	-1.000000	146.965517	0.000000	-1.000000	-1.000000	474389.000000	1772311608.140511
-21340.980000	-26101.980000	-27087.075000	-14569.470000	0.000000	0.000000	0.000000	0.000000	-10.024438	19.248401	-8.416752	-7.792694	-0.000000	0.000000	-0.000000	-0.000000	1.220800	0.274680	-0.259420	0.019653	0.982480	0.005371	-1.000000	-1.000000	-1.000000	-1.000000	-1.000000	-1.000000	-1.000000	146.965517	0.000000	-1.000000	-1.000000	474390.000000	1772311608.140514
-21341.205000	-26091.945000	-27089.865000	-14570.415000	0.000000	0.000000	0.000000	0.000000	-5.072644	16.505252	-3.761137	-3.290795	-0.000000	0.000000	-0.000000	-0.000000	1.220800	0.274680	-0.259420	0.019653	0.982480	0.005371	-1.000000	-1.000000	-1.000000	-1.000000	-1.000000	-1.000000	-1.000000	146.965517	0.000000	-1.000000	-1.000000	474391.000000	1772311608.144547
-21339.270000	-26119.665000	-27088.830000	-14564.115000	0.000000	0.000000	0.000000	0.000000	1.302825	9.421723	1.442802	1.518392	-0.000000	0.000000	-0.000000	-0.000000	1.220800	0.274680	-0.259420	0.019653	0.982480	0.005371	-1.000000	-1.000000	-1.000000	-1.000000	-1.000000	-1.000000	-1.000000	146.965517	0.000000	-1.000000	-1.000000	474392.000000	1772311608.144549
-21317.220000	-26141.670000	-27069.840000	-14546.115000	0.000000	0.000000	0.000000	0.000000	7.483954	-4.105526	6.292628	6.340832	-0.000000	0.000000	-0.000000	-0.000000	1.220800	0.274680	-0.259420	0.019653	0.982480	0.005371	-1.000000	-1.000000	-1.000000	-1.000000	-1.000000	-1.000000	-1.000000	146.965517	0.000000	-1.000000	-1.000000	474393.000000	1772311608.148572
-21294.945000	-26176.590000	-27048.600000	-14526.405000	0.000000	0.000000	0.000000	0.000000	12.780694	-21.693875	10.786096	11.133331	-0.000000	0.000000	-0.000000	-0.000000	1.220800	0.274680	-0.259420	0.019653	0.982480	0.005371	-1.000000	-1.000000	-1.000000	-1.000000	-1.000000	-1.000000	-1.000000	146.965517	0.000000	-1.000000	-1.000000	474394.000000	1772311608.148575
-21302.415000	-26204.175000	-27053.955000	-14530.320000	0.000000	0.000000	0.000000	0.000000	15.807629	-35.702422	13.936873	14.304818	-0.000000	0.000000	-0.000000	-0.000000	1.373400	-0.030520	-0.274680	0.019775	0.983823	0.006348	-1.000000	-1.000000	-1.000000	-1.000000	-1.000000	-1.000000	-1.000000	146.965517	0.000000	-1.000000	-1.000000	474395.000000	1772311608.152518
-21305.340000	-26215.605000	-27054.900000	-14531.805000	0.000000	0.000000	0.000000	0.000000	13.666587	-38.335237	12.920257	12.843566	-0.000000	0.000000	-0.000000	-0.000000	1.373400	-0.030520	-0.274680	0.019775	0.983823	0.006348	-1.000000	-1.000000	-1.000000	-1.000000	-1.000000	-1.000000	-1.000000	146.965517	0.000000	-1.000000	-1.000000	474396.000000	1772311608.152522
-21306.465000	-26209.530000	-27058.500000	-14546.070000	0.000000	0.000000	0.000000	0.000000	5.220629	-26.278894	6.111500	5.275325	-0.000000	0.000000	-0.000000	-0.000000	1.373400	-0.030520	-0.274680	0.019775	0.983823	0.006348	-1.000000	-1.000000	-1.000000	-1.000000	-1.000000	-1.000000	-1.000000	146.965517	0.000000	-1.000000	-1.000000	474397.000000	1772311608.156451
-21310.650000	-26199.405000	-27062.190000	-14549.670000	0.000000	0.000000	0.000000	0.000000	-6.159507	-2.739929	-4.094067	-5.943069	-0.000000	0.000000	-0.000000	-0.000000	1.373400	-0.030520	-0.274680	0.019775	0.983823	0.006348	-1.000000	-1.000000	-1.000000	-1.000000	-1.000000	-1.000000	-1.000000	146.965517	0.000000	-1.000000	-1.000000	474398.000000	1772311608.156454
-21308.940000	-26178.255000	-27061.605000	-14547.465000	0.000000	0.000000	0.000000	0.000000	-14.964447	23.522966	-12.849727	-15.390189	-0.000000	0.000000	-0.000000	-0.000000	1.373400	-0.030520	-0.274680	0.019775	0.983823	0.006348	-1.000000	-1.000000	-1.000000	-1.000000	-1.000000	-1.000000	-1.000000	146.965517	0.000000	-1.000000	-1.000000	474399.000000	1772311608.160236
-21303.855000	-26166.780000	-27059.760000	-14545.260000	0.000000	0.000000	0.000000	0.000000	-17.302435	42.291703	-16.166942	-18.097739	-0.000000	0.000000	-0.000000	-0.000000	1.373400	-0.030520	-0.274680	0.019775	0.983823	0.006348	-1.000000	-1.000000	-1.000000	-1.000000	-1.000000	-1.000000	-1.000000	146.965517	0.000000	-1.000000	-1.000000	474400.000000	1772311608.160239
-21302.775000	-26190.495000	-27058.095000	-14541.930000	0.000000	0.000000	0.000000	0.000000	-12.759583	45.942932	-13.052425	-12.982951	-0.000000	0.000000	-0.000000	-0.000000	1.373400	-0.030520	-0.274680	0.019775	0.983823	0.006348	-1.000000	-1.000000	-1.000000	-1.000000	-1.000000	-1.000000	-1.000000	146.965517	0.000000	-1.000000	-1.000000	474401.000000	1772311608.164645
-21306.510000	-26181.810000	-27063.000000	-14545.035000	0.000000	0.000000	0.000000	0.000000	-4.392842	32.658976	-5.803756	-3.376124	0.000000	0.000000	-0.000000	-0.000000	1.373400	-0.030520	-0.274680	0.019775	0.983823	0.006348	-1.000000	-1.000000	-1.000000	-1.000000	-1.000000	-1.000000	-1.000000	146.965517	0.000000	-1.000000	-1.000000	474402.000000	1772311608.164648
-21301.155000	-26169.885000	-27056.745000	-14538.870000	0.000000	0.000000	0.000000	0.000000	3.439428	9.179083	1.777280	5.679420	0.000000	0.000000	-0.000000	-0.000000	1.373400	-0.030520	-0.274680	0.019775	0.983823	0.006348	-1.000000	-1.000000	-1.000000	-1.000000	-1.000000	-1.000000	-1.000000	146.965517	0.000000	-1.000000	-1.000000	474403.000000	1772311608.168468
-21293.415000	-26174.160000	-27047.115000	-14532.345000	0.000000	0.000000	0.000000	0.000000	8.096815	-12.765784	7.097496	10.815985	0.000000	0.000000	-0.000000	-0.000000	1.373400	-0.030520	-0.274680	0.019775	0.983823	0.006348	-1.000000	-1.000000	-1.000000	-1.000000	-1.000000	-1.000000	-1.000000	146.965517	0.000000	-1.000000	-1.000000	474404.000000	1772311608.168471
-21293.910000	-26187.390000	-27046.440000	-14533.155000	0.000000	0.000000	0.000000	0.000000	9.322040	-25.346521	9.515795	11.397861	0.000000	0.000000	-0.000000	-0.000000	0.396760	0.198380	0.000000	0.019836	0.984006	0.005798	-1.000000	-1.000000	-1.000000	-1.000000	-1.000000	-1.000000	-1.000000	146.965517	0.000000	-1.000000	-1.000000	474405.000000	1772311608.173920
-21295.305000	-26193.105000	-27048.060000	-14534.370000	0.000000	0.000000	0.000000	0.000000	7.678217	-27.863745	8.953275	8.259334	0.000000	0.000000	-0.000000	-0.000000	0.396760	0.198380	0.000000	0.019836	0.984006	0.005798	-1.000000	-1.000000	-1.000000	-1.000000	-1.000000	-1.000000	-1.000000	146.965517	0.000000	-1.000000	-1.000000	474406.000000	1772311608.173922
-21316.590000	-26186.220000	-27070.605000	-14553.090000	0.000000	0.000000	0.000000	0.000000	3.558575	-22.837968	5.171574	2.594389	0.000000	0.000000	-0.000000	-0.000000	0.396760	0.198380	0.000000	0.019836	0.984006	0.005798	-1.000000	-1.000000	-1.000000	-1.000000	-1.000000	-1.000000	-1.000000	146.965517	0.000000	-1.000000	-1.000000	474407.000000	1772311608.178027
-21319.965000	-26180.370000	-27074.565000	-14559.120000	0.000000	0.000000	0.000000	0.000000	-2.254006	-12.796791	-1.259569	-4.089697	0.000000	0.000000	-0.000000	-0.000000	0.396760	0.198380	0.000000	0.019836	0.984006	0.005798	-1.000000	-1.000000	-1.000000	-1.000000	-1.000000	-1.000000	-1.000000	146.965517	0.000000	-1.000000	-1.000000	474408.000000	1772311608.178030
-21303.720000	-26202.285000	-27060.030000	-14545.530000	0.000000	0.000000	0.000000	0.000000	-7.071524	-1.152599	-7.283687	-9.064659	0.000000	0.000000	-0.000000	-0.000000	0.396760	0.198380	0.000000	0.019836	0.984006	0.005798	-1.000000	-1.000000	-1.000000	-1.000000	-1.000000	-1.000000	-1.000000	146.965517	0.000000	-1.000000	-1.000000	474409.000000	1772311608.180595
-21276.090000	-26209.890000	-27032.085000	-14514.525000	0.000000	0.000000	0.000000	0.000000	-6.821146	7.283228	-8.146713	-8.590023	0.000000	0.000000	-0.000000	-0.000000	0.396760	0.198380	0.000000	0.019836	0.984006	0.005798	-1.000000	-1.000000	-1.000000	-1.000000	-1.000000	-1.000000	-1.000000	146.965517	0.000000	-1.000000	-1.000000	474410.000000	1772311608.180599
-21246.660000	-26201.205000	-27001.530000	-14486.490000	0.000000	0.000000	0.000000	0.000000	0.092259	9.986010	-1.646621	-1.120113	0.000000	0.000000	-0.000000	-0.000000	0.396760	0.198380	0.000000	0.019836	0.984006	0.005798	-1.000000	-1.000000	-1.000000	-1.000000	-1.000000	-1.000000	-1.000000	146.965517	0.000000	-1.000000	-1.000000	474411.000000	1772311608.185705
-21261.510000	-26208.945000	-27016.065000	-14505.480000	0.000000	0.000000	0.000000	0.000000	9.526734	8.834246	8.288911	9.101344	0.000000	0.000000	-0.000000	-0.000000	0.396760	0.198380	0.000000	0.019836	0.984006	0.005798	-1.000000	-1.000000	-1.000000	-1.000000	-1.000000	-1.000000	-1.000000	146.965517	0.000000	-1.000000	-1.000000	474412.000000	1772311608.185708
-21338.100000	-26226.630000	-27093.105000	-14577.480000	0.000000	0.000000	0.000000	0.000000	12.301606	6.347205	12.125782	12.522023	0.000000	0.000000	-0.000000	-0.000000	0.396760	0.198380	0.000000	0.019836	0.984006	0.005798	-1.000000	-1.000000	-1.000000	-1.000000	-1.000000	-1.000000	-1.000000	146.965517	0.000000	-1.000000	-1.000000	474413.000000	1772311608.188515
-21341.295000	-26219.655000	-27097.740000	-14578.290000	0.000000	0.000000	0.000000	0.000000	2.076085	3.309835	2.828589	2.809035	0.000000	0.000000	-0.000000	-0.000000	0.396760	0.198380	0.000000	0.019836	0.984006	0.005798	-1.000000	-1.000000	-1.000000	-1.000000	-1.000000	-1.000000	-1.000000	146.965517	0.000000	-1.000000	-1.000000	474414.000000	1772311608.188518
-21317.130000	-26191.890000	-27075.105000	-14555.745000	0.000000	0.000000	0.000000	0.000000	-14.424667	1.254379	-13.407693	-13.127960	0.000000	0.000000	-0.000000	-0.000000	-0.320460	0.198380	-0.305200	0.019775	0.984556	0.006226	-1.000000	-1.000000	-1.000000	-1.000000	-1.000000	-1.000000	-1.000000	146.965517	0.000000	-1.000000	-1.000000	474415.000000	1772311608.192594
-21309.120000	-26175.150000	-27068.445000	-14551.560000	0.000000	0.000000	0.000000	0.000000	-22.012046	2.564272	-21.425918	-20.501226	0.000000	0.000000	-0.000000	-0.000000	-0.320460	0.198380	-0.305200	0.019775	0.984556	0.006226	-1.000000	-1.000000	-1.000000	-1.000000	-1.000000	-1.000000	-1.000000	146.965517	0.000000	-1.000000	-1.000000	474416.000000	1772311608.192597
-21299.940000	-26186.445000	-27059.940000	-14544.900000	0.000000	0.000000	0.000000	0.000000	-13.678807	6.215008	-13.805697	-12.862089	0.000000	0.000000	-0.000000	-0.000000	-0.320460	0.198380	-0.305200	0.019775	0.984556	0.006226	-1.000000	-1.000000	-1.000000	-1.000000	-1.000000	-1.000000	-1.000000	146.965517	0.000000	-1.000000	-1.000000	474417.000000	1772311608.196644
-21293.190000	-26208.225000	-27052.470000	-14537.745000	0.000000	0.000000	0.000000	0.000000	3.863404	6.900044	3.281421	3.313305	0.000000	0.000000	-0.000000	-0.000000	-0.320460	0.198380	-0.305200	0.019775	0.984556	0.006226	-1.000000	-1.000000	-1.000000	-1.000000	-1.000000	-1.000000	-1.000000	146.965517	0.000000	-1.000000	-1.000000	474418.000000	1772311608.196648
-21291.075000	-26239.770000	-27047.610000	-14531.265000	0.000000	0.000000	0.000000	0.000000	18.765403	0.447071	18.349185	17.233347	0.000000	0.000000	-0.000000	-0.000000	-0.320460	0.198380	-0.305200	0.019775	0.984556	0.006226	-1.000000	-1.000000	-1.000000	-1.000000	-1.000000	-1.000000	-1.000000	146.965517	0.000000	-1.000000	-1.000000	474419.000000	1772311608.200605
-21287.430000	-26246.520000	-27041.895000	-14526.270000	0.000000	0.000000	0.000000	0.000000	23.187668	-10.993660	23.551979	21.963703	0.000000	0.000000	-0.000000	-0.000000	-0.320460	0.198380	-0.305200	0.019775	0.984556	0.006226	-1.000000	-1.000000	-1.000000	-1.000000	-1.000000	-1.000000	-1.000000	146.965517	0.000000	-1.000000	-1.000000	474420.000000	1772311608.200608
-21274.515000	-26232.120000	-27029.925000	-14517.270000	0.000000	0.000000	0.000000	0.000000	16.873859	-19.447470	18.148314	16.958186	0.000000	0.000000	-0.000000	-0.000000	-0.320460	0.198380	-0.305200	0.019775	0.984556	0.006226	-1.000000	-1.000000	-1.000000	-1.000000	-1.000000	-1.000000	-1.000000	146.965517	0.000000	-1.000000	-1.000000	474421.000000	1772311608.209604
-21277.980000	-26233.245000	-27034.560000	-14522.760000	0.000000	0.000000	0.000000	0.000000	5.123839	-17.614091	6.688774	6.223679	0.000000	0.000000	-0.000000	-0.000000	-0.320460	0.198380	-0.305200	0.019775	0.984556	0.006226	-1.000000	-1.000000	-1.000000	-1.000000	-1.000000	-1.000000	-1.000000	146.965517	0.000000	-1.000000	-1.000000	474422.000000	1772311608.209607
-21308.625000	-26239.320000	-27065.700000	-14553.855000	0.000000	0.000000	0.000000	0.000000	-6.738982	-5.981717	-5.877946	-5.780778	0.000000	0.000000	-0.000000	-0.000000	-0.320460	0.198380	-0.305200	0.019775	0.984556	0.006226	-1.000000	-1.000000	-1.000000	-1.000000	-1.000000	-1.000000	-1.000000	146.965517	0.000000	-1.000000	-1.000000	474423.000000	1772311608.209612
-21319.380000	-26238.780000	-27074.925000	-14563.170000	0.000000	0.000000	0.000000	0.000000	-16.212636	7.851328	-16.625725	-16.153952	0.000000	0.000000	-0.000000	-0.000000	-0.320460	0.198380	-0.305200	0.019775	0.984556	0.006226	-1.000000	-1.000000	-1.000000	-1.000000	-1.000000	-1.000000	-1.000000	146.965517	0.000000	-1.000000	-1.000000	474424.000000	1772311608.209616
-21314.295000	-26226.630000	-27063.450000	-14546.700000	0.000000	0.000000	0.000000	0.000000	-21.049508	16.640034	-22.341383	-21.470575	0.000000	0.000000	-0.000000	-0.000000	-0.595140	0.213640	-0.045780	0.019714	0.984922	0.006836	-1.000000	-1.000000	-1.000000	-1.000000	-1.000000	-1.000000	-1.000000	146.965517	0.000000	-1.000000	-1.000000	474425.000000	1772311608.212608
-21291.795000	-26189.595000	-27043.065000	-14516.955000	0.000000	0.000000	0.000000	0.000000	-17.952064	18.758361	-19.074376	-17.495951	0.000000	0.000000	-0.000000	-0.000000	-0.595140	0.213640	-0.045780	0.019714	0.984922	0.006836	-1.000000	-1.000000	-1.000000	-1.000000	-1.000000	-1.000000	-1.000000	146.965517	0.000000	-1.000000	-1.000000	474426.000000	1772311608.212612
-21286.305000	-26180.055000	-27036.540000	-14501.655000	0.000000	0.000000	0.000000	0.000000	-6.373839	16.684950	-6.671025	-3.957357	0.000000	0.000000	-0.000000	-0.000000	-0.595140	0.213640	-0.045780	0.019714	0.984922	0.006836	-1.000000	-1.000000	-1.000000	-1.000000	-1.000000	-1.000000	-1.000000	146.965517	0.000000	-1.000000	-1.000000	474427.000000	1772311608.216688
-21297.195000	-26176.320000	-27055.350000	-14535.765000	0.000000	0.000000	0.000000	0.000000	8.160403	11.931776	8.290757	11.678827	0.000000	0.000000	-0.000000	-0.000000	-0.595140	0.213640	-0.045780	0.019714	0.984922	0.006836	-1.000000	-1.000000	-1.000000	-1.000000	-1.000000	-1.000000	-1.000000	146.965517	0.000000	-1.000000	-1.000000	474428.000000	1772311608.216691
-21294.270000	-26157.600000	-27061.290000	-14555.970000	0.000000	0.000000	0.000000	0.000000	17.300755	4.249208	16.689171	18.344462	0.000000	0.000000	-0.000000	-0.000000	-0.595140	0.213640	-0.045780	0.019714	0.984922	0.006836	-1.000000	-1.000000	-1.000000	-1.000000	-1.000000	-1.000000	-1.000000	146.965517	0.000000	-1.000000	-1.000000	474429.000000	1772311608.220832
-21277.665000	-26167.095000	-27036.810000	-14518.845000	0.000000	0.000000	0.000000	0.000000	17.263500	-5.267593	15.159167	12.463140	0.000000	0.000000	-0.000000	-0.000000	-0.595140	0.213640	-0.045780	0.019714	0.984922	0.006836	-1.000000	-1.000000	-1.000000	-1.000000	-1.000000	-1.000000	-1.000000	146.758621	0.000000	-1.000000	-1.000000	474430.000000	1772311608.220836
-21288.060000	-26187.975000	-27040.455000	-14507.640000	0.000000	0.000000	0.000000	0.000000	10.754506	-14.484824	8.242921	2.139212	0.000000	0.000000	-0.000000	-0.000000	-0.595140	0.213640	-0.045780	0.019714	0.984922	0.006836	-1.000000	-1.000000	-1.000000	-1.000000	-1.000000	-1.000000	-1.000000	146.758621	0.000000	-1.000000	-1.000000	474431.000000	1772311608.227434
-21312.135000	-26182.170000	-27073.755000	-14544.000000	0.000000	0.000000	0.000000	0.000000	1.697596	-21.334092	0.974537	-4.061478	0.000000	0.000000	-0.000000	-0.000000	-0.595140	0.213640	-0.045780	0.019714	0.984922	0.006836	-1.000000	-1.000000	-1.000000	-1.000000	-1.000000	-1.000000	-1.000000	146.758621	0.000000	-1.000000	-1.000000	474432.000000	1772311608.227437
-21302.100000	-26173.170000	-27077.265000	-14574.015000	0.000000	0.000000	0.000000	0.000000	-7.289394	-22.621921	-5.728714	-6.787635	0.000000	0.000000	-0.000000	-0.000000	-0.595140	0.213640	-0.045780	0.019714	0.984922	0.006836	-1.000000	-1.000000	-1.000000	-1.000000	-1.000000	-1.000000	-1.000000	146.758621	0.000000	-1.000000	-1.000000	474433.000000	1772311608.228684
-21293.865000	-26169.570000	-27068.445000	-14566.860000	0.000000	0.000000	0.000000	0.000000	-12.641416	-15.980204	-10.722341	-9.636391	0.000000	0.000000	-0.000000	-0.000000	-0.595140	0.213640	-0.045780	0.019714	0.984922	0.006836	-1.000000	-1.000000	-1.000000	-1.000000	-1.000000	-1.000000	-1.000000	146.758621	0.000000	-1.000000	-1.000000	474434.000000	1772311608.228687
-21269.565000	-26223.120000	-27046.170000	-14539.545000	0.000000	0.000000	0.000000	0.000000	-10.892732	-4.592116	-10.399578	-10.411797	0.000000	0.000000	-0.000000	-0.000000	0.061040	0.732480	-0.076300	0.019897	0.982053	0.008850	-1.000000	-1.000000	-1.000000	-1.000000	-1.000000	-1.000000	-1.000000	146.758621	0.000000	-1.000000	-1.000000	474435.000000	1772311608.232704
-21280.815000	-26250.345000	-27057.915000	-14544.540000	0.000000	0.000000	0.000000	0.000000	-2.938922	3.674297	-3.615896	-4.836425	0.000000	0.000000	-0.000000	-0.000000	0.061040	0.732480	-0.076300	0.019897	0.982053	0.008850	-1.000000	-1.000000	-1.000000	-1.000000	-1.000000	-1.000000	-1.000000	146.758621	0.000000	-1.000000	-1.000000	474436.000000	1772311608.232707
-21283.560000	-26260.020000	-27060.120000	-14543.595000	0.000000	0.000000	0.000000	0.000000	5.344192	4.725223	5.012036	5.242096	0.000000	0.000000	-0.000000	-0.000000	0.061040	0.732480	-0.076300	0.019897	0.982053	0.008850	-1.000000	-1.000000	-1.000000	-1.000000	-1.000000	-1.000000	-1.000000	146.758621	0.000000	-1.000000	-1.000000	474437.000000	1772311608.236787
-21275.910000	-26282.745000	-27044.865000	-14532.255000	0.000000	0.000000	0.000000	0.000000	8.393497	2.344240	9.719707	13.243464	0.000000	0.000000	-0.000000	-0.000000	0.061040	0.732480	-0.076300	0.019897	0.982053	0.008850	-1.000000	-1.000000	-1.000000	-1.000000	-1.000000	-1.000000	-1.000000	146.758621	0.000000	-1.000000	-1.000000	474438.000000	1772311608.236791
-21274.065000	-26303.355000	-27037.395000	-14530.320000	0.000000	0.000000	0.000000	0.000000	5.898547	1.831132	9.334144	14.968103	0.000000	0.000000	-0.000000	-0.000000	0.061040	0.732480	-0.076300	0.019897	0.982053	0.008850	-1.000000	-1.000000	-1.000000	-1.000000	-1.000000	-1.000000	-1.000000	146.758621	0.000000	-1.000000	-1.000000	474439.000000	1772311608.240718
-21284.190000	-26307.225000	-27051.525000	-14541.435000	0.000000	0.000000	0.000000	0.000000	0.987333	4.642681	5.752708	10.383572	0.000000	0.000000	-0.000000	-0.000000	0.061040	0.732480	-0.076300	0.019897	0.982053	0.008850	-1.000000	-1.000000	-1.000000	-1.000000	-1.000000	-1.000000	-1.000000	146.758621	0.000000	-1.000000	-1.000000	474440.000000	1772311608.240720
-21276.540000	-26294.535000	-27044.865000	-14533.560000	0.000000	0.000000	0.000000	0.000000	-3.548681	9.836295	0.442688	1.876154	0.000000	0.000000	-0.000000	-0.000000	0.061040	0.732480	-0.076300	0.019897	0.982053	0.008850	-1.000000	-1.000000	-1.000000	-1.000000	-1.000000	-1.000000	-1.000000	146.758621	0.000000	-1.000000	-1.000000	474441.000000	1772311608.244812
-21268.980000	-26319.780000	-27037.080000	-14524.965000	0.000000	0.000000	0.000000	0.000000	-5.678422	15.238446	-4.727887	-6.345443	0.000000	0.000000	-0.000000	-0.000000	0.061040	0.732480	-0.076300	0.019897	0.982053	0.008850	-1.000000	-1.000000	-1.000000	-1.000000	-1.000000	-1.000000	-1.000000	146.758621	0.000000	-1.000000	-1.000000	474442.000000	1772311608.244815
-21275.280000	-26353.440000	-27043.245000	-14530.005000	0.000000	0.000000	0.000000	0.000000	-4.551799	16.494940	-7.352352	-10.395789	0.000000	0.000000	-0.000000	-0.000000	0.061040	0.732480	-0.076300	0.019897	0.982053	0.008850	-1.000000	-1.000000	-1.000000	-1.000000	-1.000000	-1.000000	-1.000000	146.758621	0.000000	-1.000000	-1.000000	474443.000000	1772311608.248846
-21275.280000	-26367.705000	-27043.920000	-14533.740000	0.000000	0.000000	0.000000	0.000000	-1.646686	10.223594	-6.940854	-9.820501	0.000000	0.000000	-0.000000	-0.000000	0.061040	0.732480	-0.076300	0.019897	0.982053	0.008850	-1.000000	-1.000000	-1.000000	-1.000000	-1.000000	-1.000000	-1.000000	146.758621	0.000000	-1.000000	-1.000000	474444.000000	1772311608.248848
-21273.435000	-26367.480000	-27041.265000	-14531.715000	0.000000	0.000000	0.000000	0.000000	0.783587	-0.722376	-4.782089	-6.805051	0.000000	0.000000	-0.000000	-0.000000	2.227960	0.549360	0.167860	0.020508	0.982175	0.011658	-1.000000	-1.000000	-1.000000	-1.000000	-1.000000	-1.000000	-1.000000	146.758621	0.000000	-1.000000	-1.000000	474445.000000	1772311608.252762
-21276.270000	-26365.995000	-27045.045000	-14534.145000	0.000000	0.000000	0.000000	0.000000	1.838530	-8.972203	-2.064720	-3.267747	0.000000	0.000000	-0.000000	-0.000000	2.227960	0.549360	0.167860	0.020508	0.982175	0.011658	-1.000000	-1.000000	-1.000000	-1.000000	-1.000000	-1.000000	-1.000000	146.758621	0.000000	-1.000000	-1.000000	474446.000000	1772311608.252765
-21276.540000	-26379.495000	-27046.305000	-14536.440000	0.000000	0.000000	0.000000	0.000000	1.736043	-9.994042	0.353929	-0.167765	0.000000	0.000000	-0.000000	-0.000000	2.227960	0.549360	0.167860	0.020508	0.982175	0.011658	-1.000000	-1.000000	-1.000000	-1.000000	-1.000000	-1.000000	-1.000000	146.758621	0.000000	-1.000000	-1.000000	474447.000000	1772311608.256958
-21273.255000	-26378.955000	-27041.040000	-14531.715000	0.000000	0.000000	0.000000	0.000000	1.103311	-5.470596	1.980195	2.070027	0.000000	0.000000	-0.000000	-0.000000	2.227960	0.549360	0.167860	0.020508	0.982175	0.011658	-1.000000	-1.000000	-1.000000	-1.000000	-1.000000	-1.000000	-1.000000	146.758621	0.000000	-1.000000	-1.000000	474448.000000	1772311608.256961
-21273.840000	-26368.470000	-27041.445000	-14533.110000	0.000000	0.000000	0.000000	0.000000	0.663426	0.391246	2.962159	3.490937	0.000000	0.000000	-0.000000	-0.000000	2.227960	0.549360	0.167860	0.020508	0.982175	0.011658	-1.000000	-1.000000	-1.000000	-1.000000	-1.000000	-1.000000	-1.000000	146.758621	0.000000	-1.000000	-1.000000	474449.000000	1772311608.260784
-21270.555000	-26354.430000	-27036.855000	-14530.140000	0.000000	0.000000	0.000000	0.000000	0.701011	5.107226	3.508300	4.180515	0.000000	0.000000	-0.000000	-0.000000	2.227960	0.549360	0.167860	0.020508	0.982175	0.011658	-1.000000	-1.000000	-1.000000	-1.000000	-1.000000	-1.000000	-1.000000	146.758621	0.000000	-1.000000	-1.000000	474450.000000	1772311608.260787
-21271.365000	-26340.480000	-27038.385000	-14529.690000	0.000000	0.000000	0.000000	0.000000	0.951925	7.915104	3.461019	4.036173	0.000000	0.000000	-0.000000	-0.000000	2.227960	0.549360	0.167860	0.020508	0.982175	0.011658	-1.000000	-1.000000	-1.000000	-1.000000	-1.000000	-1.000000	-1.000000	146.758621	0.000000	-1.000000	-1.000000	474451.000000	1772311608.264847
-21279.915000	-26333.730000	-27053.415000	-14539.095000	0.000000	0.000000	0.000000	0.000000	0.808643	8.188604	2.288326	2.877672	0.000000	0.000000	-0.000000	-0.000000	2.227960	0.549360	0.167860	0.020508	0.982175	0.011658	-1.000000	-1.000000	-1.000000	-1.000000	-1.000000	-1.000000	-1.000000	146.758621	0.000000	-1.000000	-1.000000	474452.000000	1772311608.264850
-21281.400000	-26355.510000	-27045.855000	-14531.310000	0.000000	0.000000	0.000000	0.000000	-0.259236	4.796215	-0.239542	0.782290	0.000000	0.000000	-0.000000	-0.000000	2.227960	0.549360	0.167860	0.020508	0.982175	0.011658	-1.000000	-1.000000	-1.000000	-1.000000	-1.000000	-1.000000	-1.000000	146.758621	0.000000	-1.000000	-1.000000	474453.000000	1772311608.268753
-21273.030000	-26383.455000	-27041.265000	-14528.565000	0.000000	0.000000	0.000000	0.000000	-1.657004	-3.203609	-2.678495	-1.191487	0.000000	0.000000	-0.000000	-0.000000	2.227960	0.549360	0.167860	0.020508	0.982175	0.011658	-1.000000	-1.000000	-1.000000	-1.000000	-1.000000	-1.000000	-1.000000	146.758621	0.000000	-1.000000	-1.000000	474454.000000	1772311608.268756
-21261.060000	-26412.300000	-27040.230000	-14527.575000	0.000000	0.000000	0.000000	0.000000	-1.651514	-14.325595	-2.980591	-1.779077	0.000000	0.000000	-0.000000	-0.000000	5.981920	0.473060	-0.610400	0.020203	0.974668	0.018005	-1.000000	-1.000000	-1.000000	-1.000000	-1.000000	-1.000000	-1.000000	146.758621	0.000000	-1.000000	-1.000000	474455.000000	1772311608.272893
-21266.280000	-26418.105000	-27039.915000	-14526.765000	0.000000	0.000000	0.000000	0.000000	0.421014	-23.346358	-1.103882	-1.065393	0.000000	0.000000	-0.000000	-0.000000	5.981920	0.473060	-0.610400	0.020203	0.974668	0.018005	-1.000000	-1.000000	-1.000000	-1.000000	-1.000000	-1.000000	-1.000000	146.758621	0.000000	-1.000000	-1.000000	474456.000000	1772311608.272896
-21259.620000	-26425.215000	-27034.965000	-14525.685000	0.000000	0.000000	0.000000	0.000000	2.840202	-23.977514	1.248606	-0.111762	0.000000	0.000000	-0.000000	-0.000000	5.981920	0.473060	-0.610400	0.020203	0.974668	0.018005	-1.000000	-1.000000	-1.000000	-1.000000	-1.000000	-1.000000	-1.000000	146.758621	0.000000	-1.000000	-1.000000	474457.000000	1772311608.276907
-21270.420000	-26390.790000	-27047.295000	-14536.620000	0.000000	0.000000	0.000000	0.000000	3.337035	-13.395061	2.399051	0.090842	0.000000	0.000000	-0.000000	-0.000000	5.981920	0.473060	-0.610400	0.020203	0.974668	0.018005	-1.000000	-1.000000	-1.000000	-1.000000	-1.000000	-1.000000	-1.000000	146.758621	0.000000	-1.000000	-1.000000	474458.000000	1772311608.276910
-21277.260000	-26359.740000	-27054.720000	-14542.065000	0.000000	0.000000	0.000000	0.000000	1.069782	5.830814	1.339338	-0.990811	0.000000	0.000000	-0.000000	-0.000000	5.981920	0.473060	-0.610400	0.020203	0.974668	0.018005	-1.000000	-1.000000	-1.000000	-1.000000	-1.000000	-1.000000	-1.000000	146.758621	0.000000	-1.000000	-1.000000	474459.000000	1772311608.281219
-21277.665000	-26360.145000	-27055.440000	-14546.430000	0.000000	0.000000	0.000000	0.000000	-2.846115	25.773827	-1.492654	-2.849408	0.000000	0.000000	-0.000000	-0.000000	5.981920	0.473060	-0.610400	0.020203	0.974668	0.018005	-1.000000	-1.000000	-1.000000	-1.000000	-1.000000	-1.000000	-1.000000	146.758621	0.000000	-1.000000	-1.000000	474460.000000	1772311608.281221
-21266.730000	-26381.025000	-27046.215000	-14540.850000	0.000000	0.000000	0.000000	0.000000	-5.590075	35.342433	-3.741804	-3.820772	0.000000	0.000000	-0.000000	-0.000000	5.981920	0.473060	-0.610400	0.020203	0.974668	0.018005	-1.000000	-1.000000	-1.000000	-1.000000	-1.000000	-1.000000	-1.000000	146.758621	0.000000	-1.000000	-1.000000	474461.000000	1772311608.287819
-21239.190000	-26384.130000	-27016.065000	-14513.130000	0.000000	0.000000	0.000000	0.000000	-4.257192	27.767014	-2.570006	-1.957541	0.000000	0.000000	-0.000000	-0.000000	5.981920	0.473060	-0.610400	0.020203	0.974668	0.018005	-1.000000	-1.000000	-1.000000	-1.000000	-1.000000	-1.000000	-1.000000	146.758621	0.000000	-1.000000	-1.000000	474462.000000	1772311608.287821
-21243.105000	-26407.170000	-27014.040000	-14509.620000	0.000000	0.000000	0.000000	0.000000	1.314152	6.940536	2.595440	3.206127	0.000000	0.000000	-0.000000	-0.000000	5.981920	0.473060	-0.610400	0.020203	0.974668	0.018005	-1.000000	-1.000000	-1.000000	-1.000000	-1.000000	-1.000000	-1.000000	146.758621	0.000000	-1.000000	-1.000000	474463.000000	1772311608.288904
-21280.365000	-26427.645000	-27049.500000	-14540.445000	0.000000	0.000000	0.000000	0.000000	6.428917	-16.031853	7.574031	8.199974	0.000000	0.000000	-0.000000	-0.000000	5.981920	0.473060	-0.610400	0.020203	0.974668	0.018005	-1.000000	-1.000000	-1.000000	-1.000000	-1.000000	-1.000000	-1.000000	146.758621	0.000000	-1.000000	-1.000000	474464.000000	1772311608.288907
-21261.105000	-26409.105000	-27033.075000	-14521.635000	0.000000	0.000000	0.000000	0.000000	5.553202	-30.216784	6.662861	7.944023	0.000000	0.000000	-0.000000	-0.000000	8.698200	-0.030520	-1.220800	0.020142	0.976621	0.020447	-1.000000	-1.000000	-1.000000	-1.000000	-1.000000	-1.000000	-1.000000	146.758621	0.000000	-1.000000	-1.000000	474465.000000	1772311608.293057
-21253.275000	-26421.255000	-27023.895000	-14508.945000	0.000000	0.000000	0.000000	0.000000	-0.115544	-29.557481	0.364142	2.700492	0.000000	0.000000	-0.000000	-0.000000	8.698200	-0.030520	-1.220800	0.020142	0.976621	0.020447	-1.000000	-1.000000	-1.000000	-1.000000	-1.000000	-1.000000	-1.000000	146.758621	0.000000	-1.000000	-1.000000	474466.000000	1772311608.293061
-21266.775000	-26425.665000	-27033.345000	-14515.425000	0.000000	0.000000	0.000000	0.000000	-4.684408	-16.263102	-5.468409	-2.515387	0.000000	0.000000	-0.000000	-0.000000	8.698200	-0.030520	-1.220800	0.020142	0.976621	0.020447	-1.000000	-1.000000	-1.000000	-1.000000	-1.000000	-1.000000	-1.000000	146.758621	0.000000	-1.000000	-1.000000	474467.000000	1772311608.300495
-21271.140000	-26440.065000	-27033.390000	-14510.745000	0.000000	0.000000	0.000000	0.000000	-5.659264	0.727198	-7.444214	-4.882405	0.000000	0.000000	-0.000000	-0.000000	8.698200	-0.030520	-1.220800	0.020142	0.976621	0.020447	-1.000000	-1.000000	-1.000000	-1.000000	-1.000000	-1.000000	-1.000000	146.758621	0.000000	-1.000000	-1.000000	474468.000000	1772311608.300497
-21247.920000	-26447.265000	-27007.785000	-14488.245000	0.000000	0.000000	0.000000	0.000000	-3.931163	12.733483	-5.712200	-4.552103	0.000000	0.000000	-0.000000	-0.000000	8.698200	-0.030520	-1.220800	0.020142	0.976621	0.020447	-1.000000	-1.000000	-1.000000	-1.000000	-1.000000	-1.000000	-1.000000	146.758621	0.000000	-1.000000	-1.000000	474469.000000	1772311608.300973
-21199.545000	-26410.545000	-26960.580000	-14447.565000	0.000000	0.000000	0.000000	0.000000	0.751237	17.086631	-0.280632	-1.351717	0.000000	0.000000	-0.000000	-0.000000	8.698200	-0.030520	-1.220800	0.020142	0.976621	0.020447	-1.000000	-1.000000	-1.000000	-1.000000	-1.000000	-1.000000	-1.000000	146.758621	0.000000	-1.000000	-1.000000	474470.000000	1772311608.300975
-21221.325000	-26370.495000	-26986.770000	-14486.580000	0.000000	0.000000	0.000000	0.000000	7.907550	17.531756	7.404884	3.505396	0.000000	0.000000	-0.000000	-0.000000	8.698200	-0.030520	-1.220800	0.020142	0.976621	0.020447	-1.000000	-1.000000	-1.000000	-1.000000	-1.000000	-1.000000	-1.000000	146.758621	0.000000	-1.000000	-1.000000	474471.000000	1772311608.306814
-21296.070000	-26357.130000	-27060.615000	-14561.505000	0.000000	0.000000	0.000000	0.000000	10.961472	17.984107	10.146130	3.644651	0.000000	0.000000	-0.000000	-0.000000	8.698200	-0.030520	-1.220800	0.020142	0.976621	0.020447	-1.000000	-1.000000	-1.000000	-1.000000	-1.000000	-1.000000	-1.000000	146.758621	0.000000	-1.000000	-1.000000	474472.000000	1772311608.306817
-21286.215000	-26343.990000	-27046.215000	-14539.365000	0.000000	0.000000	0.000000	0.000000	2.832640	16.871720	1.391534	-5.679695	0.000000	0.000000	-0.000000	-0.000000	8.698200	-0.030520	-1.220800	0.020142	0.976621	0.020447	-1.000000	-1.000000	-1.000000	-1.000000	-1.000000	-1.000000	-1.000000	146.758621	0.000000	-1.000000	-1.000000	474473.000000	1772311608.309006
-21253.815000	-26322.390000	-27021.375000	-14521.995000	0.000000	0.000000	0.000000	0.000000	-11.138197	10.552423	-12.574962	-16.847235	0.000000	0.000000	-0.000000	-0.000000	8.698200	-0.030520	-1.220800	0.020142	0.976621	0.020447	-1.000000	-1.000000	-1.000000	-1.000000	-1.000000	-1.000000	-1.000000	146.758621	0.000000	-1.000000	-1.000000	474474.000000	1772311608.309010
