Channel1	Channel2	Channel3	Channel4	Channel5	Channel6	Channel7	Channel8	FilteredChannel1	FilteredChannel2	FilteredChannel3	FilteredChannel4	FilteredChannel5	FilteredChannel6	FilteredChannel7	FilteredChannel8	GyroX	GyroY	GyroZ	AccX	AccY	AccZ	PPG1	PPG2	rawPPG1	rawPPG2	rawPPG3	Hr	Hrv	Battery	Trigger	PhysicalTrigger	AutoTrigger	NumMeasurements	Timestamp
-19649.250000	-25938.495000	-25557.030000	-13948.110000	0.000000	0.000000	0.000000	0.000000	2.910078	-5.012272	3.413332	3.780374	-0.000000	-0.000000	-0.000000	-0.000000	3.143560	0.122080	-0.289940	0.031677	0.982969	-0.000854	-1.000000	-1.000000	-1.000000	-1.000000	-1.000000	-1.000000	-1.000000	146.965517	0.000000	-1.000000	-1.000000	456656.000000	1772311572.570107
-19678.770000	-25967.655000	-25587.900000	-13976.145000	0.000000	0.000000	0.000000	0.000000	6.153731	-49.371893	7.865907	7.730712	-0.000000	-0.000000	-0.000000	-0.000000	3.143560	0.122080	-0.289940	0.031677	0.982969	-0.000854	-1.000000	-1.000000	-1.000000	-1.000000	-1.000000	-1.000000	-1.000000	146.965517	0.000000	-1.000000	-1.000000	456657.000000	1772311572.570110
-19675.620000	-25968.690000	-25585.335000	-13973.985000	0.000000	0.000000	0.000000	0.000000	7.167644	-80.618922	9.154453	8.676501	-0.000000	-0.000000	-0.000000	-0.000000	3.143560	0.122080	-0.289940	0.031677	0.982969	-0.000854	-1.000000	-1.000000	-1.000000	-1.000000	-1.000000	-1.000000	-1.000000	146.965517	0.000000	-1.000000	-1.000000	456658.000000	1772311572.572969
-19653.975000	-25990.380000	-25564.545000	-13952.880000	0.000000	0.000000	0.000000	0.000000	4.455392	-85.362822	5.604023	5.226909	-0.000000	-0.000000	-0.000000	-0.000000	3.143560	0.122080	-0.289940	0.031677	0.982969	-0.000854	-1.000000	-1.000000	-1.000000	-1.000000	-1.000000	-1.000000	-1.000000	146.965517	0.000000	-1.000000	-1.000000	456659.000000	1772311572.572972
-19648.260000	-26007.705000	-25559.595000	-13947.840000	0.000000	0.000000	0.000000	0.000000	1.296509	-61.736912	1.065495	1.035231	-0.000000	-0.000000	-0.000000	-0.000000	3.143560	0.122080	-0.289940	0.031677	0.982969	-0.000854	-1.000000	-1.000000	-1.000000	-1.000000	-1.000000	-1.000000	-1.000000	146.965517	0.000000	-1.000000	-1.000000	456660.000000	1772311572.577032
-19643.940000	-25996.500000	-25556.130000	-13945.455000	0.000000	0.000000	0.000000	0.000000	0.414018	-21.165575	-0.949973	-0.738807	-0.000000	-0.000000	-0.000000	-0.000000	3.143560	0.122080	-0.289940	0.031677	0.982969	-0.000854	-1.000000	-1.000000	-1.000000	-1.000000	-1.000000	-1.000000	-1.000000	146.965517	0.000000	-1.000000	-1.000000	456661.000000	1772311572.577036
-19620.765000	-25957.620000	-25533.180000	-13923.630000	0.000000	0.000000	0.000000	0.000000	1.124859	21.090040	-0.625994	-0.486351	-0.000000	-0.000000	-0.000000	-0.000000	3.143560	0.122080	-0.289940	0.031677	0.982969	-0.000854	-1.000000	-1.000000	-1.000000	-1.000000	-1.000000	-1.000000	-1.000000	146.965517	0.000000	-1.000000	-1.000000	456662.000000	1772311572.580950
-19633.545000	-25919.640000	-25543.305000	-13921.335000	0.000000	0.000000	0.000000	0.000000	1.609554	53.517259	0.321803	0.346354	-0.000000	-0.000000	-0.000000	-0.000000	3.143560	0.122080	-0.289940	0.031677	0.982969	-0.000854	-1.000000	-1.000000	-1.000000	-1.000000	-1.000000	-1.000000	-1.000000	146.965517	0.000000	-1.000000	-1.000000	456663.000000	1772311572.580953
-19671.840000	-25912.215000	-25575.345000	-13939.965000	0.000000	0.000000	0.000000	0.000000	-0.601014	68.548136	-0.687343	0.050544	-0.000000	-0.000000	-0.000000	-0.000000	2.868880	-0.030520	-0.350980	0.031616	0.983335	-0.000916	-1.000000	-1.000000	-1.000000	-1.000000	-1.000000	-1.000000	-1.000000	146.965517	0.000000	-1.000000	-1.000000	456664.000000	1772311572.584964
-19685.520000	-25904.970000	-25587.855000	-13954.320000	0.000000	0.000000	0.000000	0.000000	-7.232985	62.027936	-5.739621	-3.296589	-0.000000	-0.000000	-0.000000	-0.000000	2.868880	-0.030520	-0.350980	0.031616	0.983335	-0.000916	-1.000000	-1.000000	-1.000000	-1.000000	-1.000000	-1.000000	-1.000000	146.965517	0.000000	-1.000000	-1.000000	456665.000000	1772311572.584967
-19682.505000	-25890.750000	-25595.325000	-13998.510000	0.000000	0.000000	0.000000	0.000000	-14.988850	36.575699	-12.558649	-9.732130	-0.000000	-0.000000	-0.000000	-0.000000	2.868880	-0.030520	-0.350980	0.031616	0.983335	-0.000916	-1.000000	-1.000000	-1.000000	-1.000000	-1.000000	-1.000000	-1.000000	146.965517	0.000000	-1.000000	-1.000000	456666.000000	1772311572.593242
-19674.225000	-25864.200000	-25591.815000	-14000.670000	0.000000	0.000000	0.000000	0.000000	-16.764809	3.227197	-15.286274	-16.256468	-0.000000	-0.000000	-0.000000	-0.000000	2.868880	-0.030520	-0.350980	0.031616	0.983335	-0.000916	-1.000000	-1.000000	-1.000000	-1.000000	-1.000000	-1.000000	-1.000000	146.965517	0.000000	-1.000000	-1.000000	456667.000000	1772311572.593246
-19681.920000	-25871.715000	-25597.395000	-13995.180000	0.000000	0.000000	0.000000	0.000000	-9.213985	-24.584508	-10.326214	-17.509672	-0.000000	-0.000000	-0.000000	-0.000000	2.868880	-0.030520	-0.350980	0.031616	0.983335	-0.000916	-1.000000	-1.000000	-1.000000	-1.000000	-1.000000	-1.000000	-1.000000	146.965517	0.000000	-1.000000	-1.000000	456668.000000	1772311572.593251
-19692.315000	-25890.255000	-25604.910000	-13998.330000	0.000000	0.000000	0.000000	0.000000	3.340940	-39.690325	0.122617	-9.674871	-0.000000	-0.000000	-0.000000	-0.000000	2.868880	-0.030520	-0.350980	0.031616	0.983335	-0.000916	-1.000000	-1.000000	-1.000000	-1.000000	-1.000000	-1.000000	-1.000000	146.965517	0.000000	-1.000000	-1.000000	456669.000000	1772311572.593253
-19668.645000	-25929.540000	-25581.060000	-13973.895000	0.000000	0.000000	0.000000	0.000000	13.733319	-43.092633	10.716382	5.086930	-0.000000	-0.000000	-0.000000	-0.000000	2.868880	-0.030520	-0.350980	0.031616	0.983335	-0.000916	-1.000000	-1.000000	-1.000000	-1.000000	-1.000000	-1.000000	-1.000000	146.965517	0.000000	-1.000000	-1.000000	456670.000000	1772311572.597054
-19641.375000	-25948.890000	-25555.140000	-13950.630000	0.000000	0.000000	0.000000	0.000000	18.896285	-38.752288	18.090875	20.419320	-0.000000	-0.000000	-0.000000	-0.000000	2.868880	-0.030520	-0.350980	0.031616	0.983335	-0.000916	-1.000000	-1.000000	-1.000000	-1.000000	-1.000000	-1.000000	-1.000000	146.965517	0.000000	-1.000000	-1.000000	456671.000000	1772311572.597057
-19644.840000	-25976.070000	-25559.235000	-13956.930000	0.000000	0.000000	0.000000	0.000000	19.402612	-28.861438	21.040309	29.646881	-0.000000	-0.000000	-0.000000	-0.000000	2.868880	-0.030520	-0.350980	0.031616	0.983335	-0.000916	-1.000000	-1.000000	-1.000000	-1.000000	-1.000000	-1.000000	-1.000000	146.965517	0.000000	-1.000000	-1.000000	456672.000000	1772311572.600967
-19646.145000	-25969.995000	-25559.910000	-13958.460000	0.000000	0.000000	0.000000	0.000000	14.951644	-13.869108	17.794289	27.728516	-0.000000	-0.000000	-0.000000	-0.000000	2.868880	-0.030520	-0.350980	0.031616	0.983335	-0.000916	-1.000000	-1.000000	-1.000000	-1.000000	-1.000000	-1.000000	-1.000000	146.965517	0.000000	-1.000000	-1.000000	456673.000000	1772311572.600970
-19667.205000	-25952.805000	-25578.405000	-13969.260000	0.000000	0.000000	0.000000	0.000000	4.876633	5.351100	7.479686	14.359879	-0.000000	-0.000000	-0.000000	-0.000000	2.746800	0.274680	-0.305200	0.032532	0.983884	-0.001526	-1.000000	-1.000000	-1.000000	-1.000000	-1.000000	-1.000000	-1.000000	146.965517	0.000000	-1.000000	-1.000000	456674.000000	1772311572.606826
-19672.740000	-25928.100000	-25578.495000	-13961.520000	0.000000	0.000000	0.000000	0.000000	-8.556683	25.711385	-6.870683	-4.388363	-0.000000	-0.000000	-0.000000	-0.000000	2.746800	0.274680	-0.305200	0.032532	0.983884	-0.001526	-1.000000	-1.000000	-1.000000	-1.000000	-1.000000	-1.000000	-1.000000	146.965517	0.000000	-1.000000	-1.000000	456675.000000	1772311572.606828
-19668.735000	-25894.440000	-25574.805000	-13956.345000	0.000000	0.000000	0.000000	0.000000	-19.664656	41.592462	-18.777034	-19.388461	-0.000000	-0.000000	-0.000000	-0.000000	2.746800	0.274680	-0.305200	0.032532	0.983884	-0.001526	-1.000000	-1.000000	-1.000000	-1.000000	-1.000000	-1.000000	-1.000000	146.965517	0.000000	-1.000000	-1.000000	456676.000000	1772311572.609082
-19679.220000	-25852.005000	-25587.315000	-13965.480000	0.000000	0.000000	0.000000	0.000000	-22.829931	47.531853	-22.590416	-24.531205	-0.000000	-0.000000	-0.000000	-0.000000	2.746800	0.274680	-0.305200	0.032532	0.983884	-0.001526	-1.000000	-1.000000	-1.000000	-1.000000	-1.000000	-1.000000	-1.000000	146.965517	0.000000	-1.000000	-1.000000	456677.000000	1772311572.609084
-19681.020000	-25805.250000	-25588.980000	-13966.245000	0.000000	0.000000	0.000000	0.000000	-17.089609	41.641212	-17.772898	-20.230523	-0.000000	-0.000000	-0.000000	-0.000000	2.746800	0.274680	-0.305200	0.032532	0.983884	-0.001526	-1.000000	-1.000000	-1.000000	-1.000000	-1.000000	-1.000000	-1.000000	146.965517	0.000000	-1.000000	-1.000000	456678.000000	1772311572.613156
-19683.450000	-25770.150000	-25596.855000	-13985.010000	0.000000	0.000000	0.000000	0.000000	-6.241619	26.122484	-8.157953	-11.315767	-0.000000	-0.000000	-0.000000	-0.000000	2.746800	0.274680	-0.305200	0.032532	0.983884	-0.001526	-1.000000	-1.000000	-1.000000	-1.000000	-1.000000	-1.000000	-1.000000	146.965517	0.000000	-1.000000	-1.000000	456679.000000	1772311572.613159
-19679.040000	-25724.565000	-25596.630000	-13990.815000	0.000000	0.000000	0.000000	0.000000	4.789427	5.647518	1.715832	-2.843976	-0.000000	-0.000000	-0.000000	-0.000000	2.746800	0.274680	-0.305200	0.032532	0.983884	-0.001526	-1.000000	-1.000000	-1.000000	-1.000000	-1.000000	-1.000000	-1.000000	146.965517	0.000000	-1.000000	-1.000000	456680.000000	1772311572.617000
-19682.145000	-25686.135000	-25597.710000	-13992.975000	0.000000	0.000000	0.000000	0.000000	12.407885	-14.070815	8.837246	2.781320	-0.000000	-0.000000	-0.000000	-0.000000	2.746800	0.274680	-0.305200	0.032532	0.983884	-0.001526	-1.000000	-1.000000	-1.000000	-1.000000	-1.000000	-1.000000	-1.000000	146.965517	0.000000	-1.000000	-1.000000	456681.000000	1772311572.617003
-19688.715000	-25647.210000	-25605.090000	-14002.695000	0.000000	0.000000	0.000000	0.000000	14.749929	-27.964403	11.981853	5.942791	-0.000000	-0.000000	-0.000000	-0.000000	2.746800	0.274680	-0.305200	0.032532	0.983884	-0.001526	-1.000000	-1.000000	-1.000000	-1.000000	-1.000000	-1.000000	-1.000000	146.965517	0.000000	-1.000000	-1.000000	456682.000000	1772311572.621128
-19682.145000	-25663.095000	-25598.700000	-13990.590000	0.000000	0.000000	0.000000	0.000000	11.951176	-34.394659	11.281272	7.813421	-0.000000	-0.000000	-0.000000	-0.000000	2.746800	0.274680	-0.305200	0.032532	0.983884	-0.001526	-1.000000	-1.000000	-1.000000	-1.000000	-1.000000	-1.000000	-1.000000	146.965517	0.000000	-1.000000	-1.000000	456683.000000	1772311572.621131
-19681.290000	-25693.200000	-25596.990000	-13986.630000	0.000000	0.000000	0.000000	0.000000	6.373475	-36.327386	8.172776	9.287531	-0.000000	-0.000000	-0.000000	-0.000000	2.990960	0.122080	-0.595140	0.032349	0.982236	-0.001221	-1.000000	-1.000000	-1.000000	-1.000000	-1.000000	-1.000000	-1.000000	146.965517	0.000000	-1.000000	-1.000000	456684.000000	1772311572.626573
-19678.455000	-25695.405000	-25594.740000	-13983.165000	0.000000	0.000000	0.000000	0.000000	1.009787	-36.762003	4.532544	10.330999	-0.000000	-0.000000	-0.000000	-0.000000	2.990960	0.122080	-0.595140	0.032349	0.982236	-0.001221	-1.000000	-1.000000	-1.000000	-1.000000	-1.000000	-1.000000	-1.000000	146.965517	0.000000	-1.000000	-1.000000	456685.000000	1772311572.626577
-19654.830000	-25694.505000	-25570.080000	-13958.325000	0.000000	0.000000	0.000000	0.000000	-2.113693	-33.358344	1.769457	10.104435	-0.000000	-0.000000	-0.000000	-0.000000	2.990960	0.122080	-0.595140	0.032349	0.982236	-0.001221	-1.000000	-1.000000	-1.000000	-1.000000	-1.000000	-1.000000	-1.000000	146.965517	0.000000	-1.000000	-1.000000	456686.000000	1772311572.629160
-19658.790000	-25709.760000	-25576.380000	-13965.750000	0.000000	0.000000	0.000000	0.000000	-2.358151	-21.936626	0.559812	8.121343	-0.000000	-0.000000	-0.000000	-0.000000	2.990960	0.122080	-0.595140	0.032349	0.982236	-0.001221	-1.000000	-1.000000	-1.000000	-1.000000	-1.000000	-1.000000	-1.000000	146.965517	0.000000	-1.000000	-1.000000	456687.000000	1772311572.629163
-19676.745000	-25722.765000	-25595.055000	-13986.000000	0.000000	0.000000	0.000000	0.000000	-1.619046	-3.715588	-0.499548	3.532819	-0.000000	-0.000000	-0.000000	-0.000000	2.990960	0.122080	-0.595140	0.032349	0.982236	-0.001221	-1.000000	-1.000000	-1.000000	-1.000000	-1.000000	-1.000000	-1.000000	146.965517	0.000000	-1.000000	-1.000000	456688.000000	1772311572.633089
-19659.645000	-25751.475000	-25573.455000	-13963.320000	0.000000	0.000000	0.000000	0.000000	-2.654908	14.548566	-3.355086	-3.816883	-0.000000	-0.000000	-0.000000	-0.000000	2.990960	0.122080	-0.595140	0.032349	0.982236	-0.001221	-1.000000	-1.000000	-1.000000	-1.000000	-1.000000	-1.000000	-1.000000	146.965517	0.000000	-1.000000	-1.000000	456689.000000	1772311572.633092
-19655.235000	-25791.210000	-25567.695000	-13959.315000	0.000000	0.000000	0.000000	0.000000	-4.830838	25.593964	-6.468253	-10.407273	-0.000000	-0.000000	-0.000000	-0.000000	2.990960	0.122080	-0.595140	0.032349	0.982236	-0.001221	-1.000000	-1.000000	-1.000000	-1.000000	-1.000000	-1.000000	-1.000000	146.965517	0.000000	-1.000000	-1.000000	456690.000000	1772311572.637081
-19677.465000	-25737.075000	-25592.445000	-13984.065000	0.000000	0.000000	0.000000	0.000000	-5.785646	27.619649	-7.263196	-12.546350	-0.000000	-0.000000	-0.000000	-0.000000	2.990960	0.122080	-0.595140	0.032349	0.982236	-0.001221	-1.000000	-1.000000	-1.000000	-1.000000	-1.000000	-1.000000	-1.000000	146.965517	0.000000	-1.000000	-1.000000	456691.000000	1772311572.637084
-19648.935000	-25694.370000	-25563.420000	-13950.990000	0.000000	0.000000	0.000000	0.000000	-5.059265	26.804240	-5.978125	-10.455505	-0.000000	-0.000000	-0.000000	-0.000000	2.990960	0.122080	-0.595140	0.032349	0.982236	-0.001221	-1.000000	-1.000000	-1.000000	-1.000000	-1.000000	-1.000000	-1.000000	146.965517	0.000000	-1.000000	-1.000000	456692.000000	1772311572.646098
-19632.465000	-25690.500000	-25547.985000	-13935.105000	0.000000	0.000000	0.000000	0.000000	-2.256381	28.686444	-2.895716	-5.088194	-0.000000	-0.000000	-0.000000	-0.000000	2.990960	0.122080	-0.595140	0.032349	0.982236	-0.001221	-1.000000	-1.000000	-1.000000	-1.000000	-1.000000	-1.000000	-1.000000	146.965517	0.000000	-1.000000	-1.000000	456693.000000	1772311572.646101
-19679.220000	-25712.415000	-25594.380000	-13978.170000	0.000000	0.000000	0.000000	0.000000	1.960595	28.763911	1.280537	1.758073	-0.000000	-0.000000	-0.000000	-0.000000	4.394880	0.350980	-0.778260	0.031799	0.980527	0.000488	-1.000000	-1.000000	-1.000000	-1.000000	-1.000000	-1.000000	-1.000000	146.965517	0.000000	-1.000000	-1.000000	456694.000000	1772311572.646651
-19707.030000	-25720.695000	-25623.045000	-14003.955000	0.000000	0.000000	0.000000	0.000000	2.887736	18.664729	2.151611	4.597409	-0.000000	-0.000000	-0.000000	-0.000000	4.394880	0.350980	-0.778260	0.031799	0.980527	0.000488	-1.000000	-1.000000	-1.000000	-1.000000	-1.000000	-1.000000	-1.000000	146.965517	0.000000	-1.000000	-1.000000	456695.000000	1772311572.646654
-19681.920000	-25704.675000	-25597.935000	-13983.480000	0.000000	0.000000	0.000000	0.000000	-1.671502	-1.224562	-2.251002	0.778041	-0.000000	-0.000000	-0.000000	-0.000000	4.394880	0.350980	-0.778260	0.031799	0.980527	0.000488	-1.000000	-1.000000	-1.000000	-1.000000	-1.000000	-1.000000	-1.000000	146.965517	0.000000	-1.000000	-1.000000	456696.000000	1772311572.649086
-19680.435000	-25692.705000	-25592.490000	-13971.195000	0.000000	0.000000	0.000000	0.000000	-5.881123	-20.533081	-6.006637	-3.879580	-0.000000	-0.000000	-0.000000	-0.000000	4.394880	0.350980	-0.778260	0.031799	0.980527	0.000488	-1.000000	-1.000000	-1.000000	-1.000000	-1.000000	-1.000000	-1.000000	146.965517	0.000000	-1.000000	-1.000000	456697.000000	1772311572.649088
-19676.610000	-25703.505000	-25585.245000	-13955.715000	0.000000	0.000000	0.000000	0.000000	-3.717071	-29.417454	-3.049468	-2.405070	-0.000000	-0.000000	-0.000000	-0.000000	4.394880	0.350980	-0.778260	0.031799	0.980527	0.000488	-1.000000	-1.000000	-1.000000	-1.000000	-1.000000	-1.000000	-1.000000	146.965517	0.000000	-1.000000	-1.000000	456698.000000	1772311572.653185
-19666.620000	-25752.870000	-25576.245000	-13943.115000	0.000000	0.000000	0.000000	0.000000	3.659150	-27.508399	5.212517	5.094231	-0.000000	-0.000000	-0.000000	-0.000000	4.394880	0.350980	-0.778260	0.031799	0.980527	0.000488	-1.000000	-1.000000	-1.000000	-1.000000	-1.000000	-1.000000	-1.000000	146.965517	0.000000	-1.000000	-1.000000	456699.000000	1772311572.653188
-19668.510000	-25780.365000	-25578.945000	-13955.175000	0.000000	0.000000	0.000000	0.000000	10.807440	-21.566589	12.661636	12.477259	-0.000000	-0.000000	-0.000000	-0.000000	4.394880	0.350980	-0.778260	0.031799	0.980527	0.000488	-1.000000	-1.000000	-1.000000	-1.000000	-1.000000	-1.000000	-1.000000	146.965517	0.000000	-1.000000	-1.000000	456700.000000	1772311572.660560
-19671.885000	-25748.280000	-25584.030000	-13972.320000	0.000000	0.000000	0.000000	0.000000	13.016738	-15.242060	14.098862	13.068734	-0.000000	-0.000000	-0.000000	-0.000000	4.394880	0.350980	-0.778260	0.031799	0.980527	0.000488	-1.000000	-1.000000	-1.000000	-1.000000	-1.000000	-1.000000	-1.000000	146.965517	0.000000	-1.000000	-1.000000	456701.000000	1772311572.660564
-19670.895000	-25703.820000	-25589.790000	-13991.805000	0.000000	0.000000	0.000000	0.000000	8.943758	-4.743046	8.377511	4.804195	-0.000000	-0.000000	-0.000000	-0.000000	4.394880	0.350980	-0.778260	0.031799	0.980527	0.000488	-1.000000	-1.000000	-1.000000	-1.000000	-1.000000	-1.000000	-1.000000	146.965517	0.000000	-1.000000	-1.000000	456702.000000	1772311572.661244
-19678.005000	-25683.750000	-25591.905000	-13977.315000	0.000000	0.000000	0.000000	0.000000	1.036135	12.652018	-1.245038	-7.469969	-0.000000	-0.000000	-0.000000	-0.000000	4.394880	0.350980	-0.778260	0.031799	0.980527	0.000488	-1.000000	-1.000000	-1.000000	-1.000000	-1.000000	-1.000000	-1.000000	146.965517	0.000000	-1.000000	-1.000000	456703.000000	1772311572.661248
-19676.880000	-25661.250000	-25591.590000	-13976.370000	0.000000	0.000000	0.000000	0.000000	-6.614701	30.522254	-9.526524	-15.250636	-0.000000	-0.000000	-0.000000	-0.000000	4.211760	0.213640	-0.930860	0.031921	0.981443	-0.000793	-1.000000	-1.000000	-1.000000	-1.000000	-1.000000	-1.000000	-1.000000	146.965517	0.000000	-1.000000	-1.000000	456704.000000	1772311572.665250
-19677.555000	-25616.160000	-25599.960000	-13996.620000	0.000000	0.000000	0.000000	0.000000	-10.715859	38.714553	-12.760189	-14.039188	-0.000000	-0.000000	-0.000000	-0.000000	4.211760	0.213640	-0.930860	0.031921	0.981443	-0.000793	-1.000000	-1.000000	-1.000000	-1.000000	-1.000000	-1.000000	-1.000000	146.965517	0.000000	-1.000000	-1.000000	456705.000000	1772311572.665253
-19672.740000	-25595.955000	-25588.440000	-13978.170000	0.000000	0.000000	0.000000	0.000000	-9.994867	33.045619	-10.467655	-6.488890	-0.000000	-0.000000	-0.000000	-0.000000	4.211760	0.213640	-0.930860	0.031921	0.981443	-0.000793	-1.000000	-1.000000	-1.000000	-1.000000	-1.000000	-1.000000	-1.000000	146.965517	0.000000	-1.000000	-1.000000	456706.000000	1772311572.669201
-19674.360000	-25589.925000	-25589.835000	-13983.660000	0.000000	0.000000	0.000000	0.000000	-5.512523	16.196100	-4.420873	2.471549	-0.000000	-0.000000	-0.000000	-0.000000	4.211760	0.213640	-0.930860	0.031921	0.981443	-0.000793	-1.000000	-1.000000	-1.000000	-1.000000	-1.000000	-1.000000	-1.000000	146.965517	0.000000	-1.000000	-1.000000	456707.000000	1772311572.669204
-19691.910000	-25567.560000	-25609.995000	-14009.130000	0.000000	0.000000	0.000000	0.000000	-0.262740	-5.737119	2.076104	8.717808	-0.000000	-0.000000	-0.000000	-0.000000	4.211760	0.213640	-0.930860	0.031921	0.981443	-0.000793	-1.000000	-1.000000	-1.000000	-1.000000	-1.000000	-1.000000	-1.000000	146.965517	0.000000	-1.000000	-1.000000	456708.000000	1772311572.673192
-19704.780000	-25573.095000	-25622.280000	-14013.990000	0.000000	0.000000	0.000000	0.000000	2.388095	-25.152653	5.123252	9.172653	-0.000000	-0.000000	-0.000000	-0.000000	4.211760	0.213640	-0.930860	0.031921	0.981443	-0.000793	-1.000000	-1.000000	-1.000000	-1.000000	-1.000000	-1.000000	-1.000000	146.965517	0.000000	-1.000000	-1.000000	456709.000000	1772311572.673196
-19688.805000	-25577.010000	-25604.280000	-13990.455000	0.000000	0.000000	0.000000	0.000000	1.838656	-36.171101	3.924244	5.023134	-0.000000	-0.000000	-0.000000	-0.000000	4.211760	0.213640	-0.930860	0.031921	0.981443	-0.000793	-1.000000	-1.000000	-1.000000	-1.000000	-1.000000	-1.000000	-1.000000	146.965517	0.000000	-1.000000	-1.000000	456710.000000	1772311572.677305
-19669.680000	-25562.340000	-25586.865000	-13972.905000	0.000000	0.000000	0.000000	0.000000	1.386437	-36.659748	2.282028	1.795629	-0.000000	-0.000000	-0.000000	-0.000000	4.211760	0.213640	-0.930860	0.031921	0.981443	-0.000793	-1.000000	-1.000000	-1.000000	-1.000000	-1.000000	-1.000000	-1.000000	146.965517	0.000000	-1.000000	-1.000000	456711.000000	1772311572.677308
-19666.440000	-25545.195000	-25583.895000	-13973.265000	0.000000	0.000000	0.000000	0.000000	3.945292	-26.980800	3.655234	2.791606	-0.000000	-0.000000	-0.000000	-0.000000	4.211760	0.213640	-0.930860	0.031921	0.981443	-0.000793	-1.000000	-1.000000	-1.000000	-1.000000	-1.000000	-1.000000	-1.000000	146.965517	0.000000	-1.000000	-1.000000	456712.000000	1772311572.681247
-19681.110000	-25564.545000	-25596.450000	-13982.940000	0.000000	0.000000	0.000000	0.000000	7.527796	-10.639099	6.380539	5.157607	-0.000000	-0.000000	-0.000000	-0.000000	4.211760	0.213640	-0.930860	0.031921	0.981443	-0.000793	-1.000000	-1.000000	-1.000000	-1.000000	-1.000000	-1.000000	-1.000000	146.965517	0.000000	-1.000000	-1.000000	456713.000000	1772311572.681252
-19678.005000	-25594.650000	-25590.780000	-13977.405000	0.000000	0.000000	0.000000	0.000000	7.569802	4.662833	6.196388	4.233551	-0.000000	-0.000000	-0.000000	-0.000000	2.792580	-0.030520	-0.701960	0.031738	0.983457	-0.004272	-1.000000	-1.000000	-1.000000	-1.000000	-1.000000	-1.000000	-1.000000	146.965517	0.000000	-1.000000	-1.000000	456714.000000	1772311572.685247
-19651.635000	-25590.915000	-25563.915000	-13950.450000	0.000000	0.000000	0.000000	0.000000	3.353525	12.175364	2.455828	-0.119455	-0.000000	-0.000000	-0.000000	-0.000000	2.792580	-0.030520	-0.701960	0.031738	0.983457	-0.004272	-1.000000	-1.000000	-1.000000	-1.000000	-1.000000	-1.000000	-1.000000	146.965517	0.000000	-1.000000	-1.000000	456715.000000	1772311572.685251
-19671.120000	-25573.770000	-25586.910000	-13973.445000	0.000000	0.000000	0.000000	0.000000	-1.543946	12.722254	-1.754122	-4.351048	-0.000000	-0.000000	-0.000000	-0.000000	2.792580	-0.030520	-0.701960	0.031738	0.983457	-0.004272	-1.000000	-1.000000	-1.000000	-1.000000	-1.000000	-1.000000	-1.000000	146.965517	0.000000	-1.000000	-1.000000	456716.000000	1772311572.689338
-19664.640000	-25593.840000	-25579.935000	-13967.145000	0.000000	0.000000	0.000000	0.000000	-4.821580	11.743813	-4.819977	-6.810299	-0.000000	-0.000000	-0.000000	-0.000000	2.792580	-0.030520	-0.701960	0.031738	0.983457	-0.004272	-1.000000	-1.000000	-1.000000	-1.000000	-1.000000	-1.000000	-1.000000	146.965517	0.000000	-1.000000	-1.000000	456717.000000	1772311572.689341
-19647.990000	-25607.655000	-25564.680000	-13951.980000	0.000000	0.000000	0.000000	0.000000	-6.230607	11.131283	-6.610977	-7.627779	-0.000000	-0.000000	-0.000000	-0.000000	2.792580	-0.030520	-0.701960	0.031738	0.983457	-0.004272	-1.000000	-1.000000	-1.000000	-1.000000	-1.000000	-1.000000	-1.000000	146.965517	0.000000	-1.000000	-1.000000	456718.000000	1772311572.693549
-19665.225000	-25558.740000	-25584.120000	-13970.835000	0.000000	0.000000	0.000000	0.000000	-5.509278	10.030926	-6.409627	-6.409274	-0.000000	-0.000000	-0.000000	-0.000000	2.792580	-0.030520	-0.701960	0.031738	0.983457	-0.004272	-1.000000	-1.000000	-1.000000	-1.000000	-1.000000	-1.000000	-1.000000	146.965517	0.000000	-1.000000	-1.000000	456719.000000	1772311572.693553
-19672.830000	-25508.565000	-25594.515000	-13982.490000	0.000000	0.000000	0.000000	0.000000	-3.871288	10.599955	-5.035960	-4.218691	-0.000000	-0.000000	-0.000000	-0.000000	2.792580	-0.030520	-0.701960	0.031738	0.983457	-0.004272	-1.000000	-1.000000	-1.000000	-1.000000	-1.000000	-1.000000	-1.000000	146.965517	0.000000	-1.000000	-1.000000	456720.000000	1772311572.699309
-19655.370000	-25508.565000	-25575.840000	-13964.940000	0.000000	0.000000	0.000000	0.000000	-2.843956	14.348944	-3.855246	-2.624720	-0.000000	-0.000000	-0.000000	-0.000000	2.792580	-0.030520	-0.701960	0.031738	0.983457	-0.004272	-1.000000	-1.000000	-1.000000	-1.000000	-1.000000	-1.000000	-1.000000	146.965517	0.000000	-1.000000	-1.000000	456721.000000	1772311572.699312
-19664.820000	-25552.845000	-25580.025000	-13966.020000	0.000000	0.000000	0.000000	0.000000	-1.663742	15.237855	-1.912979	-0.694838	-0.000000	-0.000000	-0.000000	-0.000000	2.792580	-0.030520	-0.701960	0.031738	0.983457	-0.004272	-1.000000	-1.000000	-1.000000	-1.000000	-1.000000	-1.000000	-1.000000	146.965517	0.000000	-1.000000	-1.000000	456722.000000	1772311572.701275
-19671.615000	-25567.290000	-25585.380000	-13971.285000	0.000000	0.000000	0.000000	0.000000	0.255138	5.246174	1.422476	2.481498	-0.000000	-0.000000	-0.000000	-0.000000	2.792580	-0.030520	-0.701960	0.031738	0.983457	-0.004272	-1.000000	-1.000000	-1.000000	-1.000000	-1.000000	-1.000000	-1.000000	146.965517	0.000000	-1.000000	-1.000000	456723.000000	1772311572.701278
-19681.290000	-25593.435000	-25596.945000	-13981.095000	0.000000	0.000000	0.000000	0.000000	1.566515	-14.004704	4.144869	5.120372	-0.000000	-0.000000	-0.000000	-0.000000	1.266580	0.152600	-0.793520	0.031494	0.985044	-0.004395	-1.000000	-1.000000	-1.000000	-1.000000	-1.000000	-1.000000	-1.000000	146.965517	0.000000	-1.000000	-1.000000	456724.000000	1772311572.710674
-19675.125000	-25607.250000	-25593.570000	-13977.990000	0.000000	0.000000	0.000000	0.000000	1.511534	-31.341652	4.361815	5.233760	-0.000000	-0.000000	-0.000000	-0.000000	1.266580	0.152600	-0.793520	0.031494	0.985044	-0.004395	-1.000000	-1.000000	-1.000000	-1.000000	-1.000000	-1.000000	-1.000000	146.965517	0.000000	-1.000000	-1.000000	456725.000000	1772311572.710677
-19665.180000	-25596.495000	-25583.715000	-13968.495000	0.000000	0.000000	0.000000	0.000000	1.419106	-35.800918	2.948542	3.481271	-0.000000	-0.000000	-0.000000	-0.000000	1.266580	0.152600	-0.793520	0.031494	0.985044	-0.004395	-1.000000	-1.000000	-1.000000	-1.000000	-1.000000	-1.000000	-1.000000	146.965517	0.000000	-1.000000	-1.000000	456726.000000	1772311572.710681
-19675.890000	-25574.580000	-25594.695000	-13977.630000	0.000000	0.000000	0.000000	0.000000	2.554618	-23.507343	1.970416	1.901815	-0.000000	-0.000000	-0.000000	-0.000000	1.266580	0.152600	-0.793520	0.031494	0.985044	-0.004395	-1.000000	-1.000000	-1.000000	-1.000000	-1.000000	-1.000000	-1.000000	146.965517	0.000000	-1.000000	-1.000000	456727.000000	1772311572.710683
-19674.225000	-25537.680000	-25592.535000	-13978.215000	0.000000	0.000000	0.000000	0.000000	3.890190	0.864345	1.716658	1.008192	-0.000000	-0.000000	-0.000000	-0.000000	1.266580	0.152600	-0.793520	0.031494	0.985044	-0.004395	-1.000000	-1.000000	-1.000000	-1.000000	-1.000000	-1.000000	-1.000000	146.965517	0.000000	-1.000000	-1.000000	456728.000000	1772311572.713330
-19679.805000	-25485.705000	-25598.070000	-13982.850000	0.000000	0.000000	0.000000	0.000000	3.646812	27.030860	1.179953	0.008895	-0.000000	-0.000000	-0.000000	-0.000000	1.266580	0.152600	-0.793520	0.031494	0.985044	-0.004395	-1.000000	-1.000000	-1.000000	-1.000000	-1.000000	-1.000000	-1.000000	146.965517	0.000000	-1.000000	-1.000000	456729.000000	1772311572.713333
-19683.855000	-25475.895000	-25602.300000	-13985.865000	0.000000	0.000000	0.000000	0.000000	1.568831	43.930942	-0.034190	-1.323393	-0.000000	-0.000000	-0.000000	-0.000000	1.266580	0.152600	-0.793520	0.031494	0.985044	-0.004395	-1.000000	-1.000000	-1.000000	-1.000000	-1.000000	-1.000000	-1.000000	146.965517	0.000000	-1.000000	-1.000000	456730.000000	1772311572.717423
-19683.225000	-25477.065000	-25600.005000	-13984.830000	0.000000	0.000000	0.000000	0.000000	-1.177551	43.294569	-1.438090	-2.381563	-0.000000	-0.000000	-0.000000	-0.000000	1.266580	0.152600	-0.793520	0.031494	0.985044	-0.004395	-1.000000	-1.000000	-1.000000	-1.000000	-1.000000	-1.000000	-1.000000	146.965517	0.000000	-1.000000	-1.000000	456731.000000	1772311572.717427
-19679.940000	-25485.210000	-25596.675000	-13983.165000	0.000000	0.000000	0.000000	0.000000	-2.916407	23.772826	-2.014627	-2.357577	-0.000000	-0.000000	-0.000000	-0.000000	1.266580	0.152600	-0.793520	0.031494	0.985044	-0.004395	-1.000000	-1.000000	-1.000000	-1.000000	-1.000000	-1.000000	-1.000000	146.965517	0.000000	-1.000000	-1.000000	456732.000000	1772311572.721486
-19674.945000	-25529.490000	-25591.905000	-13976.955000	0.000000	0.000000	0.000000	0.000000	-2.532486	-7.054502	-1.059942	-0.919390	-0.000000	-0.000000	-0.000000	-0.000000	1.266580	0.152600	-0.793520	0.031494	0.985044	-0.004395	-1.000000	-1.000000	-1.000000	-1.000000	-1.000000	-1.000000	-1.000000	146.965517	0.000000	-1.000000	-1.000000	456733.000000	1772311572.721490
-19664.415000	-25543.620000	-25583.040000	-13968.765000	0.000000	0.000000	0.000000	0.000000	-0.211590	-36.578739	1.075582	1.493345	-0.000000	-0.000000	-0.000000	-0.000000	0.595140	0.366240	-0.427280	0.030945	0.983945	-0.004211	-1.000000	-1.000000	-1.000000	-1.000000	-1.000000	-1.000000	-1.000000	146.965517	0.000000	-1.000000	-1.000000	456734.000000	1772311572.725499
-19663.380000	-25537.725000	-25582.410000	-13967.280000	0.000000	0.000000	0.000000	0.000000	2.703235	-52.178026	3.192355	3.786181	-0.000000	-0.000000	-0.000000	-0.000000	0.595140	0.366240	-0.427280	0.030945	0.983945	-0.004211	-1.000000	-1.000000	-1.000000	-1.000000	-1.000000	-1.000000	-1.000000	146.965517	0.000000	-1.000000	-1.000000	456735.000000	1772311572.725503
-19653.615000	-25561.080000	-25573.680000	-13958.280000	0.000000	0.000000	0.000000	0.000000	4.444115	-46.831059	3.966225	4.673945	-0.000000	-0.000000	-0.000000	-0.000000	0.595140	0.366240	-0.427280	0.030945	0.983945	-0.004211	-1.000000	-1.000000	-1.000000	-1.000000	-1.000000	-1.000000	-1.000000	146.965517	0.000000	-1.000000	-1.000000	456736.000000	1772311572.729446
-19646.865000	-25583.850000	-25566.075000	-13950.720000	0.000000	0.000000	0.000000	0.000000	4.078544	-24.743733	2.985771	3.703532	-0.000000	-0.000000	-0.000000	-0.000000	0.595140	0.366240	-0.427280	0.030945	0.983945	-0.004211	-1.000000	-1.000000	-1.000000	-1.000000	-1.000000	-1.000000	-1.000000	146.965517	0.000000	-1.000000	-1.000000	456737.000000	1772311572.729450
-19658.025000	-25587.495000	-25576.470000	-13960.755000	0.000000	0.000000	0.000000	0.000000	1.724322	1.935613	0.685721	1.250613	-0.000000	-0.000000	-0.000000	-0.000000	0.595140	0.366240	-0.427280	0.030945	0.983945	-0.004211	-1.000000	-1.000000	-1.000000	-1.000000	-1.000000	-1.000000	-1.000000	146.965517	0.000000	-1.000000	-1.000000	456738.000000	1772311572.734238
-19667.070000	-25537.455000	-25584.930000	-13970.475000	0.000000	0.000000	0.000000	0.000000	-2.342867	23.734377	-2.721404	-2.484036	-0.000000	-0.000000	-0.000000	-0.000000	0.595140	0.366240	-0.427280	0.030945	0.983945	-0.004211	-1.000000	-1.000000	-1.000000	-1.000000	-1.000000	-1.000000	-1.000000	146.965517	0.000000	-1.000000	-1.000000	456739.000000	1772311572.734241
-19678.320000	-25507.665000	-25592.625000	-13976.235000	0.000000	0.000000	0.000000	0.000000	-7.233861	38.262276	-6.706140	-6.873194	-0.000000	-0.000000	-0.000000	-0.000000	0.595140	0.366240	-0.427280	0.030945	0.983945	-0.004211	-1.000000	-1.000000	-1.000000	-1.000000	-1.000000	-1.000000	-1.000000	146.965517	0.000000	-1.000000	-1.000000	456740.000000	1772311572.737412
-19670.265000	-25491.465000	-25585.830000	-13969.800000	0.000000	0.000000	0.000000	0.000000	-10.531338	44.691122	-9.276038	-9.715636	-0.000000	-0.000000	-0.000000	-0.000000	0.595140	0.366240	-0.427280	0.030945	0.983945	-0.004211	-1.000000	-1.000000	-1.000000	-1.000000	-1.000000	-1.000000	-1.000000	146.965517	0.000000	-1.000000	-1.000000	456741.000000	1772311572.737415
-19665.675000	-25480.935000	-25585.515000	-13969.980000	0.000000	0.000000	0.000000	0.000000	-9.414391	40.004907	-8.094754	-8.563923	-0.000000	-0.000000	-0.000000	-0.000000	0.595140	0.366240	-0.427280	0.030945	0.983945	-0.004211	-1.000000	-1.000000	-1.000000	-1.000000	-1.000000	-1.000000	-1.000000	146.965517	0.000000	-1.000000	-1.000000	456742.000000	1772311572.741491
-19675.215000	-25473.465000	-25597.710000	-13980.240000	0.000000	0.000000	0.000000	0.000000	-3.634133	23.230688	-3.246711	-3.583212	-0.000000	-0.000000	-0.000000	-0.000000	0.595140	0.366240	-0.427280	0.030945	0.983945	-0.004211	-1.000000	-1.000000	-1.000000	-1.000000	-1.000000	-1.000000	-1.000000	146.965517	0.000000	-1.000000	-1.000000	456743.000000	1772311572.741493
-19670.490000	-25469.595000	-25593.030000	-13975.065000	0.000000	0.000000	0.000000	0.000000	3.511105	-0.714573	2.382851	2.276836	-0.000000	-0.000000	-0.000000	-0.000000	1.113980	0.534100	-0.442540	0.031311	0.982419	-0.002747	-1.000000	-1.000000	-1.000000	-1.000000	-1.000000	-1.000000	-1.000000	146.965517	0.000000	-1.000000	-1.000000	456744.000000	1772311572.746945
-19658.880000	-25494.615000	-25581.960000	-13965.165000	0.000000	0.000000	0.000000	0.000000	8.559640	-23.614982	6.392389	6.531247	-0.000000	-0.000000	-0.000000	-0.000000	1.113980	0.534100	-0.442540	0.031311	0.982419	-0.002747	-1.000000	-1.000000	-1.000000	-1.000000	-1.000000	-1.000000	-1.000000	146.965517	0.000000	-1.000000	-1.000000	456745.000000	1772311572.746948
-19640.565000	-25526.475000	-25563.330000	-13948.470000	0.000000	0.000000	0.000000	0.000000	10.766031	-39.147952	8.793302	8.954746	-0.000000	-0.000000	-0.000000	-0.000000	1.113980	0.534100	-0.442540	0.031311	0.982419	-0.002747	-1.000000	-1.000000	-1.000000	-1.000000	-1.000000	-1.000000	-1.000000	146.965517	0.000000	-1.000000	-1.000000	456746.000000	1772311572.749439
-19657.080000	-25563.195000	-25577.865000	-13959.360000	0.000000	0.000000	0.000000	0.000000	10.407793	-44.714154	9.758752	9.663111	-0.000000	-0.000000	-0.000000	-0.000000	1.113980	0.534100	-0.442540	0.031311	0.982419	-0.002747	-1.000000	-1.000000	-1.000000	-1.000000	-1.000000	-1.000000	-1.000000	146.965517	0.000000	-1.000000	-1.000000	456747.000000	1772311572.749443
-19680.570000	-25567.380000	-25599.555000	-13979.655000	0.000000	0.000000	0.000000	0.000000	6.300676	-39.563699	7.411065	7.164769	-0.000000	-0.000000	-0.000000	-0.000000	1.113980	0.534100	-0.442540	0.031311	0.982419	-0.002747	-1.000000	-1.000000	-1.000000	-1.000000	-1.000000	-1.000000	-1.000000	146.965517	0.000000	-1.000000	-1.000000	456748.000000	1772311572.754912
-19680.930000	-25602.435000	-25599.960000	-13978.440000	0.000000	0.000000	0.000000	0.000000	-1.961172	-24.346286	0.498891	0.541467	-0.000000	-0.000000	-0.000000	-0.000000	1.113980	0.534100	-0.442540	0.031311	0.982419	-0.002747	-1.000000	-1.000000	-1.000000	-1.000000	-1.000000	-1.000000	-1.000000	146.965517	0.000000	-1.000000	-1.000000	456749.000000	1772311572.754916
-19658.790000	-25612.065000	-25582.365000	-13966.155000	0.000000	0.000000	0.000000	0.000000	-10.090831	-3.218532	-7.431804	-6.976471	-0.000000	-0.000000	-0.000000	-0.000000	1.113980	0.534100	-0.442540	0.031311	0.982419	-0.002747	-1.000000	-1.000000	-1.000000	-1.000000	-1.000000	-1.000000	-1.000000	146.965517	0.000000	-1.000000	-1.000000	456750.000000	1772311572.757550
-19650.645000	-25590.195000	-25574.535000	-13956.975000	0.000000	0.000000	0.000000	0.000000	-11.776715	17.681036	-10.321700	-9.963612	-0.000000	-0.000000	-0.000000	-0.000000	1.113980	0.534100	-0.442540	0.031311	0.982419	-0.002747	-1.000000	-1.000000	-1.000000	-1.000000	-1.000000	-1.000000	-1.000000	146.965517	0.000000	-1.000000	-1.000000	456751.000000	1772311572.757553
-19648.575000	-25584.750000	-25570.215000	-13951.620000	0.000000	0.000000	0.000000	0.000000	-5.767268	33.916406	-6.212838	-6.473863	-0.000000	-0.000000	-0.000000	-0.000000	1.113980	0.534100	-0.442540	0.031311	0.982419	-0.002747	-1.000000	-1.000000	-1.000000	-1.000000	-1.000000	-1.000000	-1.000000	146.965517	0.000000	-1.000000	-1.000000	456752.000000	1772311572.767176
-19670.940000	-25626.420000	-25593.030000	-13973.040000	0.000000	0.000000	0.000000	0.000000	2.394105	41.204289	0.618169	-0.099584	-0.000000	-0.000000	-0.000000	-0.000000	1.113980	0.534100	-0.442540	0.031311	0.982419	-0.002747	-1.000000	-1.000000	-1.000000	-1.000000	-1.000000	-1.000000	-1.000000	146.965517	0.000000	-1.000000	-1.000000	456753.000000	1772311572.767179
-19665.540000	-25677.090000	-25587.000000	-13967.055000	0.000000	0.000000	0.000000	0.000000	6.120585	34.342602	4.249857	3.697962	-0.000000	-0.000000	-0.000000	-0.000000	1.648080	0.289940	-0.488320	0.030762	0.982358	-0.001770	-1.000000	-1.000000	-1.000000	-1.000000	-1.000000	-1.000000	-1.000000	146.965517	0.000000	-1.000000	-1.000000	456754.000000	1772311572.767184
-19634.220000	-25676.010000	-25554.060000	-13936.545000	0.000000	0.000000	0.000000	0.000000	4.687904	13.963225	3.671289	3.646770	-0.000000	-0.000000	-0.000000	-0.000000	1.648080	0.289940	-0.488320	0.030762	0.982358	-0.001770	-1.000000	-1.000000	-1.000000	-1.000000	-1.000000	-1.000000	-1.000000	146.965517	0.000000	-1.000000	-1.000000	456755.000000	1772311572.767186
-19633.455000	-25663.455000	-25552.845000	-13937.310000	0.000000	0.000000	0.000000	0.000000	2.656205	-8.656594	2.774946	3.032672	-0.000000	-0.000000	-0.000000	-0.000000	1.648080	0.289940	-0.488320	0.030762	0.982358	-0.001770	-1.000000	-1.000000	-1.000000	-1.000000	-1.000000	-1.000000	-1.000000	146.965517	0.000000	-1.000000	-1.000000	456756.000000	1772311572.772100
-19675.980000	-25678.080000	-25593.435000	-13973.580000	0.000000	0.000000	0.000000	0.000000	1.754553	-20.280328	2.713546	2.826041	-0.000000	-0.000000	-0.000000	-0.000000	1.648080	0.289940	-0.488320	0.030762	0.982358	-0.001770	-1.000000	-1.000000	-1.000000	-1.000000	-1.000000	-1.000000	-1.000000	146.965517	0.000000	-1.000000	-1.000000	456757.000000	1772311572.772103
-19658.565000	-25683.930000	-25580.745000	-13959.990000	0.000000	0.000000	0.000000	0.000000	-0.837239	-17.830527	0.290451	0.314522	-0.000000	-0.000000	-0.000000	-0.000000	1.648080	0.289940	-0.488320	0.030762	0.982358	-0.001770	-1.000000	-1.000000	-1.000000	-1.000000	-1.000000	-1.000000	-1.000000	146.965517	0.000000	-1.000000	-1.000000	456758.000000	1772311572.773524
-19643.895000	-25671.960000	-25567.200000	-13947.480000	0.000000	0.000000	0.000000	0.000000	-4.755855	-7.628735	-4.293666	-3.964664	-0.000000	-0.000000	-0.000000	-0.000000	1.648080	0.289940	-0.488320	0.030762	0.982358	-0.001770	-1.000000	-1.000000	-1.000000	-1.000000	-1.000000	-1.000000	-1.000000	146.965517	0.000000	-1.000000	-1.000000	456759.000000	1772311572.773527
-19634.265000	-25688.700000	-25558.470000	-13941.180000	0.000000	0.000000	0.000000	0.000000	-5.467244	2.719282	-6.187139	-5.555758	-0.000000	-0.000000	-0.000000	-0.000000	1.648080	0.289940	-0.488320	0.030762	0.982358	-0.001770	-1.000000	-1.000000	-1.000000	-1.000000	-1.000000	-1.000000	-1.000000	146.965517	0.000000	-1.000000	-1.000000	456760.000000	1772311572.784852
-19620.180000	-25693.515000	-25542.405000	-13927.050000	0.000000	0.000000	0.000000	0.000000	-1.301322	8.010240	-2.880042	-2.497335	-0.000000	-0.000000	-0.000000	-0.000000	1.648080	0.289940	-0.488320	0.030762	0.982358	-0.001770	-1.000000	-1.000000	-1.000000	-1.000000	-1.000000	-1.000000	-1.000000	146.965517	0.000000	-1.000000	-1.000000	456761.000000	1772311572.784855
-19662.930000	-25720.380000	-25582.815000	-13963.815000	0.000000	0.000000	0.000000	0.000000	3.807118	6.321599	2.424396	2.119364	-0.000000	-0.000000	-0.000000	-0.000000	1.648080	0.289940	-0.488320	0.030762	0.982358	-0.001770	-1.000000	-1.000000	-1.000000	-1.000000	-1.000000	-1.000000	-1.000000	146.965517	0.000000	-1.000000	-1.000000	456762.000000	1772311572.784859
-19686.600000	-25758.450000	-25604.550000	-13984.245000	0.000000	0.000000	0.000000	0.000000	3.711210	-0.988331	3.573736	2.879982	-0.000000	-0.000000	-0.000000	-0.000000	1.648080	0.289940	-0.488320	0.030762	0.982358	-0.001770	-1.000000	-1.000000	-1.000000	-1.000000	-1.000000	-1.000000	-1.000000	146.965517	0.000000	-1.000000	-1.000000	456763.000000	1772311572.784862
-19671.165000	-25765.380000	-25588.305000	-13969.575000	0.000000	0.000000	0.000000	0.000000	-2.692235	-10.050891	-1.301338	-1.666408	-0.000000	-0.000000	-0.000000	-0.000000	1.526000	0.259420	-0.366240	0.030517	0.982725	-0.002075	-1.000000	-1.000000	-1.000000	-1.000000	-1.000000	-1.000000	-1.000000	146.965517	0.000000	-1.000000	-1.000000	456764.000000	1772311572.789948
-19666.800000	-25781.715000	-25582.320000	-13962.555000	0.000000	0.000000	0.000000	0.000000	-8.611153	-15.251792	-6.351812	-6.086292	-0.000000	-0.000000	-0.000000	-0.000000	1.526000	0.259420	-0.366240	0.030517	0.982725	-0.002075	-1.000000	-1.000000	-1.000000	-1.000000	-1.000000	-1.000000	-1.000000	146.965517	0.000000	-1.000000	-1.000000	456765.000000	1772311572.789950
-19662.390000	-25811.505000	-25577.730000	-13956.390000	0.000000	0.000000	0.000000	0.000000	-7.371956	-13.080285	-5.355280	-4.712680	-0.000000	-0.000000	-0.000000	-0.000000	1.526000	0.259420	-0.366240	0.030517	0.982725	-0.002075	-1.000000	-1.000000	-1.000000	-1.000000	-1.000000	-1.000000	-1.000000	146.965517	0.000000	-1.000000	-1.000000	456766.000000	1772311572.798795
-19657.980000	-25800.795000	-25575.030000	-13951.440000	0.000000	0.000000	0.000000	0.000000	0.380364	-4.940291	1.210029	1.899643	-0.000000	-0.000000	-0.000000	-0.000000	1.526000	0.259420	-0.366240	0.030517	0.982725	-0.002075	-1.000000	-1.000000	-1.000000	-1.000000	-1.000000	-1.000000	-1.000000	146.965517	0.000000	-1.000000	-1.000000	456767.000000	1772311572.798797
-19649.520000	-25814.970000	-25566.975000	-13942.350000	0.000000	0.000000	0.000000	0.000000	9.062626	5.526895	8.289497	8.873277	-0.000000	-0.000000	-0.000000	-0.000000	1.526000	0.259420	-0.366240	0.030517	0.982725	-0.002075	-1.000000	-1.000000	-1.000000	-1.000000	-1.000000	-1.000000	-1.000000	146.965517	0.000000	-1.000000	-1.000000	456768.000000	1772311572.798801
-19645.830000	-25838.280000	-25561.080000	-13929.525000	0.000000	0.000000	0.000000	0.000000	13.645167	14.067865	11.591289	12.085978	-0.000000	-0.000000	-0.000000	-0.000000	1.526000	0.259420	-0.366240	0.030517	0.982725	-0.002075	-1.000000	-1.000000	-1.000000	-1.000000	-1.000000	-1.000000	-1.000000	146.965517	0.000000	-1.000000	-1.000000	456769.000000	1772311572.798803
-19645.380000	-25850.340000	-25559.865000	-13935.105000	0.000000	0.000000	0.000000	0.000000	12.210263	16.505158	9.872837	10.281198	-0.000000	-0.000000	-0.000000	-0.000000	1.526000	0.259420	-0.366240	0.030517	0.982725	-0.002075	-1.000000	-1.000000	-1.000000	-1.000000	-1.000000	-1.000000	-1.000000	146.965517	0.000000	-1.000000	-1.000000	456770.000000	1772311572.798806
-19639.395000	-25896.195000	-25547.985000	-13914.360000	0.000000	0.000000	0.000000	0.000000	5.977173	11.527906	4.536098	4.603754	-0.000000	-0.000000	-0.000000	-0.000000	1.526000	0.259420	-0.366240	0.030517	0.982725	-0.002075	-1.000000	-1.000000	-1.000000	-1.000000	-1.000000	-1.000000	-1.000000	146.965517	0.000000	-1.000000	-1.000000	456771.000000	1772311572.798808
-19628.190000	-25949.655000	-25537.995000	-13906.800000	0.000000	0.000000	0.000000	0.000000	-1.608733	0.889014	-1.441905	-1.928047	-0.000000	-0.000000	-0.000000	-0.000000	1.526000	0.259420	-0.366240	0.030517	0.982725	-0.002075	-1.000000	-1.000000	-1.000000	-1.000000	-1.000000	-1.000000	-1.000000	146.965517	0.000000	-1.000000	-1.000000	456772.000000	1772311572.801622
-19643.625000	-25958.160000	-25557.345000	-13940.820000	0.000000	0.000000	0.000000	0.000000	-7.262749	-11.078784	-5.828878	-7.045215	-0.000000	-0.000000	-0.000000	-0.000000	1.526000	0.259420	-0.366240	0.030517	0.982725	-0.002075	-1.000000	-1.000000	-1.000000	-1.000000	-1.000000	-1.000000	-1.000000	146.965517	0.000000	-1.000000	-1.000000	456773.000000	1772311572.801624
-19681.830000	-25921.260000	-25596.855000	-13980.330000	0.000000	0.000000	0.000000	0.000000	-10.816426	-16.423823	-9.440485	-11.929120	-0.000000	-0.000000	-0.000000	-0.000000	2.029580	0.396760	-0.259420	0.030945	0.983213	-0.000427	-1.000000	-1.000000	-1.000000	-1.000000	-1.000000	-1.000000	-1.000000	146.965517	0.000000	-1.000000	-1.000000	456774.000000	1772311572.805611
-19650.780000	-25919.505000	-25580.745000	-14000.490000	0.000000	0.000000	0.000000	0.000000	-13.182811	-8.663857	-13.328975	-17.689075	-0.000000	-0.000000	-0.000000	-0.000000	2.029580	0.396760	-0.259420	0.030945	0.983213	-0.000427	-1.000000	-1.000000	-1.000000	-1.000000	-1.000000	-1.000000	-1.000000	146.965517	0.000000	-1.000000	-1.000000	456775.000000	1772311572.805613
-19644.795000	-25928.595000	-25565.805000	-13962.105000	0.000000	0.000000	0.000000	0.000000	-11.879144	8.273747	-14.126337	-20.020317	-0.000000	-0.000000	-0.000000	-0.000000	2.029580	0.396760	-0.259420	0.030945	0.983213	-0.000427	-1.000000	-1.000000	-1.000000	-1.000000	-1.000000	-1.000000	-1.000000	146.965517	0.000000	-1.000000	-1.000000	456776.000000	1772311572.809635
-19643.805000	-25952.130000	-25563.375000	-13953.465000	0.000000	0.000000	0.000000	0.000000	-4.565531	21.594371	-7.679648	-12.232143	-0.000000	-0.000000	-0.000000	-0.000000	2.029580	0.396760	-0.259420	0.030945	0.983213	-0.000427	-1.000000	-1.000000	-1.000000	-1.000000	-1.000000	-1.000000	-1.000000	146.965517	0.000000	-1.000000	-1.000000	456777.000000	1772311572.809638
-19643.490000	-25946.505000	-25564.455000	-13954.770000	0.000000	0.000000	0.000000	0.000000	5.430244	21.799362	3.877473	5.024009	-0.000000	-0.000000	-0.000000	-0.000000	2.029580	0.396760	-0.259420	0.030945	0.983213	-0.000427	-1.000000	-1.000000	-1.000000	-1.000000	-1.000000	-1.000000	-1.000000	146.965517	0.000000	-1.000000	-1.000000	456778.000000	1772311572.813770
-19644.345000	-25967.925000	-25563.240000	-13949.055000	0.000000	0.000000	0.000000	0.000000	12.174696	10.145476	13.603049	21.876991	-0.000000	-0.000000	-0.000000	-0.000000	2.029580	0.396760	-0.259420	0.030945	0.983213	-0.000427	-1.000000	-1.000000	-1.000000	-1.000000	-1.000000	-1.000000	-1.000000	146.965517	0.000000	-1.000000	-1.000000	456779.000000	1772311572.813773
-19645.740000	-25962.660000	-25565.400000	-13952.070000	0.000000	0.000000	0.000000	0.000000	12.580377	-5.120387	16.380928	28.552235	-0.000000	-0.000000	-0.000000	-0.000000	2.029580	0.396760	-0.259420	0.030945	0.983213	-0.000427	-1.000000	-1.000000	-1.000000	-1.000000	-1.000000	-1.000000	-1.000000	146.965517	0.000000	-1.000000	-1.000000	456780.000000	1772311572.821373
-19658.520000	-25924.365000	-25576.920000	-13966.560000	0.000000	0.000000	0.000000	0.000000	7.443192	-15.008668	11.784615	22.391427	-0.000000	-0.000000	-0.000000	-0.000000	2.029580	0.396760	-0.259420	0.030945	0.983213	-0.000427	-1.000000	-1.000000	-1.000000	-1.000000	-1.000000	-1.000000	-1.000000	146.965517	0.000000	-1.000000	-1.000000	456781.000000	1772311572.821376
-19676.835000	-25910.640000	-25593.390000	-13983.255000	0.000000	0.000000	0.000000	0.000000	-0.477138	-14.079620	2.635302	7.242433	-0.000000	-0.000000	-0.000000	-0.000000	2.029580	0.396760	-0.259420	0.030945	0.983213	-0.000427	-1.000000	-1.000000	-1.000000	-1.000000	-1.000000	-1.000000	-1.000000	146.965517	0.000000	-1.000000	-1.000000	456782.000000	1772311572.826804
-19661.670000	-25902.495000	-25580.790000	-13965.120000	0.000000	0.000000	0.000000	0.000000	-7.574776	-4.621211	-6.584789	-9.107172	-0.000000	-0.000000	-0.000000	-0.000000	2.029580	0.396760	-0.259420	0.030945	0.983213	-0.000427	-1.000000	-1.000000	-1.000000	-1.000000	-1.000000	-1.000000	-1.000000	146.965517	0.000000	-1.000000	-1.000000	456783.000000	1772311572.826807
-19630.440000	-25890.705000	-25549.290000	-13928.175000	0.000000	0.000000	0.000000	0.000000	-9.344385	5.039526	-10.479922	-17.658665	-0.000000	-0.000000	-0.000000	-0.000000	2.014320	0.244160	-0.549360	0.030823	0.983091	0.000610	-1.000000	-1.000000	-1.000000	-1.000000	-1.000000	-1.000000	-1.000000	146.965517	0.000000	-1.000000	-1.000000	456784.000000	1772311572.826811
-19639.440000	-25921.170000	-25559.370000	-13938.435000	0.000000	0.000000	0.000000	0.000000	-3.764280	7.602410	-6.405699	-14.156002	-0.000000	-0.000000	-0.000000	-0.000000	2.014320	0.244160	-0.549360	0.030823	0.983091	0.000610	-1.000000	-1.000000	-1.000000	-1.000000	-1.000000	-1.000000	-1.000000	146.965517	0.000000	-1.000000	-1.000000	456785.000000	1772311572.826813
-19665.540000	-25955.820000	-25584.525000	-13964.625000	0.000000	0.000000	0.000000	0.000000	4.260623	0.538559	1.134747	-4.250647	-0.000000	-0.000000	-0.000000	-0.000000	2.014320	0.244160	-0.549360	0.030823	0.983091	0.000610	-1.000000	-1.000000	-1.000000	-1.000000	-1.000000	-1.000000	-1.000000	146.965517	0.000000	-1.000000	-1.000000	456786.000000	1772311572.829927
-19673.955000	-25936.110000	-25590.915000	-13972.095000	0.000000	0.000000	0.000000	0.000000	6.886901	-12.131720	4.392458	1.930887	-0.000000	-0.000000	-0.000000	-0.000000	2.014320	0.244160	-0.549360	0.030823	0.983091	0.000610	-1.000000	-1.000000	-1.000000	-1.000000	-1.000000	-1.000000	-1.000000	146.965517	0.000000	-1.000000	-1.000000	456787.000000	1772311572.829930
-19665.405000	-25936.515000	-25582.230000	-13962.690000	0.000000	0.000000	0.000000	0.000000	2.465563	-20.563705	1.412946	0.878827	-0.000000	-0.000000	-0.000000	-0.000000	2.014320	0.244160	-0.549360	0.030823	0.983091	0.000610	-1.000000	-1.000000	-1.000000	-1.000000	-1.000000	-1.000000	-1.000000	146.965517	0.000000	-1.000000	-1.000000	456788.000000	1772311572.833749
-19638.450000	-25948.395000	-25552.665000	-13929.615000	0.000000	0.000000	0.000000	0.000000	-2.969153	-17.760089	-2.416912	-2.081919	-0.000000	-0.000000	-0.000000	-0.000000	2.014320	0.244160	-0.549360	0.030823	0.983091	0.000610	-1.000000	-1.000000	-1.000000	-1.000000	-1.000000	-1.000000	-1.000000	146.965517	0.000000	-1.000000	-1.000000	456789.000000	1772311572.833752
-19626.255000	-25993.035000	-25539.030000	-13913.640000	0.000000	0.000000	0.000000	0.000000	-3.042800	-6.994054	-1.353379	-0.486560	-0.000000	-0.000000	-0.000000	-0.000000	2.014320	0.244160	-0.549360	0.030823	0.983091	0.000610	-1.000000	-1.000000	-1.000000	-1.000000	-1.000000	-1.000000	-1.000000	146.965517	0.000000	-1.000000	-1.000000	456790.000000	1772311572.837724
-19604.880000	-26046.945000	-25521.255000	-13900.995000	0.000000	0.000000	0.000000	0.000000	2.520831	2.126229	4.478788	5.855006	-0.000000	-0.000000	-0.000000	-0.000000	2.014320	0.244160	-0.549360	0.030823	0.983091	0.000610	-1.000000	-1.000000	-1.000000	-1.000000	-1.000000	-1.000000	-1.000000	146.965517	0.000000	-1.000000	-1.000000	456791.000000	1772311572.837727
-19654.380000	-26081.280000	-25570.035000	-13946.220000	0.000000	0.000000	0.000000	0.000000	7.750302	3.450482	8.964517	10.453196	-0.000000	-0.000000	-0.000000	-0.000000	2.014320	0.244160	-0.549360	0.030823	0.983091	0.000610	-1.000000	-1.000000	-1.000000	-1.000000	-1.000000	-1.000000	-1.000000	146.965517	0.000000	-1.000000	-1.000000	456792.000000	1772311572.843269
-19670.265000	-26087.265000	-25586.460000	-13965.660000	0.000000	0.000000	0.000000	0.000000	5.431223	-0.104689	5.291672	6.309427	-0.000000	-0.000000	-0.000000	-0.000000	2.014320	0.244160	-0.549360	0.030823	0.983091	0.000610	-1.000000	-1.000000	-1.000000	-1.000000	-1.000000	-1.000000	-1.000000	146.965517	0.000000	-1.000000	-1.000000	456793.000000	1772311572.843272
-19643.490000	-26085.825000	-25556.895000	-13941.405000	0.000000	0.000000	0.000000	0.000000	-4.392897	-0.341993	-5.621483	-5.443972	-0.000000	-0.000000	-0.000000	-0.000000	2.258480	-0.198380	-0.640920	0.031250	0.983091	0.001404	-1.000000	-1.000000	-1.000000	-1.000000	-1.000000	-1.000000	-1.000000	146.965517	0.000000	-1.000000	-1.000000	456794.000000	1772311572.845810
-19635.075000	-26085.735000	-25540.245000	-13909.905000	0.000000	0.000000	0.000000	0.000000	-12.549132	7.178722	-13.801274	-14.329475	-0.000000	-0.000000	-0.000000	-0.000000	2.258480	-0.198380	-0.640920	0.031250	0.983091	0.001404	-1.000000	-1.000000	-1.000000	-1.000000	-1.000000	-1.000000	-1.000000	146.965517	0.000000	-1.000000	-1.000000	456795.000000	1772311572.845812
-19668.330000	-26069.895000	-25568.190000	-13908.465000	0.000000	0.000000	0.000000	0.000000	-12.107573	19.095035	-12.080973	-11.756508	-0.000000	-0.000000	-0.000000	-0.000000	2.258480	-0.198380	-0.640920	0.031250	0.983091	0.001404	-1.000000	-1.000000	-1.000000	-1.000000	-1.000000	-1.000000	-1.000000	146.965517	0.000000	-1.000000	-1.000000	456796.000000	1772311572.849678
-19669.005000	-26052.390000	-25568.190000	-13906.485000	0.000000	0.000000	0.000000	0.000000	-5.969420	28.341224	-4.142750	-0.544299	-0.000000	-0.000000	-0.000000	-0.000000	2.258480	-0.198380	-0.640920	0.031250	0.983091	0.001404	-1.000000	-1.000000	-1.000000	-1.000000	-1.000000	-1.000000	-1.000000	146.965517	0.000000	-1.000000	-1.000000	456797.000000	1772311572.849681
-19658.835000	-26063.730000	-25563.105000	-13923.945000	0.000000	0.000000	0.000000	0.000000	0.266535	29.195550	2.829161	9.268925	-0.000000	-0.000000	-0.000000	-0.000000	2.258480	-0.198380	-0.640920	0.031250	0.983091	0.001404	-1.000000	-1.000000	-1.000000	-1.000000	-1.000000	-1.000000	-1.000000	146.965517	0.000000	-1.000000	-1.000000	456798.000000	1772311572.853932
-19646.685000	-26087.940000	-25566.930000	-13961.655000	0.000000	0.000000	0.000000	0.000000	5.253402	18.964782	6.178507	9.906354	-0.000000	-0.000000	-0.000000	-0.000000	2.258480	-0.198380	-0.640920	0.031250	0.983091	0.001404	-1.000000	-1.000000	-1.000000	-1.000000	-1.000000	-1.000000	-1.000000	146.965517	0.000000	-1.000000	-1.000000	456799.000000	1772311572.853935
-19632.870000	-26087.850000	-25557.750000	-13964.310000	0.000000	0.000000	0.000000	0.000000	9.628998	-0.084345	6.743472	1.140096	-0.000000	-0.000000	-0.000000	-0.000000	2.258480	-0.198380	-0.640920	0.031250	0.983091	0.001404	-1.000000	-1.000000	-1.000000	-1.000000	-1.000000	-1.000000	-1.000000	146.965517	0.000000	-1.000000	-1.000000	456800.000000	1772311572.857784
-19658.475000	-26086.995000	-25569.945000	-13965.885000	0.000000	0.000000	0.000000	0.000000	12.014366	-19.597838	5.711066	-9.606820	-0.000000	-0.000000	-0.000000	-0.000000	2.258480	-0.198380	-0.640920	0.031250	0.983091	0.001404	-1.000000	-1.000000	-1.000000	-1.000000	-1.000000	-1.000000	-1.000000	146.965517	0.000000	-1.000000	-1.000000	456801.000000	1772311572.857787
-19684.170000	-26078.445000	-25590.690000	-13966.290000	0.000000	0.000000	0.000000	0.000000	9.035754	-29.959755	3.147721	-13.484480	-0.000000	-0.000000	-0.000000	-0.000000	2.258480	-0.198380	-0.640920	0.031250	0.983091	0.001404	-1.000000	-1.000000	-1.000000	-1.000000	-1.000000	-1.000000	-1.000000	146.965517	0.000000	-1.000000	-1.000000	456802.000000	1772311572.871457
-19660.860000	-26094.060000	-25577.595000	-13960.170000	0.000000	0.000000	0.000000	0.000000	0.420387	-27.584584	-0.870035	-7.713441	-0.000000	-0.000000	-0.000000	-0.000000	2.258480	-0.198380	-0.640920	0.031250	0.983091	0.001404	-1.000000	-1.000000	-1.000000	-1.000000	-1.000000	-1.000000	-1.000000	146.965517	0.000000	-1.000000	-1.000000	456803.000000	1772311572.871460
-19632.780000	-26073.045000	-25556.265000	-13937.490000	0.000000	0.000000	0.000000	0.000000	-7.345159	-16.276053	-3.610497	3.978919	-0.000000	-0.000000	-0.000000	-0.000000	1.800680	0.030520	-0.793520	0.031738	0.982236	0.000732	-1.000000	-1.000000	-1.000000	-1.000000	-1.000000	-1.000000	-1.000000	146.965517	0.000000	-1.000000	-1.000000	456804.000000	1772311572.871464
-19614.375000	-26018.955000	-25539.705000	-13932.090000	0.000000	0.000000	0.000000	0.000000	-7.193667	-1.409391	-1.694947	15.464948	-0.000000	-0.000000	-0.000000	-0.000000	1.800680	0.030520	-0.793520	0.031738	0.982236	0.000732	-1.000000	-1.000000	-1.000000	-1.000000	-1.000000	-1.000000	-1.000000	146.965517	0.000000	-1.000000	-1.000000	456805.000000	1772311572.871466
-19642.005000	-26038.665000	-25562.565000	-13961.430000	0.000000	0.000000	0.000000	0.000000	-0.437322	12.814124	3.519015	20.471538	-0.000000	-0.000000	-0.000000	-0.000000	1.800680	0.030520	-0.793520	0.031738	0.982236	0.000732	-1.000000	-1.000000	-1.000000	-1.000000	-1.000000	-1.000000	-1.000000	146.965517	0.000000	-1.000000	-1.000000	456806.000000	1772311572.871469
-19618.245000	-26061.975000	-25528.680000	-13913.370000	0.000000	0.000000	0.000000	0.000000	5.050008	19.888466	6.826776	15.916416	-0.000000	-0.000000	-0.000000	-0.000000	1.800680	0.030520	-0.793520	0.031738	0.982236	0.000732	-1.000000	-1.000000	-1.000000	-1.000000	-1.000000	-1.000000	-1.000000	146.965517	0.000000	-1.000000	-1.000000	456807.000000	1772311572.871471
-19610.370000	-26047.305000	-25521.930000	-13903.290000	0.000000	0.000000	0.000000	0.000000	4.909500	14.698261	6.014346	6.056668	-0.000000	-0.000000	-0.000000	-0.000000	1.800680	0.030520	-0.793520	0.031738	0.982236	0.000732	-1.000000	-1.000000	-1.000000	-1.000000	-1.000000	-1.000000	-1.000000	146.965517	0.000000	-1.000000	-1.000000	456808.000000	1772311572.874665
-19677.240000	-26031.420000	-25592.085000	-13956.075000	0.000000	0.000000	0.000000	0.000000	-0.004747	1.686445	1.519401	-3.298842	-0.000000	-0.000000	-0.000000	-0.000000	1.800680	0.030520	-0.793520	0.031738	0.982236	0.000732	-1.000000	-1.000000	-1.000000	-1.000000	-1.000000	-1.000000	-1.000000	146.965517	0.000000	-1.000000	-1.000000	456809.000000	1772311572.874668
-19669.365000	-26029.620000	-25576.650000	-13914.360000	0.000000	0.000000	0.000000	0.000000	-8.372183	-9.080058	-7.010791	-11.136450	-0.000000	-0.000000	-0.000000	-0.000000	1.800680	0.030520	-0.793520	0.031738	0.982236	0.000732	-1.000000	-1.000000	-1.000000	-1.000000	-1.000000	-1.000000	-1.000000	146.965517	0.000000	-1.000000	-1.000000	456810.000000	1772311572.877967
-19678.680000	-26038.800000	-25575.615000	-13898.745000	0.000000	0.000000	0.000000	0.000000	-16.149260	-12.424595	-15.792070	-15.527647	-0.000000	-0.000000	-0.000000	-0.000000	1.800680	0.030520	-0.793520	0.031738	0.982236	0.000732	-1.000000	-1.000000	-1.000000	-1.000000	-1.000000	-1.000000	-1.000000	146.965517	0.000000	-1.000000	-1.000000	456811.000000	1772311572.877970
-19666.665000	-26021.970000	-25590.105000	-13967.865000	0.000000	0.000000	0.000000	0.000000	-16.589413	-9.883864	-17.544956	-14.207400	-0.000000	-0.000000	-0.000000	-0.000000	1.800680	0.030520	-0.793520	0.031738	0.982236	0.000732	-1.000000	-1.000000	-1.000000	-1.000000	-1.000000	-1.000000	-1.000000	146.965517	0.000000	-1.000000	-1.000000	456812.000000	1772311572.881959
-19540.080000	-26047.800000	-25478.280000	-13907.430000	0.000000	0.000000	0.000000	0.000000	-5.189908	-5.098531	-8.559485	-10.009489	-0.000000	-0.000000	-0.000000	-0.000000	1.800680	0.030520	-0.793520	0.031738	0.982236	0.000732	-1.000000	-1.000000	-1.000000	-1.000000	-1.000000	-1.000000	-1.000000	146.965517	0.000000	-1.000000	-1.000000	456813.000000	1772311572.881962
-19582.065000	-26066.475000	-25499.430000	-13905.180000	0.000000	0.000000	0.000000	0.000000	16.015936	-1.691951	9.404311	-4.473808	-0.000000	-0.000000	-0.000000	-0.000000	1.281840	-0.259420	-0.610400	0.031250	0.983030	-0.000061	-1.000000	-1.000000	-1.000000	-1.000000	-1.000000	-1.000000	-1.000000	146.965517	0.000000	-1.000000	-1.000000	456814.000000	1772311572.885868
-19731.330000	-26059.860000	-25646.355000	-14021.820000	0.000000	0.000000	0.000000	0.000000	30.895535	-1.331815	23.711480	1.232559	-0.000000	-0.000000	-0.000000	-0.000000	1.281840	-0.259420	-0.610400	0.031250	0.983030	-0.000061	-1.000000	-1.000000	-1.000000	-1.000000	-1.000000	-1.000000	-1.000000	146.965517	0.000000	-1.000000	-1.000000	456815.000000	1772311572.885872
-19658.430000	-26025.570000	-25574.445000	-13955.895000	0.000000	0.000000	0.000000	0.000000	21.318801	-1.011985	18.340512	1.899114	-0.000000	-0.000000	-0.000000	-0.000000	1.281840	-0.259420	-0.610400	0.031250	0.983030	-0.000061	-1.000000	-1.000000	-1.000000	-1.000000	-1.000000	-1.000000	-1.000000	146.965517	0.000000	-1.000000	-1.000000	456816.000000	1772311572.889938
-19655.415000	-25987.500000	-25575.840000	-13961.025000	0.000000	0.000000	0.000000	0.000000	-5.065328	4.027836	-1.864832	-0.808566	-0.000000	-0.000000	-0.000000	-0.000000	1.281840	-0.259420	-0.610400	0.031250	0.983030	-0.000061	-1.000000	-1.000000	-1.000000	-1.000000	-1.000000	-1.000000	-1.000000	146.965517	0.000000	-1.000000	-1.000000	456817.000000	1772311572.889941
-19717.650000	-26039.970000	-25653.420000	-14020.425000	0.000000	0.000000	0.000000	0.000000	-24.539912	12.412528	-17.786311	-0.102445	-0.000000	-0.000000	-0.000000	-0.000000	1.281840	-0.259420	-0.610400	0.031250	0.983030	-0.000061	-1.000000	-1.000000	-1.000000	-1.000000	-1.000000	-1.000000	-1.000000	146.965517	0.000000	-1.000000	-1.000000	456818.000000	1772311572.894010
-19678.950000	-26079.030000	-25627.725000	-14000.445000	0.000000	0.000000	0.000000	0.000000	-26.818618	14.702500	-21.503831	3.192408	-0.000000	-0.000000	-0.000000	-0.000000	1.281840	-0.259420	-0.610400	0.031250	0.983030	-0.000061	-1.000000	-1.000000	-1.000000	-1.000000	-1.000000	-1.000000	-1.000000	146.965517	0.000000	-1.000000	-1.000000	456819.000000	1772311572.894013
-19638.360000	-26111.880000	-25576.110000	-13960.620000	0.000000	0.000000	0.000000	0.000000	-14.386325	4.261926	-13.850442	6.637446	-0.000000	-0.000000	-0.000000	-0.000000	1.281840	-0.259420	-0.610400	0.031250	0.983030	-0.000061	-1.000000	-1.000000	-1.000000	-1.000000	-1.000000	-1.000000	-1.000000	146.965517	0.000000	-1.000000	-1.000000	456820.000000	1772311572.899313
-19619.370000	-26118.315000	-25548.480000	-13937.715000	0.000000	0.000000	0.000000	0.000000	6.936210	-12.919423	3.987426	12.205435	-0.000000	-0.000000	-0.000000	-0.000000	1.281840	-0.259420	-0.610400	0.031250	0.983030	-0.000061	-1.000000	-1.000000	-1.000000	-1.000000	-1.000000	-1.000000	-1.000000	146.965517	0.000000	-1.000000	-1.000000	456821.000000	1772311572.899316
-19598.265000	-26133.480000	-25535.070000	-13948.290000	0.000000	0.000000	0.000000	0.000000	26.877586	-23.818678	24.744010	18.539841	-0.000000	-0.000000	-0.000000	-0.000000	1.281840	-0.259420	-0.610400	0.031250	0.983030	-0.000061	-1.000000	-1.000000	-1.000000	-1.000000	-1.000000	-1.000000	-1.000000	146.965517	0.000000	-1.000000	-1.000000	456822.000000	1772311572.901893
-19646.145000	-26144.730000	-25580.340000	-13997.655000	0.000000	0.000000	0.000000	0.000000	33.595028	-20.797071	34.925101	18.055089	-0.000000	-0.000000	-0.000000	-0.000000	1.281840	-0.259420	-0.610400	0.031250	0.983030	-0.000061	-1.000000	-1.000000	-1.000000	-1.000000	-1.000000	-1.000000	-1.000000	146.965517	0.000000	-1.000000	-1.000000	456823.000000	1772311572.901896
-19667.925000	-26153.775000	-25596.630000	-13986.270000	0.000000	0.000000	0.000000	0.000000	21.163111	-6.516362	25.220797	5.830660	-0.000000	-0.000000	-0.000000	-0.000000	1.266580	-0.930860	-0.885080	0.031311	0.981931	-0.001038	-1.000000	-1.000000	-1.000000	-1.000000	-1.000000	-1.000000	-1.000000	146.827586	0.000000	-1.000000	-1.000000	456824.000000	1772311572.905996
-19642.140000	-26160.750000	-25572.870000	-13955.895000	0.000000	0.000000	0.000000	0.000000	-3.968995	10.430307	0.525201	-11.453797	-0.000000	-0.000000	-0.000000	-0.000000	1.266580	-0.930860	-0.885080	0.031311	0.981931	-0.001038	-1.000000	-1.000000	-1.000000	-1.000000	-1.000000	-1.000000	-1.000000	146.827586	0.000000	-1.000000	-1.000000	456825.000000	1772311572.905999
-19574.955000	-26125.155000	-25514.055000	-13905.900000	0.000000	0.000000	0.000000	0.000000	-24.170423	22.775529	-21.529931	-20.147313	-0.000000	-0.000000	-0.000000	-0.000000	1.266580	-0.930860	-0.885080	0.031311	0.981931	-0.001038	-1.000000	-1.000000	-1.000000	-1.000000	-1.000000	-1.000000	-1.000000	146.827586	0.000000	-1.000000	-1.000000	456826.000000	1772311572.911250
-19554.975000	-26114.490000	-25507.845000	-13909.275000	0.000000	0.000000	0.000000	0.000000	-24.976845	28.201408	-26.039082	-14.033261	-0.000000	-0.000000	-0.000000	-0.000000	1.266580	-0.930860	-0.885080	0.031311	0.981931	-0.001038	-1.000000	-1.000000	-1.000000	-1.000000	-1.000000	-1.000000	-1.000000	146.827586	0.000000	-1.000000	-1.000000	456827.000000	1772311572.911253
-19658.340000	-26113.320000	-25620.660000	-14006.970000	0.000000	0.000000	0.000000	0.000000	-10.976794	26.615380	-16.472656	-2.378191	-0.000000	-0.000000	-0.000000	-0.000000	1.266580	-0.930860	-0.885080	0.031311	0.981931	-0.001038	-1.000000	-1.000000	-1.000000	-1.000000	-1.000000	-1.000000	-1.000000	146.827586	0.000000	-1.000000	-1.000000	456828.000000	1772311572.914006
-19666.215000	-26065.575000	-25620.120000	-13975.290000	0.000000	0.000000	0.000000	0.000000	-1.050658	18.445642	-9.399377	0.350554	-0.000000	-0.000000	-0.000000	-0.000000	1.266580	-0.930860	-0.885080	0.031311	0.981931	-0.001038	-1.000000	-1.000000	-1.000000	-1.000000	-1.000000	-1.000000	-1.000000	146.827586	0.000000	-1.000000	-1.000000	456829.000000	1772311572.914008
-19708.155000	-26075.160000	-25659.855000	-13966.560000	0.000000	0.000000	0.000000	0.000000	-4.971758	6.479151	-12.086144	-6.407580	-0.000000	-0.000000	-0.000000	-0.000000	1.266580	-0.930860	-0.885080	0.031311	0.981931	-0.001038	-1.000000	-1.000000	-1.000000	-1.000000	-1.000000	-1.000000	-1.000000	146.827586	0.000000	-1.000000	-1.000000	456830.000000	1772311572.917966
-19716.885000	-26108.280000	-25683.615000	-14013.315000	0.000000	0.000000	0.000000	0.000000	-14.675309	-6.841670	-16.667356	-11.604126	-0.000000	-0.000000	-0.000000	-0.000000	1.266580	-0.930860	-0.885080	0.031311	0.981931	-0.001038	-1.000000	-1.000000	-1.000000	-1.000000	-1.000000	-1.000000	-1.000000	146.827586	0.000000	-1.000000	-1.000000	456831.000000	1772311572.917970
-19674.180000	-26110.935000	-25624.710000	-13968.495000	0.000000	0.000000	0.000000	0.000000	-16.515053	-20.771056	-12.739018	-9.214908	-0.000000	-0.000000	-0.000000	-0.000000	1.266580	-0.930860	-0.885080	0.031311	0.981931	-0.001038	-1.000000	-1.000000	-1.000000	-1.000000	-1.000000	-1.000000	-1.000000	146.827586	0.000000	-1.000000	-1.000000	456832.000000	1772311572.921923
-19656.990000	-26121.015000	-25572.240000	-13922.505000	0.000000	0.000000	0.000000	0.000000	-3.342791	-31.607999	4.837286	0.829939	-0.000000	-0.000000	-0.000000	-0.000000	1.266580	-0.930860	-0.885080	0.031311	0.981931	-0.001038	-1.000000	-1.000000	-1.000000	-1.000000	-1.000000	-1.000000	-1.000000	146.827586	0.000000	-1.000000	-1.000000	456833.000000	1772311572.921926
-19658.790000	-26154.540000	-25562.970000	-13941.810000	0.000000	0.000000	0.000000	0.000000	19.206338	-33.999164	30.873049	15.390486	-0.000000	-0.000000	-0.000000	-0.000000	-2.456860	0.106820	-0.412020	0.031128	0.984250	-0.004639	-1.000000	-1.000000	-1.000000	-1.000000	-1.000000	-1.000000	-1.000000	146.827586	0.000000	-1.000000	-1.000000	456834.000000	1772311572.926109
-19682.730000	-26189.820000	-25588.530000	-13973.940000	0.000000	0.000000	0.000000	0.000000	35.863920	-27.304293	48.937413	24.750414	-0.000000	-0.000000	-0.000000	-0.000000	-2.456860	0.106820	-0.412020	0.031128	0.984250	-0.004639	-1.000000	-1.000000	-1.000000	-1.000000	-1.000000	-1.000000	-1.000000	146.827586	0.000000	-1.000000	-1.000000	456835.000000	1772311572.926112
-19687.230000	-26194.680000	-25586.730000	-13992.345000	0.000000	0.000000	0.000000	0.000000	34.813785	-15.069813	44.256869	19.516573	-0.000000	-0.000000	-0.000000	-0.000000	-2.456860	0.106820	-0.412020	0.031128	0.984250	-0.004639	-1.000000	-1.000000	-1.000000	-1.000000	-1.000000	-1.000000	-1.000000	146.827586	0.000000	-1.000000	-1.000000	456836.000000	1772311572.930004
-19646.235000	-26164.215000	-25548.570000	-13955.445000	0.000000	0.000000	0.000000	0.000000	18.166322	0.347090	18.756005	2.671843	-0.000000	-0.000000	-0.000000	-0.000000	-2.456860	0.106820	-0.412020	0.031128	0.984250	-0.004639	-1.000000	-1.000000	-1.000000	-1.000000	-1.000000	-1.000000	-1.000000	146.827586	0.000000	-1.000000	-1.000000	456837.000000	1772311572.930006
-19629.495000	-26147.385000	-25540.155000	-13941.270000	0.000000	0.000000	0.000000	0.000000	-0.969129	18.013250	-10.873532	-12.183299	-0.000000	-0.000000	-0.000000	-0.000000	-2.456860	0.106820	-0.412020	0.031128	0.984250	-0.004639	-1.000000	-1.000000	-1.000000	-1.000000	-1.000000	-1.000000	-1.000000	146.827586	0.000000	-1.000000	-1.000000	456838.000000	1772311572.933939
-19626.165000	-26141.265000	-25534.665000	-13931.820000	0.000000	0.000000	0.000000	0.000000	-11.960143	33.722040	-29.490170	-15.058731	-0.000000	-0.000000	-0.000000	-0.000000	-2.456860	0.106820	-0.412020	0.031128	0.984250	-0.004639	-1.000000	-1.000000	-1.000000	-1.000000	-1.000000	-1.000000	-1.000000	146.827586	0.000000	-1.000000	-1.000000	456839.000000	1772311572.933942
-19664.460000	-26154.675000	-25573.365000	-13958.280000	0.000000	0.000000	0.000000	0.000000	-15.111108	39.692663	-34.157601	-8.358979	-0.000000	-0.000000	-0.000000	-0.000000	-2.456860	0.106820	-0.412020	0.031128	0.984250	-0.004639	-1.000000	-1.000000	-1.000000	-1.000000	-1.000000	-1.000000	-1.000000	146.827586	0.000000	-1.000000	-1.000000	456840.000000	1772311572.938015
-19687.905000	-26141.760000	-25595.415000	-13957.200000	0.000000	0.000000	0.000000	0.000000	-16.949299	31.274329	-30.846476	-1.371187	-0.000000	-0.000000	-0.000000	-0.000000	-2.456860	0.106820	-0.412020	0.031128	0.984250	-0.004639	-1.000000	-1.000000	-1.000000	-1.000000	-1.000000	-1.000000	-1.000000	146.827586	0.000000	-1.000000	-1.000000	456841.000000	1772311572.938018
-19661.130000	-26127.630000	-25568.190000	-13937.130000	0.000000	0.000000	0.000000	0.000000	-19.696189	12.542437	-24.307306	0.818151	-0.000000	-0.000000	-0.000000	-0.000000	-2.456860	0.106820	-0.412020	0.031128	0.984250	-0.004639	-1.000000	-1.000000	-1.000000	-1.000000	-1.000000	-1.000000	-1.000000	146.827586	0.000000	-1.000000	-1.000000	456842.000000	1772311572.942059
-19643.040000	-26101.620000	-25554.420000	-13931.460000	0.000000	0.000000	0.000000	0.000000	-18.029740	-6.420126	-13.350869	0.513856	-0.000000	-0.000000	-0.000000	-0.000000	-2.456860	0.106820	-0.412020	0.031128	0.984250	-0.004639	-1.000000	-1.000000	-1.000000	-1.000000	-1.000000	-1.000000	-1.000000	146.827586	0.000000	-1.000000	-1.000000	456843.000000	1772311572.942062
-19617.705000	-26114.310000	-25537.995000	-13912.830000	0.000000	0.000000	0.000000	0.000000	-7.400846	-17.872554	2.909727	1.338366	-0.000000	-0.000000	-0.000000	-0.000000	2.578940	-0.213640	0.701960	0.029663	0.984372	0.004456	-1.000000	-1.000000	-1.000000	-1.000000	-1.000000	-1.000000	-1.000000	146.827586	0.000000	-1.000000	-1.000000	456844.000000	1772311572.947616
-19618.380000	-26133.120000	-25533.765000	-13907.610000	0.000000	0.000000	0.000000	0.000000	8.448400	-21.604404	19.368819	3.663650	-0.000000	-0.000000	-0.000000	-0.000000	2.578940	-0.213640	0.701960	0.029663	0.984372	0.004456	-1.000000	-1.000000	-1.000000	-1.000000	-1.000000	-1.000000	-1.000000	146.827586	0.000000	-1.000000	-1.000000	456845.000000	1772311572.947620
-19624.005000	-26144.595000	-25531.245000	-13908.240000	0.000000	0.000000	0.000000	0.000000	20.059785	-21.726957	28.303630	5.268881	-0.000000	-0.000000	-0.000000	-0.000000	2.578940	-0.213640	0.701960	0.029663	0.984372	0.004456	-1.000000	-1.000000	-1.000000	-1.000000	-1.000000	-1.000000	-1.000000	146.827586	0.000000	-1.000000	-1.000000	456846.000000	1772311572.950084
-19702.665000	-26158.860000	-25597.935000	-13970.430000	0.000000	0.000000	0.000000	0.000000	19.052880	-20.320785	24.470752	2.734791	-0.000000	-0.000000	-0.000000	-0.000000	2.578940	-0.213640	0.701960	0.029663	0.984372	0.004456	-1.000000	-1.000000	-1.000000	-1.000000	-1.000000	-1.000000	-1.000000	146.827586	0.000000	-1.000000	-1.000000	456847.000000	1772311572.950086
-19727.370000	-26174.160000	-25609.905000	-13940.460000	0.000000	0.000000	0.000000	0.000000	3.772826	-16.514231	8.008956	-5.127218	-0.000000	-0.000000	-0.000000	-0.000000	2.578940	-0.213640	0.701960	0.029663	0.984372	0.004456	-1.000000	-1.000000	-1.000000	-1.000000	-1.000000	-1.000000	-1.000000	146.827586	0.000000	-1.000000	-1.000000	456848.000000	1772311572.954012
-19710.405000	-26164.080000	-25604.145000	-13876.605000	0.000000	0.000000	0.000000	0.000000	-16.321950	-9.174089	-12.465728	-11.637031	-0.000000	-0.000000	-0.000000	-0.000000	2.578940	-0.213640	0.701960	0.029663	0.984372	0.004456	-1.000000	-1.000000	-1.000000	-1.000000	-1.000000	-1.000000	-1.000000	146.827586	0.000000	-1.000000	-1.000000	456849.000000	1772311572.954016
-19727.145000	-26173.350000	-25646.220000	-13880.295000	0.000000	0.000000	0.000000	0.000000	-25.830939	1.381215	-24.412861	-7.647029	-0.000000	-0.000000	-0.000000	-0.000000	2.578940	-0.213640	0.701960	0.029663	0.984372	0.004456	-1.000000	-1.000000	-1.000000	-1.000000	-1.000000	-1.000000	-1.000000	146.827586	0.000000	-1.000000	-1.000000	456850.000000	1772311572.960221
-19689.120000	-26195.265000	-25657.380000	-13933.395000	0.000000	0.000000	0.000000	0.000000	-17.330699	11.908830	-22.799121	3.797335	-0.000000	-0.000000	-0.000000	-0.000000	2.578940	-0.213640	0.701960	0.029663	0.984372	0.004456	-1.000000	-1.000000	-1.000000	-1.000000	-1.000000	-1.000000	-1.000000	146.827586	0.000000	-1.000000	-1.000000	456851.000000	1772311572.960224
-19678.455000	-26257.140000	-25685.820000	-14042.655000	0.000000	0.000000	0.000000	0.000000	3.894359	16.536757	-11.873269	7.736603	-0.000000	-0.000000	-0.000000	-0.000000	2.578940	-0.213640	0.701960	0.029663	0.984372	0.004456	-1.000000	-1.000000	-1.000000	-1.000000	-1.000000	-1.000000	-1.000000	146.827586	0.000000	-1.000000	-1.000000	456852.000000	1772311572.962189
-19650.285000	-26296.335000	-25614.765000	-13983.525000	0.000000	0.000000	0.000000	0.000000	25.854271	11.289205	2.956455	-3.102412	-0.000000	-0.000000	-0.000000	-0.000000	2.578940	-0.213640	0.701960	0.029663	0.984372	0.004456	-1.000000	-1.000000	-1.000000	-1.000000	-1.000000	-1.000000	-1.000000	146.827586	0.000000	-1.000000	-1.000000	456853.000000	1772311572.962193
-19612.575000	-26313.120000	-25516.530000	-13886.145000	0.000000	0.000000	0.000000	0.000000	37.701350	-0.431502	20.809135	-14.365142	-0.000000	-0.000000	-0.000000	-0.000000	6.332900	-0.732480	0.885080	0.030090	0.982114	0.008362	-1.000000	-1.000000	-1.000000	-1.000000	-1.000000	-1.000000	-1.000000	146.827586	0.000000	-1.000000	-1.000000	456854.000000	1772311572.968021
-19733.760000	-26336.520000	-25581.690000	-13950.405000	0.000000	0.000000	0.000000	0.000000	32.832945	-9.307058	38.515025	-8.107214	-0.000000	-0.000000	-0.000000	-0.000000	6.332900	-0.732480	0.885080	0.030090	0.982114	0.008362	-1.000000	-1.000000	-1.000000	-1.000000	-1.000000	-1.000000	-1.000000	146.827586	0.000000	-1.000000	-1.000000	456855.000000	1772311572.968024
-19722.015000	-26328.915000	-25550.595000	-13938.300000	0.000000	0.000000	0.000000	0.000000	9.457746	-8.328991	43.410429	10.598648	-0.000000	-0.000000	-0.000000	-0.000000	6.332900	-0.732480	0.885080	0.030090	0.982114	0.008362	-1.000000	-1.000000	-1.000000	-1.000000	-1.000000	-1.000000	-1.000000	146.827586	0.000000	-1.000000	-1.000000	456856.000000	1772311572.970067
-19670.580000	-26322.705000	-25498.530000	-13898.115000	0.000000	0.000000	0.000000	0.000000	-21.086978	2.397715	27.980090	23.894068	-0.000000	-0.000000	-0.000000	-0.000000	6.332900	-0.732480	0.885080	0.030090	0.982114	0.008362	-1.000000	-1.000000	-1.000000	-1.000000	-1.000000	-1.000000	-1.000000	146.827586	0.000000	-1.000000	-1.000000	456857.000000	1772311572.970070
-19660.995000	-26290.755000	-25521.795000	-13954.770000	0.000000	0.000000	0.000000	0.000000	-37.315650	17.288415	1.359679	23.639172	-0.000000	-0.000000	-0.000000	-0.000000	6.332900	-0.732480	0.885080	0.030090	0.982114	0.008362	-1.000000	-1.000000	-1.000000	-1.000000	-1.000000	-1.000000	-1.000000	146.827586	0.000000	-1.000000	-1.000000	456858.000000	1772311572.974136
-19666.530000	-26262.720000	-25554.690000	-14012.145000	0.000000	0.000000	0.000000	0.000000	-29.994871	29.202477	-24.161438	9.981878	-0.000000	-0.000000	-0.000000	-0.000000	6.332900	-0.732480	0.885080	0.030090	0.982114	0.008362	-1.000000	-1.000000	-1.000000	-1.000000	-1.000000	-1.000000	-1.000000	146.827586	0.000000	-1.000000	-1.000000	456859.000000	1772311572.974139
-19708.920000	-26272.395000	-25581.330000	-13998.330000	0.000000	0.000000	0.000000	0.000000	-10.423797	32.011241	-42.775166	-11.845235	-0.000000	-0.000000	-0.000000	-0.000000	6.332900	-0.732480	0.885080	0.030090	0.982114	0.008362	-1.000000	-1.000000	-1.000000	-1.000000	-1.000000	-1.000000	-1.000000	146.827586	0.000000	-1.000000	-1.000000	456860.000000	1772311572.978258
-19716.255000	-26275.680000	-25589.340000	-13988.790000	0.000000	0.000000	0.000000	0.000000	4.488573	22.064051	-50.464484	-28.543670	-0.000000	-0.000000	-0.000000	-0.000000	6.332900	-0.732480	0.885080	0.030090	0.982114	0.008362	-1.000000	-1.000000	-1.000000	-1.000000	-1.000000	-1.000000	-1.000000	146.827586	0.000000	-1.000000	-1.000000	456861.000000	1772311572.978260
-19729.665000	-26246.295000	-25593.345000	-13978.980000	0.000000	0.000000	0.000000	0.000000	7.817070	2.089149	-43.490825	-27.975389	-0.000000	-0.000000	-0.000000	-0.000000	6.332900	-0.732480	0.885080	0.030090	0.982114	0.008362	-1.000000	-1.000000	-1.000000	-1.000000	-1.000000	-1.000000	-1.000000	146.827586	0.000000	-1.000000	-1.000000	456862.000000	1772311572.982119
-19752.660000	-26205.390000	-25608.195000	-13988.655000	0.000000	0.000000	0.000000	0.000000	3.752713	-17.495589	-22.958897	-11.271963	-0.000000	-0.000000	-0.000000	-0.000000	6.332900	-0.732480	0.885080	0.030090	0.982114	0.008362	-1.000000	-1.000000	-1.000000	-1.000000	-1.000000	-1.000000	-1.000000	146.827586	0.000000	-1.000000	-1.000000	456863.000000	1772311572.982121
-19702.125000	-26199.630000	-25553.790000	-13925.430000	0.000000	0.000000	0.000000	0.000000	0.163742	-26.645750	4.345564	10.477192	-0.000000	-0.000000	-0.000000	-0.000000	4.440660	0.457800	1.098720	0.036377	0.980649	0.001648	-1.000000	-1.000000	-1.000000	-1.000000	-1.000000	-1.000000	-1.000000	146.827586	0.000000	-1.000000	-1.000000	456864.000000	1772311572.986185
-19703.070000	-26207.100000	-25555.230000	-13918.365000	0.000000	0.000000	0.000000	0.000000	3.001789	-24.782847	30.098079	27.258748	-0.000000	-0.000000	-0.000000	-0.000000	4.440660	0.457800	1.098720	0.036377	0.980649	0.001648	-1.000000	-1.000000	-1.000000	-1.000000	-1.000000	-1.000000	-1.000000	146.827586	0.000000	-1.000000	-1.000000	456865.000000	1772311572.986188
-19725.795000	-26197.290000	-25586.865000	-13935.420000	0.000000	0.000000	0.000000	0.000000	10.766738	-18.570685	45.185151	32.579826	-0.000000	-0.000000	-0.000000	-0.000000	4.440660	0.457800	1.098720	0.036377	0.980649	0.001648	-1.000000	-1.000000	-1.000000	-1.000000	-1.000000	-1.000000	-1.000000	146.827586	0.000000	-1.000000	-1.000000	456866.000000	1772311572.990316
-19718.865000	-26221.860000	-25599.555000	-13959.855000	0.000000	0.000000	0.000000	0.000000	15.256201	-13.481137	41.850867	22.519175	-0.000000	-0.000000	-0.000000	-0.000000	4.440660	0.457800	1.098720	0.036377	0.980649	0.001648	-1.000000	-1.000000	-1.000000	-1.000000	-1.000000	-1.000000	-1.000000	146.827586	0.000000	-1.000000	-1.000000	456867.000000	1772311572.990319
-19720.890000	-26218.080000	-25606.845000	-13999.950000	0.000000	0.000000	0.000000	0.000000	11.730794	-10.716140	21.777144	-0.255328	-0.000000	-0.000000	-0.000000	-0.000000	4.440660	0.457800	1.098720	0.036377	0.980649	0.001648	-1.000000	-1.000000	-1.000000	-1.000000	-1.000000	-1.000000	-1.000000	146.827586	0.000000	-1.000000	-1.000000	456868.000000	1772311572.994316
-19666.845000	-26224.380000	-25551.540000	-13964.715000	0.000000	0.000000	0.000000	0.000000	3.961972	-8.391770	-2.112278	-24.476080	-0.000000	-0.000000	-0.000000	-0.000000	4.440660	0.457800	1.098720	0.036377	0.980649	0.001648	-1.000000	-1.000000	-1.000000	-1.000000	-1.000000	-1.000000	-1.000000	146.827586	0.000000	-1.000000	-1.000000	456869.000000	1772311572.994319
-19676.070000	-26230.410000	-25553.520000	-13954.770000	0.000000	0.000000	0.000000	0.000000	-1.354647	-4.087485	-15.520147	-35.642766	-0.000000	-0.000000	-0.000000	-0.000000	4.440660	0.457800	1.098720	0.036377	0.980649	0.001648	-1.000000	-1.000000	-1.000000	-1.000000	-1.000000	-1.000000	-1.000000	146.827586	0.000000	-1.000000	-1.000000	456870.000000	1772311572.998206
-19755.945000	-26273.295000	-25615.890000	-13980.015000	0.000000	0.000000	0.000000	0.000000	-4.192686	1.626655	-16.056297	-27.820481	-0.000000	-0.000000	-0.000000	-0.000000	4.440660	0.457800	1.098720	0.036377	0.980649	0.001648	-1.000000	-1.000000	-1.000000	-1.000000	-1.000000	-1.000000	-1.000000	146.827586	0.000000	-1.000000	-1.000000	456871.000000	1772311572.998209
-19706.220000	-26317.215000	-25547.625000	-13934.745000	0.000000	0.000000	0.000000	0.000000	-9.696784	4.945212	-11.958452	-8.385149	-0.000000	-0.000000	-0.000000	-0.000000	4.440660	0.457800	1.098720	0.036377	0.980649	0.001648	-1.000000	-1.000000	-1.000000	-1.000000	-1.000000	-1.000000	-1.000000	146.827586	0.000000	-1.000000	-1.000000	456872.000000	1772311573.002486
-19703.700000	-26318.925000	-25548.120000	-13954.230000	0.000000	0.000000	0.000000	0.000000	-15.621489	3.969555	-7.367022	11.179875	-0.000000	-0.000000	-0.000000	-0.000000	4.440660	0.457800	1.098720	0.036377	0.980649	0.001648	-1.000000	-1.000000	-1.000000	-1.000000	-1.000000	-1.000000	-1.000000	146.827586	0.000000	-1.000000	-1.000000	456873.000000	1772311573.002489
-19712.205000	-26307.945000	-25576.920000	-13999.860000	0.000000	0.000000	0.000000	0.000000	-14.674628	2.790559	-1.946047	21.541198	-0.000000	-0.000000	-0.000000	-0.000000	9.644320	0.427280	2.334780	0.034058	0.977353	0.002747	-1.000000	-1.000000	-1.000000	-1.000000	-1.000000	-1.000000	-1.000000	146.827586	0.000000	-1.000000	-1.000000	456874.000000	1772311573.006259
-19714.185000	-26326.890000	-25577.505000	-14004.855000	0.000000	0.000000	0.000000	0.000000	-6.763951	6.408998	1.107752	17.703313	-0.000000	-0.000000	-0.000000	-0.000000	9.644320	0.427280	2.334780	0.034058	0.977353	0.002747	-1.000000	-1.000000	-1.000000	-1.000000	-1.000000	-1.000000	-1.000000	146.827586	0.000000	-1.000000	-1.000000	456875.000000	1772311573.006261
-19694.160000	-26326.350000	-25554.735000	-13985.640000	0.000000	0.000000	0.000000	0.000000	2.686075	13.461433	0.053094	4.631219	-0.000000	-0.000000	-0.000000	-0.000000	9.644320	0.427280	2.334780	0.034058	0.977353	0.002747	-1.000000	-1.000000	-1.000000	-1.000000	-1.000000	-1.000000	-1.000000	146.827586	0.000000	-1.000000	-1.000000	456876.000000	1772311573.010290
-19682.325000	-26362.125000	-25544.250000	-13958.370000	0.000000	0.000000	0.000000	0.000000	10.038314	17.813915	-1.218404	-5.368063	-0.000000	-0.000000	-0.000000	-0.000000	9.644320	0.427280	2.334780	0.034058	0.977353	0.002747	-1.000000	-1.000000	-1.000000	-1.000000	-1.000000	-1.000000	-1.000000	146.827586	0.000000	-1.000000	-1.000000	456877.000000	1772311573.010292
-19712.700000	-26411.445000	-25559.460000	-13941.765000	0.000000	0.000000	0.000000	0.000000	13.197320	14.193605	0.209120	-4.545046	-0.000000	-0.000000	-0.000000	-0.000000	9.644320	0.427280	2.334780	0.034058	0.977353	0.002747	-1.000000	-1.000000	-1.000000	-1.000000	-1.000000	-1.000000	-1.000000	146.827586	0.000000	-1.000000	-1.000000	456878.000000	1772311573.014209
-19727.190000	-26455.185000	-25561.890000	-13932.270000	0.000000	0.000000	0.000000	0.000000	9.776177	1.939573	2.166995	4.123589	-0.000000	-0.000000	-0.000000	-0.000000	9.644320	0.427280	2.334780	0.034058	0.977353	0.002747	-1.000000	-1.000000	-1.000000	-1.000000	-1.000000	-1.000000	-1.000000	146.827586	0.000000	-1.000000	-1.000000	456879.000000	1772311573.014212
-19742.130000	-26448.255000	-25578.990000	-13949.145000	0.000000	0.000000	0.000000	0.000000	0.308137	-12.557967	1.516998	11.273760	-0.000000	-0.000000	-0.000000	-0.000000	9.644320	0.427280	2.334780	0.034058	0.977353	0.002747	-1.000000	-1.000000	-1.000000	-1.000000	-1.000000	-1.000000	-1.000000	146.827586	0.000000	-1.000000	-1.000000	456880.000000	1772311573.020193
-19763.730000	-26459.055000	-25611.345000	-13977.405000	0.000000	0.000000	0.000000	0.000000	-10.030112	-19.013446	-2.280261	9.147667	-0.000000	-0.000000	-0.000000	-0.000000	9.644320	0.427280	2.334780	0.034058	0.977353	0.002747	-1.000000	-1.000000	-1.000000	-1.000000	-1.000000	-1.000000	-1.000000	146.827586	0.000000	-1.000000	-1.000000	456881.000000	1772311573.020196
-19762.020000	-26459.100000	-25619.805000	-13981.140000	0.000000	0.000000	0.000000	0.000000	-15.310382	-12.482268	-7.405084	-2.494516	-0.000000	-0.000000	-0.000000	-0.000000	9.644320	0.427280	2.334780	0.034058	0.977353	0.002747	-1.000000	-1.000000	-1.000000	-1.000000	-1.000000	-1.000000	-1.000000	146.827586	0.000000	-1.000000	-1.000000	456882.000000	1772311573.022580
-19779.390000	-26454.825000	-25628.490000	-13993.245000	0.000000	0.000000	0.000000	0.000000	-12.738049	2.435862	-10.198927	-15.993727	-0.000000	-0.000000	-0.000000	-0.000000	9.644320	0.427280	2.334780	0.034058	0.977353	0.002747	-1.000000	-1.000000	-1.000000	-1.000000	-1.000000	-1.000000	-1.000000	146.827586	0.000000	-1.000000	-1.000000	456883.000000	1772311573.022582
-19698.480000	-26442.270000	-25541.910000	-13913.775000	0.000000	0.000000	0.000000	0.000000	-2.589068	16.881224	-5.853735	-20.864668	-0.000000	-0.000000	-0.000000	-0.000000	8.133580	1.709120	4.120200	0.033325	0.987851	-0.003662	-1.000000	-1.000000	-1.000000	-1.000000	-1.000000	-1.000000	-1.000000	146.827586	0.000000	-1.000000	-1.000000	456884.000000	1772311573.030258
-19606.905000	-26449.740000	-25453.395000	-13839.030000	0.000000	0.000000	0.000000	0.000000	14.484834	23.842127	9.350342	-9.908156	-0.000000	-0.000000	-0.000000	-0.000000	8.133580	1.709120	4.120200	0.033325	0.987851	-0.003662	-1.000000	-1.000000	-1.000000	-1.000000	-1.000000	-1.000000	-1.000000	146.827586	0.000000	-1.000000	-1.000000	456885.000000	1772311573.030261
-19704.240000	-26464.815000	-25550.280000	-13941.405000	0.000000	0.000000	0.000000	0.000000	32.200988	20.175274	29.180314	11.292613	-0.000000	-0.000000	-0.000000	-0.000000	8.133580	1.709120	4.120200	0.033325	0.987851	-0.003662	-1.000000	-1.000000	-1.000000	-1.000000	-1.000000	-1.000000	-1.000000	146.827586	0.000000	-1.000000	-1.000000	456886.000000	1772311573.030265
-19780.920000	-26503.920000	-25626.780000	-14010.930000	0.000000	0.000000	0.000000	0.000000	33.251867	6.798983	33.605876	21.942431	-0.000000	-0.000000	-0.000000	-0.000000	8.133580	1.709120	4.120200	0.033325	0.987851	-0.003662	-1.000000	-1.000000	-1.000000	-1.000000	-1.000000	-1.000000	-1.000000	146.827586	0.000000	-1.000000	-1.000000	456887.000000	1772311573.030267
-19786.770000	-26533.035000	-25621.605000	-13992.705000	0.000000	0.000000	0.000000	0.000000	7.681200	-11.468915	10.547550	8.740420	-0.000000	-0.000000	-0.000000	-0.000000	8.133580	1.709120	4.120200	0.033325	0.987851	-0.003662	-1.000000	-1.000000	-1.000000	-1.000000	-1.000000	-1.000000	-1.000000	146.827586	0.000000	-1.000000	-1.000000	456888.000000	1772311573.034282
-19775.340000	-26566.110000	-25607.205000	-13970.835000	0.000000	0.000000	0.000000	0.000000	-28.276567	-27.102305	-24.181978	-14.890773	-0.000000	-0.000000	-0.000000	-0.000000	8.133580	1.709120	4.120200	0.033325	0.987851	-0.003662	-1.000000	-1.000000	-1.000000	-1.000000	-1.000000	-1.000000	-1.000000	146.827586	0.000000	-1.000000	-1.000000	456889.000000	1772311573.034285
-19675.395000	-26546.040000	-25510.500000	-13886.505000	0.000000	0.000000	0.000000	0.000000	-45.690989	-32.345906	-41.627453	-24.247178	-0.000000	-0.000000	-0.000000	-0.000000	8.133580	1.709120	4.120200	0.033325	0.987851	-0.003662	-1.000000	-1.000000	-1.000000	-1.000000	-1.000000	-1.000000	-1.000000	146.827586	0.000000	-1.000000	-1.000000	456890.000000	1772311573.038277
-19671.345000	-26526.690000	-25522.830000	-13921.740000	0.000000	0.000000	0.000000	0.000000	-30.249893	-22.598535	-28.089582	-10.175499	-0.000000	-0.000000	-0.000000	-0.000000	8.133580	1.709120	4.120200	0.033325	0.987851	-0.003662	-1.000000	-1.000000	-1.000000	-1.000000	-1.000000	-1.000000	-1.000000	146.827586	0.000000	-1.000000	-1.000000	456891.000000	1772311573.038280
-19735.515000	-26512.605000	-25593.570000	-13984.830000	0.000000	0.000000	0.000000	0.000000	3.900279	-0.658840	2.024621	12.170051	-0.000000	-0.000000	-0.000000	-0.000000	8.133580	1.709120	4.120200	0.033325	0.987851	-0.003662	-1.000000	-1.000000	-1.000000	-1.000000	-1.000000	-1.000000	-1.000000	146.827586	0.000000	-1.000000	-1.000000	456892.000000	1772311573.045838
-19735.740000	-26484.795000	-25596.945000	-13962.195000	0.000000	0.000000	0.000000	0.000000	27.639567	22.972130	21.316981	21.085693	-0.000000	-0.000000	-0.000000	-0.000000	8.133580	1.709120	4.120200	0.033325	0.987851	-0.003662	-1.000000	-1.000000	-1.000000	-1.000000	-1.000000	-1.000000	-1.000000	146.827586	0.000000	-1.000000	-1.000000	456893.000000	1772311573.045841
-19728.855000	-26483.490000	-25590.105000	-13945.725000	0.000000	0.000000	0.000000	0.000000	26.615465	36.661831	18.449863	12.949333	-0.000000	-0.000000	-0.000000	-0.000000	5.051060	3.616620	12.543720	0.040100	1.006894	-0.024048	-1.000000	-1.000000	-1.000000	-1.000000	-1.000000	-1.000000	-1.000000	146.827586	0.000000	-1.000000	-1.000000	456894.000000	1772311573.047250
-19734.660000	-26507.520000	-25615.890000	-13982.490000	0.000000	0.000000	0.000000	0.000000	9.869929	33.737982	3.738177	-0.164791	-0.000000	-0.000000	-0.000000	-0.000000	5.051060	3.616620	12.543720	0.040100	1.006894	-0.024048	-1.000000	-1.000000	-1.000000	-1.000000	-1.000000	-1.000000	-1.000000	146.827586	0.000000	-1.000000	-1.000000	456895.000000	1772311573.047253
-19729.305000	-26503.020000	-25649.730000	-14035.095000	0.000000	0.000000	0.000000	0.000000	-6.677338	15.296148	-9.308602	-10.041678	-0.000000	-0.000000	-0.000000	-0.000000	5.051060	3.616620	12.543720	0.040100	1.006894	-0.024048	-1.000000	-1.000000	-1.000000	-1.000000	-1.000000	-1.000000	-1.000000	146.827586	0.000000	-1.000000	-1.000000	456896.000000	1772311573.052092
-19686.375000	-26486.325000	-25635.285000	-13961.205000	0.000000	0.000000	0.000000	0.000000	-13.112360	-8.799411	-14.542097	-14.734754	-0.000000	-0.000000	-0.000000	-0.000000	5.051060	3.616620	12.543720	0.040100	1.006894	-0.024048	-1.000000	-1.000000	-1.000000	-1.000000	-1.000000	-1.000000	-1.000000	146.827586	0.000000	-1.000000	-1.000000	456897.000000	1772311573.052095
-19728.270000	-26462.835000	-25683.030000	-13942.395000	0.000000	0.000000	0.000000	0.000000	-8.542530	-25.213646	-11.316269	-10.217656	-0.000000	-0.000000	-0.000000	-0.000000	5.051060	3.616620	12.543720	0.040100	1.006894	-0.024048	-1.000000	-1.000000	-1.000000	-1.000000	-1.000000	-1.000000	-1.000000	146.827586	0.000000	-1.000000	-1.000000	456898.000000	1772311573.054362
-19772.910000	-26435.295000	-25705.800000	-13971.915000	0.000000	0.000000	0.000000	0.000000	-1.336055	-26.502141	-3.531882	3.498377	-0.000000	-0.000000	-0.000000	-0.000000	5.051060	3.616620	12.543720	0.040100	1.006894	-0.024048	-1.000000	-1.000000	-1.000000	-1.000000	-1.000000	-1.000000	-1.000000	146.827586	0.000000	-1.000000	-1.000000	456899.000000	1772311573.054365
-19753.920000	-26433.270000	-25648.065000	-13966.110000	0.000000	0.000000	0.000000	0.000000	-0.307379	-15.438615	4.622655	15.937483	-0.000000	-0.000000	-0.000000	-0.000000	5.051060	3.616620	12.543720	0.040100	1.006894	-0.024048	-1.000000	-1.000000	-1.000000	-1.000000	-1.000000	-1.000000	-1.000000	146.827586	0.000000	-1.000000	-1.000000	456900.000000	1772311573.058418
-19757.610000	-26451.585000	-25596.180000	-13948.380000	0.000000	0.000000	0.000000	0.000000	-3.832585	-2.066529	14.457066	17.928109	-0.000000	-0.000000	-0.000000	-0.000000	5.051060	3.616620	12.543720	0.040100	1.006894	-0.024048	-1.000000	-1.000000	-1.000000	-1.000000	-1.000000	-1.000000	-1.000000	146.827586	0.000000	-1.000000	-1.000000	456901.000000	1772311573.058421
-19799.190000	-26463.960000	-25601.400000	-13970.160000	0.000000	0.000000	0.000000	0.000000	-5.387782	3.987621	26.263125	10.461093	-0.000000	-0.000000	-0.000000	-0.000000	5.051060	3.616620	12.543720	0.040100	1.006894	-0.024048	-1.000000	-1.000000	-1.000000	-1.000000	-1.000000	-1.000000	-1.000000	146.827586	0.000000	-1.000000	-1.000000	456902.000000	1772311573.063734
-19809.540000	-26473.410000	-25594.065000	-14004.315000	0.000000	0.000000	0.000000	0.000000	-3.879207	0.706332	32.089720	-1.525670	-0.000000	-0.000000	-0.000000	-0.000000	5.051060	3.616620	12.543720	0.040100	1.006894	-0.024048	-1.000000	-1.000000	-1.000000	-1.000000	-1.000000	-1.000000	-1.000000	146.827586	0.000000	-1.000000	-1.000000	456903.000000	1772311573.063737
-19772.055000	-26506.935000	-25557.345000	-14002.965000	0.000000	0.000000	0.000000	0.000000	-0.460883	-6.778199	24.548787	-13.670417	-0.000000	-0.000000	-0.000000	-0.000000	42.666960	1.342880	17.075940	0.032654	0.986753	0.009827	-1.000000	-1.000000	-1.000000	-1.000000	-1.000000	-1.000000	-1.000000	146.827586	0.000000	-1.000000	-1.000000	456904.000000	1772311573.066355
-19697.895000	-26595.630000	-25506.540000	-13951.530000	0.000000	0.000000	0.000000	0.000000	7.303985	-13.634210	7.410438	-19.575777	-0.000000	-0.000000	-0.000000	-0.000000	42.666960	1.342880	17.075940	0.032654	0.986753	0.009827	-1.000000	-1.000000	-1.000000	-1.000000	-1.000000	-1.000000	-1.000000	146.827586	0.000000	-1.000000	-1.000000	456905.000000	1772311573.066358
-19666.800000	-26611.920000	-25497.000000	-13943.115000	0.000000	0.000000	0.000000	0.000000	20.589168	-18.253597	-9.193067	-13.362000	-0.000000	-0.000000	-0.000000	-0.000000	42.666960	1.342880	17.075940	0.032654	0.986753	0.009827	-1.000000	-1.000000	-1.000000	-1.000000	-1.000000	-1.000000	-1.000000	146.827586	0.000000	-1.000000	-1.000000	456906.000000	1772311573.070423
-19685.565000	-26596.755000	-25522.965000	-13957.335000	0.000000	0.000000	0.000000	0.000000	31.617513	-16.782339	-20.429798	1.656950	-0.000000	-0.000000	-0.000000	-0.000000	42.666960	1.342880	17.075940	0.032654	0.986753	0.009827	-1.000000	-1.000000	-1.000000	-1.000000	-1.000000	-1.000000	-1.000000	146.827586	0.000000	-1.000000	-1.000000	456907.000000	1772311573.070427
-19726.740000	-26564.760000	-25553.880000	-13949.460000	0.000000	0.000000	0.000000	0.000000	27.495335	-3.345661	-28.650192	14.014787	-0.000000	-0.000000	-0.000000	-0.000000	42.666960	1.342880	17.075940	0.032654	0.986753	0.009827	-1.000000	-1.000000	-1.000000	-1.000000	-1.000000	-1.000000	-1.000000	146.827586	0.000000	-1.000000	-1.000000	456908.000000	1772311573.074619
-19789.785000	-26550.990000	-25606.800000	-13951.485000	0.000000	0.000000	0.000000	0.000000	3.291869	20.549496	-36.058617	15.897878	-0.000000	-0.000000	-0.000000	-0.000000	42.666960	1.342880	17.075940	0.032654	0.986753	0.009827	-1.000000	-1.000000	-1.000000	-1.000000	-1.000000	-1.000000	-1.000000	146.827586	0.000000	-1.000000	-1.000000	456909.000000	1772311573.074623
-19787.895000	-26546.850000	-25617.420000	-13946.490000	0.000000	0.000000	0.000000	0.000000	-30.413283	42.879396	-39.830754	8.678607	-0.000000	-0.000000	-0.000000	-0.000000	42.666960	1.342880	17.075940	0.032654	0.986753	0.009827	-1.000000	-1.000000	-1.000000	-1.000000	-1.000000	-1.000000	-1.000000	146.827586	0.000000	-1.000000	-1.000000	456910.000000	1772311573.078495
-19773.450000	-26532.900000	-25619.625000	-13936.680000	0.000000	0.000000	0.000000	0.000000	-52.849978	50.126233	-33.732200	-1.230360	-0.000000	-0.000000	-0.000000	-0.000000	42.666960	1.342880	17.075940	0.032654	0.986753	0.009827	-1.000000	-1.000000	-1.000000	-1.000000	-1.000000	-1.000000	-1.000000	146.827586	0.000000	-1.000000	-1.000000	456911.000000	1772311573.078498
-19758.195000	-26517.195000	-25635.645000	-13980.375000	0.000000	0.000000	0.000000	0.000000	-48.549888	38.124014	-14.798752	-8.723926	-0.000000	-0.000000	-0.000000	-0.000000	42.666960	1.342880	17.075940	0.032654	0.986753	0.009827	-1.000000	-1.000000	-1.000000	-1.000000	-1.000000	-1.000000	-1.000000	146.827586	0.000000	-1.000000	-1.000000	456912.000000	1772311573.086232
-19735.155000	-26519.355000	-25602.300000	-13977.225000	0.000000	0.000000	0.000000	0.000000	-19.676049	13.510587	11.936637	-12.967152	-0.000000	-0.000000	-0.000000	-0.000000	42.666960	1.342880	17.075940	0.032654	0.986753	0.009827	-1.000000	-1.000000	-1.000000	-1.000000	-1.000000	-1.000000	-1.000000	146.827586	0.000000	-1.000000	-1.000000	456913.000000	1772311573.086234
-19687.770000	-26517.690000	-25576.155000	-14002.290000	0.000000	0.000000	0.000000	0.000000	17.674918	-12.968329	37.259621	-14.273059	-0.000000	-0.000000	-0.000000	-0.000000	30.336880	0.335720	18.525640	0.022949	0.984067	0.006348	-1.000000	-1.000000	-1.000000	-1.000000	-1.000000	-1.000000	-1.000000	146.827586	0.000000	-1.000000	-1.000000	456914.000000	1772311573.086239
-19673.955000	-26559.765000	-25543.665000	-13995.945000	0.000000	0.000000	0.000000	0.000000	45.812551	-33.019812	53.034367	-11.704499	-0.000000	-0.000000	-0.000000	-0.000000	30.336880	0.335720	18.525640	0.022949	0.984067	0.006348	-1.000000	-1.000000	-1.000000	-1.000000	-1.000000	-1.000000	-1.000000	146.827586	0.000000	-1.000000	-1.000000	456915.000000	1772311573.086241
-19697.985000	-26588.205000	-25537.860000	-13948.380000	0.000000	0.000000	0.000000	0.000000	52.734483	-43.375332	53.755581	-3.905190	-0.000000	-0.000000	-0.000000	-0.000000	30.336880	0.335720	18.525640	0.022949	0.984067	0.006348	-1.000000	-1.000000	-1.000000	-1.000000	-1.000000	-1.000000	-1.000000	146.827586	0.000000	-1.000000	-1.000000	456916.000000	1772311573.092277
-19729.890000	-26558.640000	-25582.095000	-14007.870000	0.000000	0.000000	0.000000	0.000000	35.150916	-42.736312	37.229319	7.805261	-0.000000	-0.000000	-0.000000	-0.000000	30.336880	0.335720	18.525640	0.022949	0.984067	0.006348	-1.000000	-1.000000	-1.000000	-1.000000	-1.000000	-1.000000	-1.000000	146.827586	0.000000	-1.000000	-1.000000	456917.000000	1772311573.092280
-19680.165000	-26588.025000	-25558.065000	-14015.430000	0.000000	0.000000	0.000000	0.000000	2.483117	-29.864981	7.263183	16.087253	-0.000000	-0.000000	-0.000000	-0.000000	30.336880	0.335720	18.525640	0.022949	0.984067	0.006348	-1.000000	-1.000000	-1.000000	-1.000000	-1.000000	-1.000000	-1.000000	146.827586	0.000000	-1.000000	-1.000000	456918.000000	1772311573.098087
-19747.485000	-26599.185000	-25635.960000	-14085.540000	0.000000	0.000000	0.000000	0.000000	-27.203939	-8.699542	-25.153137	13.446824	-0.000000	-0.000000	-0.000000	-0.000000	30.336880	0.335720	18.525640	0.022949	0.984067	0.006348	-1.000000	-1.000000	-1.000000	-1.000000	-1.000000	-1.000000	-1.000000	146.827586	0.000000	-1.000000	-1.000000	456919.000000	1772311573.098090
-19714.815000	-26622.720000	-25600.185000	-14035.455000	0.000000	0.000000	0.000000	0.000000	-41.232076	11.247345	-47.475190	1.920686	-0.000000	-0.000000	-0.000000	-0.000000	30.336880	0.335720	18.525640	0.022949	0.984067	0.006348	-1.000000	-1.000000	-1.000000	-1.000000	-1.000000	-1.000000	-1.000000	146.827586	0.000000	-1.000000	-1.000000	456920.000000	1772311573.098562
-19703.025000	-26652.690000	-25585.830000	-14046.255000	0.000000	0.000000	0.000000	0.000000	-36.973957	22.149433	-50.485043	-7.447320	-0.000000	-0.000000	-0.000000	-0.000000	30.336880	0.335720	18.525640	0.022949	0.984067	0.006348	-1.000000	-1.000000	-1.000000	-1.000000	-1.000000	-1.000000	-1.000000	146.827586	0.000000	-1.000000	-1.000000	456921.000000	1772311573.098565
-19712.295000	-26676.765000	-25584.480000	-14010.885000	0.000000	0.000000	0.000000	0.000000	-18.614880	22.070997	-32.482161	-5.863616	-0.000000	-0.000000	-0.000000	-0.000000	30.336880	0.335720	18.525640	0.022949	0.984067	0.006348	-1.000000	-1.000000	-1.000000	-1.000000	-1.000000	-1.000000	-1.000000	146.827586	0.000000	-1.000000	-1.000000	456922.000000	1772311573.104286
-19693.485000	-26675.685000	-25562.565000	-13940.865000	0.000000	0.000000	0.000000	0.000000	3.838029	14.967000	-3.191055	6.075016	-0.000000	-0.000000	-0.000000	-0.000000	30.336880	0.335720	18.525640	0.022949	0.984067	0.006348	-1.000000	-1.000000	-1.000000	-1.000000	-1.000000	-1.000000	-1.000000	146.827586	0.000000	-1.000000	-1.000000	456923.000000	1772311573.104289
-19788.930000	-26655.930000	-25665.390000	-14023.800000	0.000000	0.000000	0.000000	0.000000	18.477857	8.215825	20.755822	19.616113	-0.000000	-0.000000	-0.000000	-0.000000	23.317280	-0.442540	12.925220	0.021545	0.974119	-0.008545	-1.000000	-1.000000	-1.000000	-1.000000	-1.000000	-1.000000	-1.000000	146.827586	0.000000	-1.000000	-1.000000	456924.000000	1772311573.106489
-19802.340000	-26620.965000	-25693.875000	-14056.650000	0.000000	0.000000	0.000000	0.000000	17.534187	7.617287	25.514273	20.873379	-0.000000	-0.000000	-0.000000	-0.000000	23.317280	-0.442540	12.925220	0.021545	0.974119	-0.008545	-1.000000	-1.000000	-1.000000	-1.000000	-1.000000	-1.000000	-1.000000	146.827586	0.000000	-1.000000	-1.000000	456925.000000	1772311573.106492
-19755.495000	-26599.545000	-25664.175000	-14047.605000	0.000000	0.000000	0.000000	0.000000	5.365364	13.037387	12.202174	4.071717	-0.000000	-0.000000	-0.000000	-0.000000	23.317280	-0.442540	12.925220	0.021545	0.974119	-0.008545	-1.000000	-1.000000	-1.000000	-1.000000	-1.000000	-1.000000	-1.000000	146.827586	0.000000	-1.000000	-1.000000	456926.000000	1772311573.110657
-19708.965000	-26604.090000	-25627.230000	-14040.900000	0.000000	0.000000	0.000000	0.000000	-2.214152	18.054500	-1.739915	-18.400218	-0.000000	-0.000000	-0.000000	-0.000000	23.317280	-0.442540	12.925220	0.021545	0.974119	-0.008545	-1.000000	-1.000000	-1.000000	-1.000000	-1.000000	-1.000000	-1.000000	146.827586	0.000000	-1.000000	-1.000000	456927.000000	1772311573.110659
-19667.070000	-26614.710000	-25596.855000	-14025.780000	0.000000	0.000000	0.000000	0.000000	5.056700	14.782800	-1.143714	-29.104790	-0.000000	-0.000000	-0.000000	-0.000000	23.317280	-0.442540	12.925220	0.021545	0.974119	-0.008545	-1.000000	-1.000000	-1.000000	-1.000000	-1.000000	-1.000000	-1.000000	146.827586	0.000000	-1.000000	-1.000000	456928.000000	1772311573.118716
-19647.765000	-26627.670000	-25571.115000	-14010.930000	0.000000	0.000000	0.000000	0.000000	20.954563	0.930867	12.392761	-21.959378	-0.000000	-0.000000	-0.000000	-0.000000	23.317280	-0.442540	12.925220	0.021545	0.974119	-0.008545	-1.000000	-1.000000	-1.000000	-1.000000	-1.000000	-1.000000	-1.000000	146.827586	0.000000	-1.000000	-1.000000	456929.000000	1772311573.118718
-19661.445000	-26617.275000	-25567.470000	-13980.870000	0.000000	0.000000	0.000000	0.000000	30.082024	-17.298953	25.469473	-3.342088	-0.000000	-0.000000	-0.000000	-0.000000	23.317280	-0.442540	12.925220	0.021545	0.974119	-0.008545	-1.000000	-1.000000	-1.000000	-1.000000	-1.000000	-1.000000	-1.000000	146.827586	0.000000	-1.000000	-1.000000	456930.000000	1772311573.118722
-19706.850000	-26622.270000	-25590.195000	-13950.765000	0.000000	0.000000	0.000000	0.000000	20.972792	-29.718638	25.397956	15.787885	-0.000000	-0.000000	-0.000000	-0.000000	23.317280	-0.442540	12.925220	0.021545	0.974119	-0.008545	-1.000000	-1.000000	-1.000000	-1.000000	-1.000000	-1.000000	-1.000000	146.827586	0.000000	-1.000000	-1.000000	456931.000000	1772311573.118724
-19696.095000	-26607.960000	-25613.190000	-13995.180000	0.000000	0.000000	0.000000	0.000000	-4.693513	-29.900752	8.761377	25.547461	-0.000000	-0.000000	-0.000000	-0.000000	23.317280	-0.442540	12.925220	0.021545	0.974119	-0.008545	-1.000000	-1.000000	-1.000000	-1.000000	-1.000000	-1.000000	-1.000000	146.827586	0.000000	-1.000000	-1.000000	456932.000000	1772311573.122603
-19669.815000	-26642.970000	-25621.695000	-14013.900000	0.000000	0.000000	0.000000	0.000000	-31.368544	-19.449698	-16.555730	19.640132	-0.000000	-0.000000	-0.000000	-0.000000	23.317280	-0.442540	12.925220	0.021545	0.974119	-0.008545	-1.000000	-1.000000	-1.000000	-1.000000	-1.000000	-1.000000	-1.000000	146.827586	0.000000	-1.000000	-1.000000	456933.000000	1772311573.122605
-19668.915000	-26717.490000	-25598.430000	-13943.115000	0.000000	0.000000	0.000000	0.000000	-41.762306	-7.189069	-35.996700	1.942644	-0.000000	-0.000000	-0.000000	-0.000000	10.315760	6.424460	7.950460	0.065796	0.972715	-0.050720	-1.000000	-1.000000	-1.000000	-1.000000	-1.000000	-1.000000	-1.000000	146.827586	0.000000	-1.000000	-1.000000	456934.000000	1772311573.128147
-19708.155000	-26746.425000	-25625.475000	-13936.590000	0.000000	0.000000	0.000000	0.000000	-32.455525	-2.078994	-38.606413	-13.020735	-0.000000	-0.000000	-0.000000	-0.000000	10.315760	6.424460	7.950460	0.065796	0.972715	-0.050720	-1.000000	-1.000000	-1.000000	-1.000000	-1.000000	-1.000000	-1.000000	146.827586	0.000000	-1.000000	-1.000000	456935.000000	1772311573.128150
-19775.070000	-26743.140000	-25665.615000	-13983.345000	0.000000	0.000000	0.000000	0.000000	-15.301848	-3.318989	-26.006794	-16.313050	-0.000000	-0.000000	-0.000000	-0.000000	10.315760	6.424460	7.950460	0.065796	0.972715	-0.050720	-1.000000	-1.000000	-1.000000	-1.000000	-1.000000	-1.000000	-1.000000	146.827586	0.000000	-1.000000	-1.000000	456936.000000	1772311573.130670
-19848.690000	-26706.375000	-25730.505000	-14060.115000	0.000000	0.000000	0.000000	0.000000	-4.508261	-1.013202	-9.885466	-14.551815	-0.000000	-0.000000	-0.000000	-0.000000	10.315760	6.424460	7.950460	0.065796	0.972715	-0.050720	-1.000000	-1.000000	-1.000000	-1.000000	-1.000000	-1.000000	-1.000000	146.827586	0.000000	-1.000000	-1.000000	456937.000000	1772311573.130673
-19804.590000	-26654.805000	-25721.730000	-14067.315000	0.000000	0.000000	0.000000	0.000000	-2.581978	12.156206	0.611044	-16.846462	-0.000000	-0.000000	-0.000000	-0.000000	10.315760	6.424460	7.950460	0.065796	0.972715	-0.050720	-1.000000	-1.000000	-1.000000	-1.000000	-1.000000	-1.000000	-1.000000	146.827586	0.000000	-1.000000	-1.000000	456938.000000	1772311573.134555
-19726.425000	-26660.475000	-25686.900000	-14006.070000	0.000000	0.000000	0.000000	0.000000	2.331288	31.787803	7.465114	-19.192775	-0.000000	-0.000000	-0.000000	-0.000000	10.315760	6.424460	7.950460	0.065796	0.972715	-0.050720	-1.000000	-1.000000	-1.000000	-1.000000	-1.000000	-1.000000	-1.000000	146.827586	0.000000	-1.000000	-1.000000	456939.000000	1772311573.134558
-19657.395000	-26701.425000	-25689.375000	-13967.820000	0.000000	0.000000	0.000000	0.000000	21.492956	42.991528	17.252176	-9.484448	-0.000000	-0.000000	-0.000000	-0.000000	10.315760	6.424460	7.950460	0.065796	0.972715	-0.050720	-1.000000	-1.000000	-1.000000	-1.000000	-1.000000	-1.000000	-1.000000	146.827586	0.000000	-1.000000	-1.000000	456940.000000	1772311573.138672
-19638.720000	-26716.455000	-25770.510000	-14021.730000	0.000000	0.000000	0.000000	0.000000	48.492394	33.157208	27.338590	12.685516	-0.000000	-0.000000	-0.000000	-0.000000	10.315760	6.424460	7.950460	0.065796	0.972715	-0.050720	-1.000000	-1.000000	-1.000000	-1.000000	-1.000000	-1.000000	-1.000000	146.827586	0.000000	-1.000000	-1.000000	456941.000000	1772311573.138674
-19589.400000	-26676.630000	-25724.250000	-14001.705000	0.000000	0.000000	0.000000	0.000000	63.410098	6.202372	28.015965	31.486020	-0.000000	-0.000000	-0.000000	-0.000000	10.315760	6.424460	7.950460	0.065796	0.972715	-0.050720	-1.000000	-1.000000	-1.000000	-1.000000	-1.000000	-1.000000	-1.000000	146.827586	0.000000	-1.000000	-1.000000	456942.000000	1772311573.142619
-19535.940000	-26651.430000	-25649.595000	-13964.130000	0.000000	0.000000	0.000000	0.000000	53.263708	-19.536995	19.725497	34.440497	-0.000000	-0.000000	-0.000000	-0.000000	10.315760	6.424460	7.950460	0.065796	0.972715	-0.050720	-1.000000	-1.000000	-1.000000	-1.000000	-1.000000	-1.000000	-1.000000	146.827586	0.000000	-1.000000	-1.000000	456943.000000	1772311573.142622
-19556.010000	-26633.295000	-25618.230000	-13971.420000	0.000000	0.000000	0.000000	0.000000	21.544925	-29.037915	13.404040	24.079764	-0.000000	-0.000000	-0.000000	-0.000000	3.341940	7.431620	11.734940	0.073242	1.014402	-0.062195	-1.000000	-1.000000	-1.000000	-1.000000	-1.000000	-1.000000	-1.000000	146.827586	0.000000	-1.000000	-1.000000	456944.000000	1772311573.146640
-19702.575000	-26627.670000	-25643.070000	-13955.940000	0.000000	0.000000	0.000000	0.000000	-21.998640	-22.306548	12.009315	8.505349	-0.000000	-0.000000	-0.000000	-0.000000	3.341940	7.431620	11.734940	0.073242	1.014402	-0.062195	-1.000000	-1.000000	-1.000000	-1.000000	-1.000000	-1.000000	-1.000000	146.827586	0.000000	-1.000000	-1.000000	456945.000000	1772311573.146643
-19861.560000	-26649.720000	-25640.640000	-13944.150000	0.000000	0.000000	0.000000	0.000000	-69.871122	-10.091687	6.854977	-6.208012	-0.000000	-0.000000	-0.000000	-0.000000	3.341940	7.431620	11.734940	0.073242	1.014402	-0.062195	-1.000000	-1.000000	-1.000000	-1.000000	-1.000000	-1.000000	-1.000000	146.827586	0.000000	-1.000000	-1.000000	456946.000000	1772311573.150692
-19979.370000	-26710.695000	-25649.955000	-13993.605000	0.000000	0.000000	0.000000	0.000000	-110.121491	-3.984035	-7.424693	-16.929438	-0.000000	-0.000000	-0.000000	-0.000000	3.341940	7.431620	11.734940	0.073242	1.014402	-0.062195	-1.000000	-1.000000	-1.000000	-1.000000	-1.000000	-1.000000	-1.000000	146.827586	0.000000	-1.000000	-1.000000	456947.000000	1772311573.150695
-19931.805000	-26725.275000	-25580.115000	-13974.345000	0.000000	0.000000	0.000000	0.000000	-120.172774	-8.370299	-23.957745	-23.524652	-0.000000	-0.000000	-0.000000	-0.000000	3.341940	7.431620	11.734940	0.073242	1.014402	-0.062195	-1.000000	-1.000000	-1.000000	-1.000000	-1.000000	-1.000000	-1.000000	146.827586	0.000000	-1.000000	-1.000000	456948.000000	1772311573.154363
-19798.380000	-26704.530000	-25563.105000	-14037.885000	0.000000	0.000000	0.000000	0.000000	-77.869991	-16.236322	-30.361281	-25.977911	-0.000000	-0.000000	-0.000000	-0.000000	3.341940	7.431620	11.734940	0.073242	1.014402	-0.062195	-1.000000	-1.000000	-1.000000	-1.000000	-1.000000	-1.000000	-1.000000	146.827586	0.000000	-1.000000	-1.000000	456949.000000	1772311573.154366
-19744.245000	-26694.855000	-25569.090000	-14016.915000	0.000000	0.000000	0.000000	0.000000	13.565773	-15.405505	-22.688701	-23.413859	-0.000000	-0.000000	-0.000000	-0.000000	3.341940	7.431620	11.734940	0.073242	1.014402	-0.062195	-1.000000	-1.000000	-1.000000	-1.000000	-1.000000	-1.000000	-1.000000	146.827586	0.000000	-1.000000	-1.000000	456950.000000	1772311573.158861
-19815.165000	-26687.205000	-25623.090000	-14019.840000	0.000000	0.000000	0.000000	0.000000	111.462398	-1.698780	-10.370315	-14.684816	-0.000000	-0.000000	-0.000000	-0.000000	3.341940	7.431620	11.734940	0.073242	1.014402	-0.062195	-1.000000	-1.000000	-1.000000	-1.000000	-1.000000	-1.000000	-1.000000	146.827586	0.000000	-1.000000	-1.000000	456951.000000	1772311573.158863
-19809.630000	-26699.220000	-25648.560000	-13994.955000	0.000000	0.000000	0.000000	0.000000	159.120792	16.866765	-5.350142	0.332943	-0.000000	-0.000000	-0.000000	-0.000000	3.341940	7.431620	11.734940	0.073242	1.014402	-0.062195	-1.000000	-1.000000	-1.000000	-1.000000	-1.000000	-1.000000	-1.000000	146.827586	0.000000	-1.000000	-1.000000	456952.000000	1772311573.164105
-19733.805000	-26701.920000	-25633.665000	-13941.045000	0.000000	0.000000	0.000000	0.000000	134.425588	28.288824	-8.694464	18.498932	-0.000000	-0.000000	-0.000000	-0.000000	3.341940	7.431620	11.734940	0.073242	1.014402	-0.062195	-1.000000	-1.000000	-1.000000	-1.000000	-1.000000	-1.000000	-1.000000	146.827586	0.000000	-1.000000	-1.000000	456953.000000	1772311573.164107
-19621.305000	-26674.920000	-25598.160000	-13939.020000	0.000000	0.000000	0.000000	0.000000	65.465470	27.093880	-10.161889	33.752854	-0.000000	-0.000000	-0.000000	-0.000000	6.149780	4.669560	10.071600	0.049255	1.012632	-0.048950	-1.000000	-1.000000	-1.000000	-1.000000	-1.000000	-1.000000	-1.000000	146.827586	0.000000	-1.000000	-1.000000	456954.000000	1772311573.172587
-19547.055000	-26696.205000	-25567.740000	-13987.530000	0.000000	0.000000	0.000000	0.000000	-2.042619	16.683129	-0.649426	37.433996	-0.000000	-0.000000	-0.000000	-0.000000	6.149780	4.669560	10.071600	0.049255	1.012632	-0.048950	-1.000000	-1.000000	-1.000000	-1.000000	-1.000000	-1.000000	-1.000000	146.827586	0.000000	-1.000000	-1.000000	456955.000000	1772311573.172590
-19675.395000	-26771.625000	-25628.625000	-14048.955000	0.000000	0.000000	0.000000	0.000000	-45.443455	1.657397	16.008570	22.274889	-0.000000	-0.000000	-0.000000	-0.000000	6.149780	4.669560	10.071600	0.049255	1.012632	-0.048950	-1.000000	-1.000000	-1.000000	-1.000000	-1.000000	-1.000000	-1.000000	146.827586	0.000000	-1.000000	-1.000000	456956.000000	1772311573.172595
-19873.755000	-26790.165000	-25801.515000	-14107.545000	0.000000	0.000000	0.000000	0.000000	-75.287006	-15.779039	22.821617	-8.648428	-0.000000	-0.000000	-0.000000	-0.000000	6.149780	4.669560	10.071600	0.049255	1.012632	-0.048950	-1.000000	-1.000000	-1.000000	-1.000000	-1.000000	-1.000000	-1.000000	146.827586	0.000000	-1.000000	-1.000000	456957.000000	1772311573.172598
-19898.505000	-26804.835000	-25787.970000	-14041.440000	0.000000	0.000000	0.000000	0.000000	-105.334221	-29.836545	7.389939	-38.304844	-0.000000	-0.000000	-0.000000	-0.000000	6.149780	4.669560	10.071600	0.049255	1.012632	-0.048950	-1.000000	-1.000000	-1.000000	-1.000000	-1.000000	-1.000000	-1.000000	146.827586	0.000000	-1.000000	-1.000000	456958.000000	1772311573.175091
-19785.960000	-26761.905000	-25686.180000	-13953.105000	0.000000	0.000000	0.000000	0.000000	-119.435316	-30.805941	-15.922026	-44.074421	-0.000000	-0.000000	-0.000000	-0.000000	6.149780	4.669560	10.071600	0.049255	1.012632	-0.048950	-1.000000	-1.000000	-1.000000	-1.000000	-1.000000	-1.000000	-1.000000	146.827586	0.000000	-1.000000	-1.000000	456959.000000	1772311573.175094
-19598.130000	-26692.920000	-25544.970000	-13909.275000	0.000000	0.000000	0.000000	0.000000	-84.803494	-13.246252	-16.021500	-17.207754	-0.000000	-0.000000	-0.000000	-0.000000	6.149780	4.669560	10.071600	0.049255	1.012632	-0.048950	-1.000000	-1.000000	-1.000000	-1.000000	-1.000000	-1.000000	-1.000000	146.827586	0.000000	-1.000000	-1.000000	456960.000000	1772311573.178715
-19556.100000	-26667.630000	-25513.470000	-13977.765000	0.000000	0.000000	0.000000	0.000000	2.012417	17.122868	17.103353	23.428102	-0.000000	-0.000000	-0.000000	-0.000000	6.149780	4.669560	10.071600	0.049255	1.012632	-0.048950	-1.000000	-1.000000	-1.000000	-1.000000	-1.000000	-1.000000	-1.000000	146.827586	0.000000	-1.000000	-1.000000	456961.000000	1772311573.178718
-19655.235000	-26640.315000	-25572.285000	-14050.665000	0.000000	0.000000	0.000000	0.000000	94.551914	43.784123	56.008350	44.281950	-0.000000	-0.000000	-0.000000	-0.000000	6.149780	4.669560	10.071600	0.049255	1.012632	-0.048950	-1.000000	-1.000000	-1.000000	-1.000000	-1.000000	-1.000000	-1.000000	146.827586	0.000000	-1.000000	-1.000000	456962.000000	1772311573.183088
-19754.190000	-26627.625000	-25634.115000	-14104.485000	0.000000	0.000000	0.000000	0.000000	130.460047	50.406958	61.657274	27.897335	-0.000000	-0.000000	-0.000000	-0.000000	6.149780	4.669560	10.071600	0.049255	1.012632	-0.048950	-1.000000	-1.000000	-1.000000	-1.000000	-1.000000	-1.000000	-1.000000	146.827586	0.000000	-1.000000	-1.000000	456963.000000	1772311573.183090
-19789.335000	-26642.655000	-25651.665000	-14017.455000	0.000000	0.000000	0.000000	0.000000	87.876800	32.567248	22.442725	-9.857031	-0.000000	-0.000000	-0.000000	-0.000000	6.897520	6.042960	7.233240	0.068298	0.974973	-0.038513	-1.000000	-1.000000	-1.000000	-1.000000	-1.000000	-1.000000	-1.000000	146.827586	0.000000	-1.000000	-1.000000	456964.000000	1772311573.186672
-19871.865000	-26642.520000	-25710.480000	-13997.115000	0.000000	0.000000	0.000000	0.000000	1.572403	-0.986199	-36.703850	-34.921787	-0.000000	-0.000000	-0.000000	-0.000000	6.897520	6.042960	7.233240	0.068298	0.974973	-0.038513	-1.000000	-1.000000	-1.000000	-1.000000	-1.000000	-1.000000	-1.000000	146.827586	0.000000	-1.000000	-1.000000	456965.000000	1772311573.186674
-19852.470000	-26609.220000	-25733.115000	-14026.005000	0.000000	0.000000	0.000000	0.000000	-72.002581	-33.565247	-79.810476	-29.440610	-0.000000	-0.000000	-0.000000	-0.000000	6.897520	6.042960	7.233240	0.068298	0.974973	-0.038513	-1.000000	-1.000000	-1.000000	-1.000000	-1.000000	-1.000000	-1.000000	146.827586	0.000000	-1.000000	-1.000000	456966.000000	1772311573.190796
-19745.010000	-26565.840000	-25708.230000	-14060.790000	0.000000	0.000000	0.000000	0.000000	-92.445916	-48.692356	-84.930894	-6.162680	-0.000000	-0.000000	-0.000000	-0.000000	6.897520	6.042960	7.233240	0.068298	0.974973	-0.038513	-1.000000	-1.000000	-1.000000	-1.000000	-1.000000	-1.000000	-1.000000	146.827586	0.000000	-1.000000	-1.000000	456967.000000	1772311573.190801
-19716.300000	-26565.255000	-25657.740000	-14019.255000	0.000000	0.000000	0.000000	0.000000	-53.058700	-40.661703	-50.698763	12.959892	-0.000000	-0.000000	-0.000000	-0.000000	6.897520	6.042960	7.233240	0.068298	0.974973	-0.038513	-1.000000	-1.000000	-1.000000	-1.000000	-1.000000	-1.000000	-1.000000	146.827586	0.000000	-1.000000	-1.000000	456968.000000	1772311573.194916
-19716.120000	-26622.045000	-25666.605000	-13995.855000	0.000000	0.000000	0.000000	0.000000	16.088878	-19.760809	5.406017	20.185068	-0.000000	-0.000000	-0.000000	-0.000000	6.897520	6.042960	7.233240	0.068298	0.974973	-0.038513	-1.000000	-1.000000	-1.000000	-1.000000	-1.000000	-1.000000	-1.000000	146.827586	0.000000	-1.000000	-1.000000	456969.000000	1772311573.194919
-19718.055000	-26639.190000	-25690.860000	-13993.470000	0.000000	0.000000	0.000000	0.000000	69.001684	-3.176436	54.184383	19.602495	-0.000000	-0.000000	-0.000000	-0.000000	6.897520	6.042960	7.233240	0.068298	0.974973	-0.038513	-1.000000	-1.000000	-1.000000	-1.000000	-1.000000	-1.000000	-1.000000	146.827586	0.000000	-1.000000	-1.000000	456970.000000	1772311573.198796
-19664.865000	-26654.940000	-25636.320000	-13979.025000	0.000000	0.000000	0.000000	0.000000	78.649911	1.351044	72.943463	14.794837	-0.000000	-0.000000	-0.000000	-0.000000	6.897520	6.042960	7.233240	0.068298	0.974973	-0.038513	-1.000000	-1.000000	-1.000000	-1.000000	-1.000000	-1.000000	-1.000000	146.827586	0.000000	-1.000000	-1.000000	456971.000000	1772311573.198799
-19601.730000	-26666.280000	-25606.080000	-13953.645000	0.000000	0.000000	0.000000	0.000000	51.677770	-0.600773	61.142436	7.234947	-0.000000	-0.000000	-0.000000	-0.000000	6.897520	6.042960	7.233240	0.068298	0.974973	-0.038513	-1.000000	-1.000000	-1.000000	-1.000000	-1.000000	-1.000000	-1.000000	146.827586	0.000000	-1.000000	-1.000000	456972.000000	1772311573.205512
-19709.640000	-26685.270000	-25761.510000	-14033.250000	0.000000	0.000000	0.000000	0.000000	10.326647	-0.533693	30.680565	-2.309741	-0.000000	-0.000000	-0.000000	-0.000000	6.897520	6.042960	7.233240	0.068298	0.974973	-0.038513	-1.000000	-1.000000	-1.000000	-1.000000	-1.000000	-1.000000	-1.000000	146.827586	0.000000	-1.000000	-1.000000	456973.000000	1772311573.205514
-19683.540000	-26676.495000	-25807.995000	-14015.745000	0.000000	0.000000	0.000000	0.000000	-29.904721	4.863613	-10.409437	-14.191796	-0.000000	-0.000000	-0.000000	-0.000000	20.707820	11.902800	4.150720	0.093994	0.951719	-0.065124	-1.000000	-1.000000	-1.000000	-1.000000	-1.000000	-1.000000	-1.000000	146.827586	0.000000	-1.000000	-1.000000	456974.000000	1772311573.206843
-19665.225000	-26661.645000	-25841.160000	-13977.495000	0.000000	0.000000	0.000000	0.000000	-57.852538	14.170909	-50.830572	-23.896969	-0.000000	-0.000000	-0.000000	-0.000000	20.707820	11.902800	4.150720	0.093994	0.951719	-0.065124	-1.000000	-1.000000	-1.000000	-1.000000	-1.000000	-1.000000	-1.000000	146.827586	0.000000	-1.000000	-1.000000	456975.000000	1772311573.206846
-19581.075000	-26659.485000	-25823.700000	-13978.980000	0.000000	0.000000	0.000000	0.000000	-60.991856	23.518423	-70.109909	-22.636185	-0.000000	-0.000000	-0.000000	-0.000000	20.707820	11.902800	4.150720	0.093994	0.951719	-0.065124	-1.000000	-1.000000	-1.000000	-1.000000	-1.000000	-1.000000	-1.000000	146.827586	0.000000	-1.000000	-1.000000	456976.000000	1772311573.210936
-19499.940000	-26664.975000	-25717.005000	-13992.705000	0.000000	0.000000	0.000000	0.000000	-35.335788	27.630213	-53.107279	-9.954766	-0.000000	-0.000000	-0.000000	-0.000000	20.707820	11.902800	4.150720	0.093994	0.951719	-0.065124	-1.000000	-1.000000	-1.000000	-1.000000	-1.000000	-1.000000	-1.000000	146.827586	0.000000	-1.000000	-1.000000	456977.000000	1772311573.210938
-19587.195000	-26661.690000	-25590.555000	-13993.065000	0.000000	0.000000	0.000000	0.000000	4.425164	22.836799	-2.492366	4.533067	-0.000000	-0.000000	-0.000000	-0.000000	20.707820	11.902800	4.150720	0.093994	0.951719	-0.065124	-1.000000	-1.000000	-1.000000	-1.000000	-1.000000	-1.000000	-1.000000	146.827586	0.000000	-1.000000	-1.000000	456978.000000	1772311573.216999
