Channel1	Channel2	Channel3	Channel4	Channel5	Channel6	Channel7	Channel8	FilteredChannel1	FilteredChannel2	FilteredChannel3	FilteredChannel4	FilteredChannel5	FilteredChannel6	FilteredChannel7	FilteredChannel8	GyroX	GyroY	GyroZ	AccX	AccY	AccZ	PPG1	PPG2	rawPPG1	rawPPG2	rawPPG3	Hr	Hrv	Battery	Trigger	PhysicalTrigger	AutoTrigger	NumMeasurements	Timestamp
-17384.760000	-13918.995000	-18140.760000	-13191.795000	0.000000	0.000000	0.000000	0.000000	2.790483	9.610251	-0.157840	0.385250	0.000000	0.000000	-0.000000	-0.000000	1.953280	0.137340	-0.167860	0.016602	0.976499	-0.102783	-1.000000	-1.000000	-1.000000	-1.000000	-1.000000	-1.000000	-1.000000	146.758621	0.000000	-1.000000	-1.000000	246899.000000	1772311151.878685
-17385.480000	-13904.730000	-18140.805000	-13194.495000	0.000000	0.000000	0.000000	0.000000	-1.642505	-5.281943	-1.373592	-0.459961	0.000000	0.000000	-0.000000	-0.000000	1.953280	0.137340	-0.167860	0.016602	0.976499	-0.102783	-1.000000	-1.000000	-1.000000	-1.000000	-1.000000	-1.000000	-1.000000	146.758621	0.000000	-1.000000	-1.000000	246900.000000	1772311151.878693
-17372.610000	-13905.765000	-18128.790000	-13185.675000	0.000000	0.000000	0.000000	0.000000	-5.096002	-21.535829	-1.855056	-1.056270	0.000000	0.000000	-0.000000	-0.000000	1.953280	0.137340	-0.167860	0.016602	0.976499	-0.102783	-1.000000	-1.000000	-1.000000	-1.000000	-1.000000	-1.000000	-1.000000	146.758621	0.000000	-1.000000	-1.000000	246901.000000	1772311151.882729
-17359.065000	-13930.380000	-18115.875000	-13176.180000	0.000000	0.000000	0.000000	0.000000	-3.861428	-38.332871	0.529756	0.480497	0.000000	0.000000	-0.000000	-0.000000	1.953280	0.137340	-0.167860	0.016602	0.976499	-0.102783	-1.000000	-1.000000	-1.000000	-1.000000	-1.000000	-1.000000	-1.000000	146.758621	0.000000	-1.000000	-1.000000	246902.000000	1772311151.882733
-17353.215000	-13970.250000	-18111.555000	-13172.400000	0.000000	0.000000	0.000000	0.000000	2.237406	-52.096252	5.592151	4.444922	0.000000	0.000000	-0.000000	-0.000000	1.953280	0.137340	-0.167860	0.016602	0.976499	-0.102783	-1.000000	-1.000000	-1.000000	-1.000000	-1.000000	-1.000000	-1.000000	146.758621	0.000000	-1.000000	-1.000000	246903.000000	1772311151.887750
-17338.905000	-13968.225000	-18097.020000	-13152.510000	0.000000	0.000000	0.000000	0.000000	9.127950	-56.704563	10.134007	8.564531	0.000000	0.000000	-0.000000	-0.000000	1.953280	0.137340	-0.167860	0.016602	0.976499	-0.102783	-1.000000	-1.000000	-1.000000	-1.000000	-1.000000	-1.000000	-1.000000	146.758621	0.000000	-1.000000	-1.000000	246904.000000	1772311151.887754
-17322.570000	-13939.605000	-18076.725000	-13130.190000	0.000000	0.000000	0.000000	0.000000	12.452380	-45.631334	11.250650	10.601688	0.000000	0.000000	-0.000000	-0.000000	3.998120	0.198380	-0.228900	0.016602	0.976377	-0.099304	-1.000000	-1.000000	-1.000000	-1.000000	-1.000000	-1.000000	-1.000000	146.758621	0.000000	-1.000000	-1.000000	246905.000000	1772311151.890786
-17327.340000	-13925.340000	-18079.470000	-13126.860000	0.000000	0.000000	0.000000	0.000000	10.448205	-17.452692	8.357385	9.657858	0.000000	0.000000	-0.000000	-0.000000	3.998120	0.198380	-0.228900	0.016602	0.976377	-0.099304	-1.000000	-1.000000	-1.000000	-1.000000	-1.000000	-1.000000	-1.000000	146.758621	0.000000	-1.000000	-1.000000	246906.000000	1772311151.890789
-17369.415000	-13899.060000	-18124.335000	-13174.065000	0.000000	0.000000	0.000000	0.000000	2.826550	19.070634	1.240096	4.297188	0.000000	0.000000	-0.000000	-0.000000	3.998120	0.198380	-0.228900	0.016602	0.976377	-0.099304	-1.000000	-1.000000	-1.000000	-1.000000	-1.000000	-1.000000	-1.000000	146.758621	0.000000	-1.000000	-1.000000	246907.000000	1772311151.894821
-17412.615000	-13879.800000	-18162.225000	-13213.395000	0.000000	0.000000	0.000000	0.000000	-9.919203	49.015350	-10.491931	-7.212514	0.000000	0.000000	-0.000000	-0.000000	3.998120	0.198380	-0.228900	0.016602	0.976377	-0.099304	-1.000000	-1.000000	-1.000000	-1.000000	-1.000000	-1.000000	-1.000000	146.758621	0.000000	-1.000000	-1.000000	246908.000000	1772311151.894824
-17431.380000	-13870.620000	-18170.505000	-13222.530000	0.000000	0.000000	0.000000	0.000000	-23.760044	60.643889	-23.353378	-21.827896	0.000000	0.000000	-0.000000	-0.000000	3.998120	0.198380	-0.228900	0.016602	0.976377	-0.099304	-1.000000	-1.000000	-1.000000	-1.000000	-1.000000	-1.000000	-1.000000	146.758621	0.000000	-1.000000	-1.000000	246909.000000	1772311151.898778
-17381.970000	-13850.280000	-18131.670000	-13186.440000	0.000000	0.000000	0.000000	0.000000	-29.535114	51.223318	-28.313459	-29.601922	0.000000	0.000000	-0.000000	-0.000000	3.998120	0.198380	-0.228900	0.016602	0.976377	-0.099304	-1.000000	-1.000000	-1.000000	-1.000000	-1.000000	-1.000000	-1.000000	146.758621	0.000000	-1.000000	-1.000000	246910.000000	1772311151.898782
-17371.845000	-13802.130000	-18123.345000	-13172.895000	0.000000	0.000000	0.000000	0.000000	-19.074620	27.983452	-17.996018	-21.530427	0.000000	0.000000	-0.000000	-0.000000	3.998120	0.198380	-0.228900	0.016602	0.976377	-0.099304	-1.000000	-1.000000	-1.000000	-1.000000	-1.000000	-1.000000	-1.000000	146.758621	0.000000	-1.000000	-1.000000	246911.000000	1772311151.902649
-17350.065000	-13804.065000	-18106.290000	-13151.925000	0.000000	0.000000	0.000000	0.000000	4.756513	2.879161	4.156856	0.304602	0.000000	0.000000	-0.000000	-0.000000	3.998120	0.198380	-0.228900	0.016602	0.976377	-0.099304	-1.000000	-1.000000	-1.000000	-1.000000	-1.000000	-1.000000	-1.000000	146.758621	0.000000	-1.000000	-1.000000	246912.000000	1772311151.902652
-17328.420000	-13818.510000	-18085.815000	-13134.690000	0.000000	0.000000	0.000000	0.000000	28.559531	-16.619494	25.722347	23.572286	0.000000	0.000000	-0.000000	-0.000000	3.998120	0.198380	-0.228900	0.016602	0.976377	-0.099304	-1.000000	-1.000000	-1.000000	-1.000000	-1.000000	-1.000000	-1.000000	146.758621	0.000000	-1.000000	-1.000000	246913.000000	1772311151.906417
-17341.920000	-13828.995000	-18101.790000	-13147.290000	0.000000	0.000000	0.000000	0.000000	39.166218	-29.605342	35.182597	35.385907	0.000000	0.000000	-0.000000	-0.000000	3.998120	0.198380	-0.228900	0.016602	0.976377	-0.099304	-1.000000	-1.000000	-1.000000	-1.000000	-1.000000	-1.000000	-1.000000	146.758621	0.000000	-1.000000	-1.000000	246914.000000	1772311151.906421
-17379.630000	-13852.755000	-18138.285000	-13186.800000	0.000000	0.000000	0.000000	0.000000	30.678453	-36.268039	27.517164	29.229594	0.000000	0.000000	-0.000000	-0.000000	3.769220	-0.305200	-0.167860	0.016724	0.976743	-0.101135	-1.000000	-1.000000	-1.000000	-1.000000	-1.000000	-1.000000	-1.000000	146.758621	0.000000	-1.000000	-1.000000	246915.000000	1772311151.910792
-17387.190000	-13858.470000	-18139.905000	-13190.130000	0.000000	0.000000	0.000000	0.000000	6.737327	-35.406911	6.145386	7.932872	0.000000	0.000000	-0.000000	-0.000000	3.769220	-0.305200	-0.167860	0.016724	0.976743	-0.101135	-1.000000	-1.000000	-1.000000	-1.000000	-1.000000	-1.000000	-1.000000	146.758621	0.000000	-1.000000	-1.000000	246916.000000	1772311151.910795
-17378.100000	-13848.975000	-18119.025000	-13173.795000	0.000000	0.000000	0.000000	0.000000	-19.660262	-25.815971	-16.760555	-16.103441	0.000000	0.000000	-0.000000	-0.000000	3.769220	-0.305200	-0.167860	0.016724	0.976743	-0.101135	-1.000000	-1.000000	-1.000000	-1.000000	-1.000000	-1.000000	-1.000000	146.758621	0.000000	-1.000000	-1.000000	246917.000000	1772311151.914830
-17380.215000	-13845.510000	-18118.665000	-13180.500000	0.000000	0.000000	0.000000	0.000000	-33.821963	-8.463584	-27.711430	-28.715216	0.000000	0.000000	-0.000000	-0.000000	3.769220	-0.305200	-0.167860	0.016724	0.976743	-0.101135	-1.000000	-1.000000	-1.000000	-1.000000	-1.000000	-1.000000	-1.000000	146.758621	0.000000	-1.000000	-1.000000	246918.000000	1772311151.914832
-17372.430000	-13815.450000	-18119.205000	-13188.645000	0.000000	0.000000	0.000000	0.000000	-30.001130	12.044269	-22.782020	-25.269762	0.000000	0.000000	-0.000000	-0.000000	3.769220	-0.305200	-0.167860	0.016724	0.976743	-0.101135	-1.000000	-1.000000	-1.000000	-1.000000	-1.000000	-1.000000	-1.000000	146.758621	0.000000	-1.000000	-1.000000	246919.000000	1772311151.918770
-17348.220000	-13775.805000	-18102.195000	-13179.915000	0.000000	0.000000	0.000000	0.000000	-13.137161	29.583058	-8.495984	-11.757460	0.000000	0.000000	-0.000000	-0.000000	3.769220	-0.305200	-0.167860	0.016724	0.976743	-0.101135	-1.000000	-1.000000	-1.000000	-1.000000	-1.000000	-1.000000	-1.000000	146.758621	0.000000	-1.000000	-1.000000	246920.000000	1772311151.918773
-17353.935000	-13766.715000	-18106.740000	-13176.180000	0.000000	0.000000	0.000000	0.000000	6.870709	38.982599	5.954233	3.224221	0.000000	0.000000	-0.000000	-0.000000	3.769220	-0.305200	-0.167860	0.016724	0.976743	-0.101135	-1.000000	-1.000000	-1.000000	-1.000000	-1.000000	-1.000000	-1.000000	146.758621	0.000000	-1.000000	-1.000000	246921.000000	1772311151.922714
-17381.025000	-13779.360000	-18130.905000	-13177.080000	0.000000	0.000000	0.000000	0.000000	19.745918	35.974575	13.596503	13.683773	0.000000	0.000000	-0.000000	-0.000000	3.769220	-0.305200	-0.167860	0.016724	0.976743	-0.101135	-1.000000	-1.000000	-1.000000	-1.000000	-1.000000	-1.000000	-1.000000	146.758621	0.000000	-1.000000	-1.000000	246922.000000	1772311151.922717
-17415.270000	-13795.155000	-18158.490000	-13196.835000	0.000000	0.000000	0.000000	0.000000	18.875597	19.278988	11.130607	16.495772	0.000000	0.000000	-0.000000	-0.000000	3.769220	-0.305200	-0.167860	0.016724	0.976743	-0.101135	-1.000000	-1.000000	-1.000000	-1.000000	-1.000000	-1.000000	-1.000000	146.758621	0.000000	-1.000000	-1.000000	246923.000000	1772311151.926793
-17390.835000	-13843.890000	-18132.345000	-13177.215000	0.000000	0.000000	0.000000	0.000000	6.626673	-6.293966	1.604647	11.929566	0.000000	0.000000	-0.000000	-0.000000	3.769220	-0.305200	-0.167860	0.016724	0.976743	-0.101135	-1.000000	-1.000000	-1.000000	-1.000000	-1.000000	-1.000000	-1.000000	146.758621	0.000000	-1.000000	-1.000000	246924.000000	1772311151.926795
-17373.870000	-13869.900000	-18113.220000	-13151.115000	0.000000	0.000000	0.000000	0.000000	-5.842417	-31.183620	-5.989926	4.766383	0.000000	0.000000	-0.000000	-0.000000	2.502640	-0.076300	-0.320460	0.016724	0.977109	-0.102905	-1.000000	-1.000000	-1.000000	-1.000000	-1.000000	-1.000000	-1.000000	146.758621	0.000000	-1.000000	-1.000000	246925.000000	1772311151.930839
-17371.440000	-13869.495000	-18109.260000	-13143.870000	0.000000	0.000000	0.000000	0.000000	-8.748625	-44.675427	-4.929894	0.714960	0.000000	0.000000	-0.000000	-0.000000	2.502640	-0.076300	-0.320460	0.016724	0.977109	-0.102905	-1.000000	-1.000000	-1.000000	-1.000000	-1.000000	-1.000000	-1.000000	146.758621	0.000000	-1.000000	-1.000000	246926.000000	1772311151.930842
-17369.595000	-13837.230000	-18109.710000	-13150.080000	0.000000	0.000000	0.000000	0.000000	-2.586809	-38.930934	2.416676	0.349664	0.000000	0.000000	-0.000000	-0.000000	2.502640	-0.076300	-0.320460	0.016724	0.977109	-0.102905	-1.000000	-1.000000	-1.000000	-1.000000	-1.000000	-1.000000	-1.000000	146.758621	0.000000	-1.000000	-1.000000	246927.000000	1772311151.934717
-17367.660000	-13839.570000	-18122.400000	-13178.655000	0.000000	0.000000	0.000000	0.000000	5.160479	-14.857297	8.279224	-0.743868	0.000000	0.000000	-0.000000	-0.000000	2.502640	-0.076300	-0.320460	0.016724	0.977109	-0.102905	-1.000000	-1.000000	-1.000000	-1.000000	-1.000000	-1.000000	-1.000000	146.758621	0.000000	-1.000000	-1.000000	246928.000000	1772311151.934720
-17362.665000	-13847.355000	-18119.970000	-13176.630000	0.000000	0.000000	0.000000	0.000000	8.419696	15.295949	7.526209	-5.736433	0.000000	0.000000	-0.000000	-0.000000	2.502640	-0.076300	-0.320460	0.016724	0.977109	-0.102905	-1.000000	-1.000000	-1.000000	-1.000000	-1.000000	-1.000000	-1.000000	146.758621	0.000000	-1.000000	-1.000000	246929.000000	1772311151.938815
-17368.020000	-13828.005000	-18117.045000	-13166.190000	0.000000	0.000000	0.000000	0.000000	6.001538	35.875414	1.410042	-11.821909	0.000000	0.000000	-0.000000	-0.000000	2.502640	-0.076300	-0.320460	0.016724	0.977109	-0.102905	-1.000000	-1.000000	-1.000000	-1.000000	-1.000000	-1.000000	-1.000000	146.758621	0.000000	-1.000000	-1.000000	246930.000000	1772311151.938818
-17368.065000	-13824.945000	-18116.010000	-13166.730000	0.000000	0.000000	0.000000	0.000000	0.141772	39.426027	-4.973253	-13.162076	0.000000	0.000000	-0.000000	-0.000000	2.502640	-0.076300	-0.320460	0.016724	0.977109	-0.102905	-1.000000	-1.000000	-1.000000	-1.000000	-1.000000	-1.000000	-1.000000	146.758621	0.000000	-1.000000	-1.000000	246931.000000	1772311151.942980
-17354.970000	-13805.370000	-18107.280000	-13173.930000	0.000000	0.000000	0.000000	0.000000	-5.540585	28.840507	-7.616983	-7.993541	0.000000	0.000000	-0.000000	-0.000000	2.502640	-0.076300	-0.320460	0.016724	0.977109	-0.102905	-1.000000	-1.000000	-1.000000	-1.000000	-1.000000	-1.000000	-1.000000	146.758621	0.000000	-1.000000	-1.000000	246932.000000	1772311151.942983
-17340.345000	-13793.670000	-18094.230000	-13170.915000	0.000000	0.000000	0.000000	0.000000	-7.565542	11.976134	-5.622477	0.054077	0.000000	0.000000	-0.000000	-0.000000	2.502640	-0.076300	-0.320460	0.016724	0.977109	-0.102905	-1.000000	-1.000000	-1.000000	-1.000000	-1.000000	-1.000000	-1.000000	146.758621	0.000000	-1.000000	-1.000000	246933.000000	1772311151.946777
-17362.620000	-13832.055000	-18113.040000	-13180.005000	0.000000	0.000000	0.000000	0.000000	-5.390884	-4.546886	-1.081454	6.415198	0.000000	0.000000	-0.000000	-0.000000	2.502640	-0.076300	-0.320460	0.016724	0.977109	-0.102905	-1.000000	-1.000000	-1.000000	-1.000000	-1.000000	-1.000000	-1.000000	146.758621	0.000000	-1.000000	-1.000000	246934.000000	1772311151.946780
-17365.230000	-13864.905000	-18111.465000	-13158.090000	0.000000	0.000000	0.000000	0.000000	-2.412857	-18.722400	2.093068	9.119410	0.000000	0.000000	-0.000000	-0.000000	0.900340	0.076300	-0.305200	0.016540	0.977903	-0.105591	-1.000000	-1.000000	-1.000000	-1.000000	-1.000000	-1.000000	-1.000000	146.758621	0.000000	-1.000000	-1.000000	246935.000000	1772311151.950784
-17383.545000	-13881.150000	-18136.125000	-13180.410000	0.000000	0.000000	0.000000	0.000000	-1.918142	-29.591398	1.390466	8.713500	0.000000	0.000000	-0.000000	-0.000000	0.900340	0.076300	-0.305200	0.016540	0.977903	-0.105591	-1.000000	-1.000000	-1.000000	-1.000000	-1.000000	-1.000000	-1.000000	146.758621	0.000000	-1.000000	-1.000000	246936.000000	1772311151.950787
-17334.315000	-13885.515000	-18099.000000	-13144.455000	0.000000	0.000000	0.000000	0.000000	-2.710503	-33.067526	-1.644630	6.479267	0.000000	0.000000	-0.000000	-0.000000	0.900340	0.076300	-0.305200	0.016540	0.977903	-0.105591	-1.000000	-1.000000	-1.000000	-1.000000	-1.000000	-1.000000	-1.000000	146.758621	0.000000	-1.000000	-1.000000	246937.000000	1772311151.954860
-17359.290000	-13882.410000	-18122.760000	-13167.900000	0.000000	0.000000	0.000000	0.000000	-0.968805	-25.131146	-2.972539	3.729482	0.000000	0.000000	-0.000000	-0.000000	0.900340	0.076300	-0.305200	0.016540	0.977903	-0.105591	-1.000000	-1.000000	-1.000000	-1.000000	-1.000000	-1.000000	-1.000000	146.758621	0.000000	-1.000000	-1.000000	246938.000000	1772311151.954862
-17382.780000	-13874.265000	-18132.615000	-13178.205000	0.000000	0.000000	0.000000	0.000000	2.788498	-7.128107	-1.450279	0.525841	0.000000	0.000000	-0.000000	-0.000000	0.900340	0.076300	-0.305200	0.016540	0.977903	-0.105591	-1.000000	-1.000000	-1.000000	-1.000000	-1.000000	-1.000000	-1.000000	146.758621	0.000000	-1.000000	-1.000000	246939.000000	1772311151.958763
-17339.670000	-13883.895000	-18098.415000	-13149.675000	0.000000	0.000000	0.000000	0.000000	4.603740	13.570705	0.939972	-3.346345	0.000000	0.000000	-0.000000	-0.000000	0.900340	0.076300	-0.305200	0.016540	0.977903	-0.105591	-1.000000	-1.000000	-1.000000	-1.000000	-1.000000	-1.000000	-1.000000	146.758621	0.000000	-1.000000	-1.000000	246940.000000	1772311151.958765
-17341.020000	-13897.755000	-18108.990000	-13157.190000	0.000000	0.000000	0.000000	0.000000	4.685924	27.400507	3.632536	-5.619573	0.000000	0.000000	-0.000000	-0.000000	0.900340	0.076300	-0.305200	0.016540	0.977903	-0.105591	-1.000000	-1.000000	-1.000000	-1.000000	-1.000000	-1.000000	-1.000000	146.758621	0.000000	-1.000000	-1.000000	246941.000000	1772311151.962849
-17395.605000	-13926.915000	-18148.230000	-13192.605000	0.000000	0.000000	0.000000	0.000000	4.164926	28.148031	5.317660	-5.336178	0.000000	0.000000	-0.000000	-0.000000	0.900340	0.076300	-0.305200	0.016540	0.977903	-0.105591	-1.000000	-1.000000	-1.000000	-1.000000	-1.000000	-1.000000	-1.000000	146.758621	0.000000	-1.000000	-1.000000	246942.000000	1772311151.962851
-17410.455000	-13947.930000	-18142.020000	-13189.905000	0.000000	0.000000	0.000000	0.000000	0.102017	16.561145	2.822800	-5.175844	0.000000	0.000000	-0.000000	-0.000000	0.900340	0.076300	-0.305200	0.016540	0.977903	-0.105591	-1.000000	-1.000000	-1.000000	-1.000000	-1.000000	-1.000000	-1.000000	146.758621	0.000000	-1.000000	-1.000000	246943.000000	1772311151.966911
-17389.080000	-13951.800000	-18128.880000	-13177.755000	0.000000	0.000000	0.000000	0.000000	-7.127019	-0.038319	-2.526875	-5.609625	0.000000	0.000000	-0.000000	-0.000000	0.900340	0.076300	-0.305200	0.016540	0.977903	-0.105591	-1.000000	-1.000000	-1.000000	-1.000000	-1.000000	-1.000000	-1.000000	146.758621	0.000000	-1.000000	-1.000000	246944.000000	1772311151.966914
-17369.955000	-13937.760000	-18120.915000	-13166.865000	0.000000	0.000000	0.000000	0.000000	-10.188952	-11.791952	-4.949779	-3.418861	0.000000	0.000000	-0.000000	-0.000000	0.869820	0.000000	-0.106820	0.016296	0.977598	-0.103393	-1.000000	-1.000000	-1.000000	-1.000000	-1.000000	-1.000000	-1.000000	146.758621	0.000000	-1.000000	-1.000000	246945.000000	1772311151.970877
-17350.515000	-13962.015000	-18099.720000	-13145.895000	0.000000	0.000000	0.000000	0.000000	-3.858319	-13.078355	-1.528961	2.861515	0.000000	0.000000	-0.000000	-0.000000	0.869820	0.000000	-0.106820	0.016296	0.977598	-0.103393	-1.000000	-1.000000	-1.000000	-1.000000	-1.000000	-1.000000	-1.000000	146.758621	0.000000	-1.000000	-1.000000	246946.000000	1772311151.970880
-17356.995000	-14000.355000	-18101.655000	-13144.140000	0.000000	0.000000	0.000000	0.000000	8.018793	-7.212305	5.096927	10.399727	0.000000	0.000000	-0.000000	-0.000000	0.869820	0.000000	-0.106820	0.016296	0.977598	-0.103393	-1.000000	-1.000000	-1.000000	-1.000000	-1.000000	-1.000000	-1.000000	146.758621	0.000000	-1.000000	-1.000000	246947.000000	1772311151.974804
-17348.130000	-14030.145000	-18093.465000	-13139.370000	0.000000	0.000000	0.000000	0.000000	16.405008	-2.284643	9.662422	14.293756	0.000000	0.000000	-0.000000	-0.000000	0.869820	0.000000	-0.106820	0.016296	0.977598	-0.103393	-1.000000	-1.000000	-1.000000	-1.000000	-1.000000	-1.000000	-1.000000	146.758621	0.000000	-1.000000	-1.000000	246948.000000	1772311151.974807
-17354.430000	-14067.135000	-18102.195000	-13150.440000	0.000000	0.000000	0.000000	0.000000	15.459650	-2.473665	8.481499	11.277158	0.000000	0.000000	-0.000000	-0.000000	0.869820	0.000000	-0.106820	0.016296	0.977598	-0.103393	-1.000000	-1.000000	-1.000000	-1.000000	-1.000000	-1.000000	-1.000000	146.758621	0.000000	-1.000000	-1.000000	246949.000000	1772311151.981027
-17358.930000	-14053.005000	-18106.380000	-13156.695000	0.000000	0.000000	0.000000	0.000000	6.172070	-4.910715	1.793282	2.109073	0.000000	0.000000	-0.000000	-0.000000	0.869820	0.000000	-0.106820	0.016296	0.977598	-0.103393	-1.000000	-1.000000	-1.000000	-1.000000	-1.000000	-1.000000	-1.000000	146.758621	0.000000	-1.000000	-1.000000	246950.000000	1772311151.981030
-17352.045000	-14025.735000	-18100.530000	-13151.295000	0.000000	0.000000	0.000000	0.000000	-5.834876	-2.925444	-6.713804	-8.634335	0.000000	0.000000	-0.000000	-0.000000	0.869820	0.000000	-0.106820	0.016296	0.977598	-0.103393	-1.000000	-1.000000	-1.000000	-1.000000	-1.000000	-1.000000	-1.000000	146.758621	0.000000	-1.000000	-1.000000	246951.000000	1772311151.982972
-17326.080000	-14013.315000	-18076.095000	-13134.105000	0.000000	0.000000	0.000000	0.000000	-13.689009	6.940449	-11.746394	-14.854277	0.000000	0.000000	-0.000000	-0.000000	0.869820	0.000000	-0.106820	0.016296	0.977598	-0.103393	-1.000000	-1.000000	-1.000000	-1.000000	-1.000000	-1.000000	-1.000000	146.758621	0.000000	-1.000000	-1.000000	246952.000000	1772311151.982975
-17341.695000	-13981.995000	-18091.170000	-13158.855000	0.000000	0.000000	0.000000	0.000000	-13.579461	20.184133	-10.246947	-13.522739	0.000000	0.000000	-0.000000	-0.000000	0.869820	0.000000	-0.106820	0.016296	0.977598	-0.103393	-1.000000	-1.000000	-1.000000	-1.000000	-1.000000	-1.000000	-1.000000	146.758621	0.000000	-1.000000	-1.000000	246953.000000	1772311151.986826
-17364.555000	-13932.180000	-18115.335000	-13182.345000	0.000000	0.000000	0.000000	0.000000	-8.392582	28.913606	-5.037257	-7.910313	0.000000	0.000000	-0.000000	-0.000000	0.869820	0.000000	-0.106820	0.016296	0.977598	-0.103393	-1.000000	-1.000000	-1.000000	-1.000000	-1.000000	-1.000000	-1.000000	146.758621	0.000000	-1.000000	-1.000000	246954.000000	1772311151.986829
-17398.890000	-13926.375000	-18141.930000	-13176.495000	0.000000	0.000000	0.000000	0.000000	-4.720014	28.269035	-2.060863	-3.244135	0.000000	0.000000	-0.000000	-0.000000	2.914660	-0.289940	0.320460	0.015259	0.976377	-0.099914	-1.000000	-1.000000	-1.000000	-1.000000	-1.000000	-1.000000	-1.000000	146.758621	0.000000	-1.000000	-1.000000	246955.000000	1772311151.990882
-17386.065000	-13912.740000	-18123.300000	-13151.565000	0.000000	0.000000	0.000000	0.000000	-5.106749	16.973245	-2.983931	0.129064	0.000000	0.000000	-0.000000	-0.000000	2.914660	-0.289940	0.320460	0.015259	0.976377	-0.099914	-1.000000	-1.000000	-1.000000	-1.000000	-1.000000	-1.000000	-1.000000	146.758621	0.000000	-1.000000	-1.000000	246956.000000	1772311151.990885
-17382.195000	-13903.155000	-18119.655000	-13160.880000	0.000000	0.000000	0.000000	0.000000	-5.362109	-2.300868	-3.302437	4.894063	0.000000	0.000000	-0.000000	-0.000000	2.914660	-0.289940	0.320460	0.015259	0.976377	-0.099914	-1.000000	-1.000000	-1.000000	-1.000000	-1.000000	-1.000000	-1.000000	146.758621	0.000000	-1.000000	-1.000000	246957.000000	1772311151.994985
-17378.055000	-13897.575000	-18108.990000	-13167.225000	0.000000	0.000000	0.000000	0.000000	-0.732446	-22.405448	1.128781	10.092655	0.000000	0.000000	-0.000000	-0.000000	2.914660	-0.289940	0.320460	0.015259	0.976377	-0.099914	-1.000000	-1.000000	-1.000000	-1.000000	-1.000000	-1.000000	-1.000000	146.758621	0.000000	-1.000000	-1.000000	246958.000000	1772311151.994988
-17363.295000	-13919.850000	-18088.515000	-13165.020000	0.000000	0.000000	0.000000	0.000000	8.050848	-35.942506	9.093180	11.791431	0.000000	0.000000	-0.000000	-0.000000	2.914660	-0.289940	0.320460	0.015259	0.976377	-0.099914	-1.000000	-1.000000	-1.000000	-1.000000	-1.000000	-1.000000	-1.000000	146.758621	0.000000	-1.000000	-1.000000	246959.000000	1772311151.998963
-17372.295000	-13908.870000	-18106.695000	-13175.190000	0.000000	0.000000	0.000000	0.000000	15.965195	-39.324187	15.597847	8.502104	0.000000	0.000000	-0.000000	-0.000000	2.914660	-0.289940	0.320460	0.015259	0.976377	-0.099914	-1.000000	-1.000000	-1.000000	-1.000000	-1.000000	-1.000000	-1.000000	146.758621	0.000000	-1.000000	-1.000000	246960.000000	1772311151.998966
-17378.595000	-13896.405000	-18125.190000	-13186.080000	0.000000	0.000000	0.000000	0.000000	17.783850	-31.949924	15.171607	2.003274	0.000000	0.000000	-0.000000	-0.000000	2.914660	-0.289940	0.320460	0.015259	0.976377	-0.099914	-1.000000	-1.000000	-1.000000	-1.000000	-1.000000	-1.000000	-1.000000	146.758621	0.000000	-1.000000	-1.000000	246961.000000	1772311152.003075
-17368.515000	-13871.430000	-18130.680000	-13184.415000	0.000000	0.000000	0.000000	0.000000	11.970934	-15.373796	6.176647	-4.646565	0.000000	0.000000	-0.000000	-0.000000	2.914660	-0.289940	0.320460	0.015259	0.976377	-0.099914	-1.000000	-1.000000	-1.000000	-1.000000	-1.000000	-1.000000	-1.000000	146.758621	0.000000	-1.000000	-1.000000	246962.000000	1772311152.003078
-17378.100000	-13877.145000	-18142.740000	-13187.475000	0.000000	0.000000	0.000000	0.000000	2.053164	5.043169	-6.556837	-8.313270	0.000000	0.000000	-0.000000	-0.000000	2.914660	-0.289940	0.320460	0.015259	0.976377	-0.099914	-1.000000	-1.000000	-1.000000	-1.000000	-1.000000	-1.000000	-1.000000	146.758621	0.000000	-1.000000	-1.000000	246963.000000	1772311152.007044
-17375.085000	-13879.080000	-18135.540000	-13183.470000	0.000000	0.000000	0.000000	0.000000	-6.903816	20.794554	-15.442160	-7.431765	0.000000	0.000000	-0.000000	-0.000000	2.914660	-0.289940	0.320460	0.015259	0.976377	-0.099914	-1.000000	-1.000000	-1.000000	-1.000000	-1.000000	-1.000000	-1.000000	146.758621	0.000000	-1.000000	-1.000000	246964.000000	1772311152.007048
-17355.690000	-13860.000000	-18104.850000	-13160.295000	0.000000	0.000000	0.000000	0.000000	-11.336295	25.869562	-15.206007	-2.607394	0.000000	0.000000	-0.000000	-0.000000	2.838360	-0.213640	-0.320460	0.016724	0.977170	-0.100952	-1.000000	-1.000000	-1.000000	-1.000000	-1.000000	-1.000000	-1.000000	146.758621	0.000000	-1.000000	-1.000000	246965.000000	1772311152.011009
-17345.340000	-13848.705000	-18068.580000	-13137.525000	0.000000	0.000000	0.000000	0.000000	-9.698918	21.341931	-5.115503	4.489213	0.000000	0.000000	-0.000000	-0.000000	2.838360	-0.213640	-0.320460	0.016724	0.977170	-0.100952	-1.000000	-1.000000	-1.000000	-1.000000	-1.000000	-1.000000	-1.000000	146.758621	0.000000	-1.000000	-1.000000	246966.000000	1772311152.011012
-17373.600000	-13855.725000	-18103.140000	-13166.145000	0.000000	0.000000	0.000000	0.000000	-4.244762	12.257722	9.023538	10.449660	0.000000	0.000000	-0.000000	-0.000000	2.838360	-0.213640	-0.320460	0.016724	0.977170	-0.100952	-1.000000	-1.000000	-1.000000	-1.000000	-1.000000	-1.000000	-1.000000	146.758621	0.000000	-1.000000	-1.000000	246967.000000	1772311152.014956
-17390.295000	-13875.615000	-18165.015000	-13191.750000	0.000000	0.000000	0.000000	0.000000	-0.667330	2.007939	15.546413	9.856174	0.000000	0.000000	-0.000000	-0.000000	2.838360	-0.213640	-0.320460	0.016724	0.977170	-0.100952	-1.000000	-1.000000	-1.000000	-1.000000	-1.000000	-1.000000	-1.000000	146.758621	0.000000	-1.000000	-1.000000	246968.000000	1772311152.014960
-17376.840000	-13853.115000	-18152.190000	-13181.535000	0.000000	0.000000	0.000000	0.000000	-1.821248	-7.345164	7.274038	1.008141	0.000000	0.000000	-0.000000	-0.000000	2.838360	-0.213640	-0.320460	0.016724	0.977170	-0.100952	-1.000000	-1.000000	-1.000000	-1.000000	-1.000000	-1.000000	-1.000000	146.758621	0.000000	-1.000000	-1.000000	246969.000000	1772311152.020380
-17380.035000	-13816.035000	-18141.930000	-13178.610000	0.000000	0.000000	0.000000	0.000000	-4.228692	-11.757125	-8.264584	-9.724240	0.000000	0.000000	-0.000000	-0.000000	2.838360	-0.213640	-0.320460	0.016724	0.977170	-0.100952	-1.000000	-1.000000	-1.000000	-1.000000	-1.000000	-1.000000	-1.000000	146.758621	0.000000	-1.000000	-1.000000	246970.000000	1772311152.020382
-17368.380000	-13819.095000	-18132.480000	-13171.860000	0.000000	0.000000	0.000000	0.000000	-3.336946	-8.116800	-16.504454	-14.022719	0.000000	0.000000	-0.000000	-0.000000	2.838360	-0.213640	-0.320460	0.016724	0.977170	-0.100952	-1.000000	-1.000000	-1.000000	-1.000000	-1.000000	-1.000000	-1.000000	146.758621	0.000000	-1.000000	-1.000000	246971.000000	1772311152.023019
-17349.300000	-13828.905000	-18120.015000	-13163.850000	0.000000	0.000000	0.000000	0.000000	1.652691	-0.174504	-11.260033	-9.531556	0.000000	0.000000	-0.000000	-0.000000	2.838360	-0.213640	-0.320460	0.016724	0.977170	-0.100952	-1.000000	-1.000000	-1.000000	-1.000000	-1.000000	-1.000000	-1.000000	146.758621	0.000000	-1.000000	-1.000000	246972.000000	1772311152.023022
-17367.930000	-13806.990000	-18130.590000	-13172.805000	0.000000	0.000000	0.000000	0.000000	7.838962	4.876231	1.910538	-0.365115	0.000000	0.000000	-0.000000	-0.000000	2.838360	-0.213640	-0.320460	0.016724	0.977170	-0.100952	-1.000000	-1.000000	-1.000000	-1.000000	-1.000000	-1.000000	-1.000000	146.758621	0.000000	-1.000000	-1.000000	246973.000000	1772311152.027055
-17402.040000	-13822.965000	-18146.610000	-13185.000000	0.000000	0.000000	0.000000	0.000000	9.825883	4.328817	12.521141	6.871173	0.000000	0.000000	-0.000000	-0.000000	2.838360	-0.213640	-0.320460	0.016724	0.977170	-0.100952	-1.000000	-1.000000	-1.000000	-1.000000	-1.000000	-1.000000	-1.000000	146.758621	0.000000	-1.000000	-1.000000	246974.000000	1772311152.027057
-17392.995000	-13811.760000	-18141.390000	-13181.445000	0.000000	0.000000	0.000000	0.000000	4.446271	0.186483	13.801400	8.097506	0.000000	0.000000	-0.000000	-0.000000	3.189340	0.396760	-0.473060	0.017090	0.976377	-0.100708	-1.000000	-1.000000	-1.000000	-1.000000	-1.000000	-1.000000	-1.000000	146.758621	0.000000	-1.000000	-1.000000	246975.000000	1772311152.032596
-17380.440000	-13808.340000	-18133.290000	-13173.660000	0.000000	0.000000	0.000000	0.000000	-3.994295	-4.115633	7.414678	4.704017	0.000000	0.000000	-0.000000	-0.000000	3.189340	0.396760	-0.473060	0.017090	0.976377	-0.100708	-1.000000	-1.000000	-1.000000	-1.000000	-1.000000	-1.000000	-1.000000	146.758621	0.000000	-1.000000	-1.000000	246976.000000	1772311152.032600
-17374.230000	-13803.615000	-18130.230000	-13170.690000	0.000000	0.000000	0.000000	0.000000	-7.791523	-5.654825	-0.091512	1.032596	0.000000	0.000000	-0.000000	-0.000000	3.189340	0.396760	-0.473060	0.017090	0.976377	-0.100708	-1.000000	-1.000000	-1.000000	-1.000000	-1.000000	-1.000000	-1.000000	146.758621	0.000000	-1.000000	-1.000000	246977.000000	1772311152.035042
-17362.350000	-13850.325000	-18119.340000	-13160.340000	0.000000	0.000000	0.000000	0.000000	-4.270264	-4.752295	-4.001871	-0.208829	0.000000	0.000000	-0.000000	-0.000000	3.189340	0.396760	-0.473060	0.017090	0.976377	-0.100708	-1.000000	-1.000000	-1.000000	-1.000000	-1.000000	-1.000000	-1.000000	146.758621	0.000000	-1.000000	-1.000000	246978.000000	1772311152.035047
-17352.540000	-13888.890000	-18111.465000	-13152.375000	0.000000	0.000000	0.000000	0.000000	3.050499	-5.192719	-3.689575	0.819850	0.000000	0.000000	-0.000000	-0.000000	3.189340	0.396760	-0.473060	0.017090	0.976377	-0.100708	-1.000000	-1.000000	-1.000000	-1.000000	-1.000000	-1.000000	-1.000000	146.758621	0.000000	-1.000000	-1.000000	246979.000000	1772311152.039029
-17333.865000	-13893.390000	-18093.825000	-13137.615000	0.000000	0.000000	0.000000	0.000000	9.083004	-8.540943	-0.952161	2.587729	0.000000	0.000000	-0.000000	-0.000000	3.189340	0.396760	-0.473060	0.017090	0.976377	-0.100708	-1.000000	-1.000000	-1.000000	-1.000000	-1.000000	-1.000000	-1.000000	146.758621	0.000000	-1.000000	-1.000000	246980.000000	1772311152.039032
-17319.915000	-13871.925000	-18079.650000	-13128.840000	0.000000	0.000000	0.000000	0.000000	10.872276	-9.795643	2.047095	3.618221	0.000000	0.000000	-0.000000	-0.000000	3.189340	0.396760	-0.473060	0.017090	0.976377	-0.100708	-1.000000	-1.000000	-1.000000	-1.000000	-1.000000	-1.000000	-1.000000	146.758621	0.000000	-1.000000	-1.000000	246981.000000	1772311152.043164
-17359.155000	-13869.990000	-18112.815000	-13161.195000	0.000000	0.000000	0.000000	0.000000	7.290392	-2.952666	2.902619	2.301467	0.000000	0.000000	-0.000000	-0.000000	3.189340	0.396760	-0.473060	0.017090	0.976377	-0.100708	-1.000000	-1.000000	-1.000000	-1.000000	-1.000000	-1.000000	-1.000000	146.758621	0.000000	-1.000000	-1.000000	246982.000000	1772311152.043167
-17385.435000	-13852.260000	-18137.970000	-13188.240000	0.000000	0.000000	0.000000	0.000000	-2.303148	10.720562	-1.184878	-3.225629	0.000000	0.000000	-0.000000	-0.000000	3.189340	0.396760	-0.473060	0.017090	0.976377	-0.100708	-1.000000	-1.000000	-1.000000	-1.000000	-1.000000	-1.000000	-1.000000	146.758621	0.000000	-1.000000	-1.000000	246983.000000	1772311152.046997
-17353.980000	-13801.005000	-18106.020000	-13156.740000	0.000000	0.000000	0.000000	0.000000	-14.481697	24.257779	-9.059725	-11.197635	0.000000	0.000000	-0.000000	-0.000000	3.189340	0.396760	-0.473060	0.017090	0.976377	-0.100708	-1.000000	-1.000000	-1.000000	-1.000000	-1.000000	-1.000000	-1.000000	146.758621	0.000000	-1.000000	-1.000000	246984.000000	1772311152.047001
-17396.595000	-13766.625000	-18151.965000	-13193.055000	0.000000	0.000000	0.000000	0.000000	-21.230287	31.951634	-14.394144	-15.310046	0.000000	0.000000	-0.000000	-0.000000	4.318580	-0.061040	-0.534100	0.017151	0.975950	-0.100158	-1.000000	-1.000000	-1.000000	-1.000000	-1.000000	-1.000000	-1.000000	146.758621	0.000000	-1.000000	-1.000000	246985.000000	1772311152.051058
-17422.560000	-13764.915000	-18182.340000	-13218.390000	0.000000	0.000000	0.000000	0.000000	-18.983759	30.449313	-13.959410	-12.693517	0.000000	0.000000	-0.000000	-0.000000	4.318580	-0.061040	-0.534100	0.017151	0.975950	-0.100158	-1.000000	-1.000000	-1.000000	-1.000000	-1.000000	-1.000000	-1.000000	146.758621	0.000000	-1.000000	-1.000000	246986.000000	1772311152.051060
-17384.490000	-13745.700000	-18145.260000	-13188.375000	0.000000	0.000000	0.000000	0.000000	-10.468033	18.028714	-9.262745	-5.931693	0.000000	0.000000	-0.000000	-0.000000	4.318580	-0.061040	-0.534100	0.017151	0.975950	-0.100158	-1.000000	-1.000000	-1.000000	-1.000000	-1.000000	-1.000000	-1.000000	146.758621	0.000000	-1.000000	-1.000000	246987.000000	1772311152.055094
-17345.025000	-13742.730000	-18099.540000	-13142.970000	0.000000	0.000000	0.000000	0.000000	2.812704	-2.300593	0.470802	4.019895	0.000000	0.000000	-0.000000	-0.000000	4.318580	-0.061040	-0.534100	0.017151	0.975950	-0.100158	-1.000000	-1.000000	-1.000000	-1.000000	-1.000000	-1.000000	-1.000000	146.758621	0.000000	-1.000000	-1.000000	246988.000000	1772311152.055097
-17351.595000	-13743.270000	-18103.770000	-13148.055000	0.000000	0.000000	0.000000	0.000000	18.830162	-22.825627	15.261241	16.628066	0.000000	0.000000	-0.000000	-0.000000	4.318580	-0.061040	-0.534100	0.017151	0.975950	-0.100158	-1.000000	-1.000000	-1.000000	-1.000000	-1.000000	-1.000000	-1.000000	146.758621	0.000000	-1.000000	-1.000000	246989.000000	1772311152.059085
-17412.705000	-13744.980000	-18163.215000	-13202.235000	0.000000	0.000000	0.000000	0.000000	28.601899	-36.000817	26.405834	24.735130	0.000000	0.000000	-0.000000	-0.000000	4.318580	-0.061040	-0.534100	0.017151	0.975950	-0.100158	-1.000000	-1.000000	-1.000000	-1.000000	-1.000000	-1.000000	-1.000000	146.758621	0.000000	-1.000000	-1.000000	246990.000000	1772311152.059088
-17404.605000	-13748.715000	-18156.060000	-13199.850000	0.000000	0.000000	0.000000	0.000000	22.820441	-37.982176	23.019414	19.479715	0.000000	0.000000	-0.000000	-0.000000	4.318580	-0.061040	-0.534100	0.017151	0.975950	-0.100158	-1.000000	-1.000000	-1.000000	-1.000000	-1.000000	-1.000000	-1.000000	146.758621	0.000000	-1.000000	-1.000000	246991.000000	1772311152.063067
-17369.190000	-13750.965000	-18120.735000	-13165.065000	0.000000	0.000000	0.000000	0.000000	5.292251	-29.387584	7.014633	3.404353	0.000000	0.000000	-0.000000	-0.000000	4.318580	-0.061040	-0.534100	0.017151	0.975950	-0.100158	-1.000000	-1.000000	-1.000000	-1.000000	-1.000000	-1.000000	-1.000000	146.758621	0.000000	-1.000000	-1.000000	246992.000000	1772311152.063070
-17384.760000	-13759.785000	-18139.545000	-13189.320000	0.000000	0.000000	0.000000	0.000000	-9.907607	-14.408861	-8.371006	-10.985069	0.000000	0.000000	-0.000000	-0.000000	4.318580	-0.061040	-0.534100	0.017151	0.975950	-0.100158	-1.000000	-1.000000	-1.000000	-1.000000	-1.000000	-1.000000	-1.000000	146.758621	0.000000	-1.000000	-1.000000	246993.000000	1772311152.068577
-17387.865000	-13733.775000	-18144.270000	-13197.420000	0.000000	0.000000	0.000000	0.000000	-14.763818	1.825249	-14.724844	-16.213895	0.000000	0.000000	-0.000000	-0.000000	4.318580	-0.061040	-0.534100	0.017151	0.975950	-0.100158	-1.000000	-1.000000	-1.000000	-1.000000	-1.000000	-1.000000	-1.000000	146.758621	0.000000	-1.000000	-1.000000	246994.000000	1772311152.068579
-17392.500000	-13678.920000	-18148.455000	-13193.145000	0.000000	0.000000	0.000000	0.000000	-11.878724	16.601569	-13.525132	-13.982239	0.000000	0.000000	-0.000000	-0.000000	3.784480	-0.091560	-0.396760	0.017456	0.977170	-0.101989	-1.000000	-1.000000	-1.000000	-1.000000	-1.000000	-1.000000	-1.000000	146.758621	0.000000	-1.000000	-1.000000	246995.000000	1772311152.071175
-17366.130000	-13650.165000	-18123.930000	-13162.050000	0.000000	0.000000	0.000000	0.000000	-6.104074	28.995342	-8.516465	-7.428720	0.000000	0.000000	-0.000000	-0.000000	3.784480	-0.091560	-0.396760	0.017456	0.977170	-0.101989	-1.000000	-1.000000	-1.000000	-1.000000	-1.000000	-1.000000	-1.000000	146.758621	0.000000	-1.000000	-1.000000	246996.000000	1772311152.071178
-17318.925000	-13662.360000	-18074.385000	-13115.565000	0.000000	0.000000	0.000000	0.000000	1.084527	35.069922	-0.769427	2.445753	0.000000	0.000000	-0.000000	-0.000000	3.784480	-0.091560	-0.396760	0.017456	0.977170	-0.101989	-1.000000	-1.000000	-1.000000	-1.000000	-1.000000	-1.000000	-1.000000	146.758621	0.000000	-1.000000	-1.000000	246997.000000	1772311152.075395
-17322.660000	-13676.220000	-18080.370000	-13134.420000	0.000000	0.000000	0.000000	0.000000	9.120537	28.467695	8.744709	13.058363	0.000000	0.000000	-0.000000	-0.000000	3.784480	-0.091560	-0.396760	0.017456	0.977170	-0.101989	-1.000000	-1.000000	-1.000000	-1.000000	-1.000000	-1.000000	-1.000000	146.758621	0.000000	-1.000000	-1.000000	246998.000000	1772311152.075407
-17390.295000	-13704.570000	-18148.365000	-13210.065000	0.000000	0.000000	0.000000	0.000000	12.612135	8.191350	13.760838	16.348659	0.000000	0.000000	-0.000000	-0.000000	3.784480	-0.091560	-0.396760	0.017456	0.977170	-0.101989	-1.000000	-1.000000	-1.000000	-1.000000	-1.000000	-1.000000	-1.000000	146.758621	0.000000	-1.000000	-1.000000	246999.000000	1772311152.079224
-17404.830000	-13742.055000	-18159.390000	-13219.695000	0.000000	0.000000	0.000000	0.000000	4.616722	-17.969734	6.634688	5.291140	0.000000	0.000000	-0.000000	-0.000000	3.784480	-0.091560	-0.396760	0.017456	0.977170	-0.101989	-1.000000	-1.000000	-1.000000	-1.000000	-1.000000	-1.000000	-1.000000	146.758621	0.000000	-1.000000	-1.000000	247000.000000	1772311152.079228
-17399.610000	-13747.275000	-18150.885000	-13197.420000	0.000000	0.000000	0.000000	0.000000	-11.723677	-37.985148	-9.495843	-13.756791	0.000000	0.000000	-0.000000	-0.000000	3.784480	-0.091560	-0.396760	0.017456	0.977170	-0.101989	-1.000000	-1.000000	-1.000000	-1.000000	-1.000000	-1.000000	-1.000000	146.758621	0.000000	-1.000000	-1.000000	247001.000000	1772311152.083130
-17361.045000	-13745.295000	-18113.580000	-13155.975000	0.000000	0.000000	0.000000	0.000000	-22.608838	-41.804911	-20.567515	-23.901279	0.000000	0.000000	-0.000000	-0.000000	3.784480	-0.091560	-0.396760	0.017456	0.977170	-0.101989	-1.000000	-1.000000	-1.000000	-1.000000	-1.000000	-1.000000	-1.000000	146.758621	0.000000	-1.000000	-1.000000	247002.000000	1772311152.083134
-17333.415000	-13744.890000	-18090.765000	-13137.930000	0.000000	0.000000	0.000000	0.000000	-17.220166	-27.021266	-15.920169	-15.211169	0.000000	0.000000	-0.000000	-0.000000	3.784480	-0.091560	-0.396760	0.017456	0.977170	-0.101989	-1.000000	-1.000000	-1.000000	-1.000000	-1.000000	-1.000000	-1.000000	146.758621	0.000000	-1.000000	-1.000000	247003.000000	1772311152.087299
-17341.110000	-13765.680000	-18101.520000	-13151.880000	0.000000	0.000000	0.000000	0.000000	1.407477	-1.534982	1.146325	5.313416	0.000000	0.000000	-0.000000	-0.000000	3.784480	-0.091560	-0.396760	0.017456	0.977170	-0.101989	-1.000000	-1.000000	-1.000000	-1.000000	-1.000000	-1.000000	-1.000000	146.758621	0.000000	-1.000000	-1.000000	247004.000000	1772311152.087303
-17333.145000	-13787.640000	-18093.600000	-13154.040000	0.000000	0.000000	0.000000	0.000000	19.389809	21.005567	17.220482	21.314186	0.000000	0.000000	-0.000000	-0.000000	2.166920	0.061040	-0.488320	0.016785	0.977292	-0.104004	-1.000000	-1.000000	-1.000000	-1.000000	-1.000000	-1.000000	-1.000000	146.758621	0.000000	-1.000000	-1.000000	247005.000000	1772311152.092618
-17340.930000	-13793.895000	-18100.755000	-13169.700000	0.000000	0.000000	0.000000	0.000000	24.828991	30.643807	21.569018	22.099523	0.000000	0.000000	-0.000000	-0.000000	2.166920	0.061040	-0.488320	0.016785	0.977292	-0.104004	-1.000000	-1.000000	-1.000000	-1.000000	-1.000000	-1.000000	-1.000000	146.758621	0.000000	-1.000000	-1.000000	247006.000000	1772311152.092630
-17366.310000	-13780.665000	-18124.920000	-13182.930000	0.000000	0.000000	0.000000	0.000000	15.774776	27.304129	13.060761	9.247549	0.000000	0.000000	-0.000000	-0.000000	2.166920	0.061040	-0.488320	0.016785	0.977292	-0.104004	-1.000000	-1.000000	-1.000000	-1.000000	-1.000000	-1.000000	-1.000000	146.758621	0.000000	-1.000000	-1.000000	247007.000000	1772311152.095097
-17397.855000	-13749.525000	-18149.085000	-13186.125000	0.000000	0.000000	0.000000	0.000000	-2.012181	18.535666	-2.691850	-7.747636	0.000000	0.000000	-0.000000	-0.000000	2.166920	0.061040	-0.488320	0.016785	0.977292	-0.104004	-1.000000	-1.000000	-1.000000	-1.000000	-1.000000	-1.000000	-1.000000	146.758621	0.000000	-1.000000	-1.000000	247008.000000	1772311152.095099
-17404.830000	-13763.610000	-18153.720000	-13189.095000	0.000000	0.000000	0.000000	0.000000	-19.401617	11.203576	-17.432364	-18.812757	0.000000	0.000000	-0.000000	-0.000000	2.166920	0.061040	-0.488320	0.016785	0.977292	-0.104004	-1.000000	-1.000000	-1.000000	-1.000000	-1.000000	-1.000000	-1.000000	146.758621	0.000000	-1.000000	-1.000000	247009.000000	1772311152.099220
-17382.510000	-13780.980000	-18133.110000	-13172.850000	0.000000	0.000000	0.000000	0.000000	-26.907299	5.336826	-23.016662	-18.694051	0.000000	0.000000	-0.000000	-0.000000	2.166920	0.061040	-0.488320	0.016785	0.977292	-0.104004	-1.000000	-1.000000	-1.000000	-1.000000	-1.000000	-1.000000	-1.000000	146.758621	0.000000	-1.000000	-1.000000	247010.000000	1772311152.099224
-17346.600000	-13768.560000	-18100.980000	-13141.755000	0.000000	0.000000	0.000000	0.000000	-18.956060	-2.153379	-15.180397	-8.185237	0.000000	0.000000	-0.000000	-0.000000	2.166920	0.061040	-0.488320	0.016785	0.977292	-0.104004	-1.000000	-1.000000	-1.000000	-1.000000	-1.000000	-1.000000	-1.000000	146.758621	0.000000	-1.000000	-1.000000	247011.000000	1772311152.103194
-17343.270000	-13729.590000	-18101.655000	-13145.580000	0.000000	0.000000	0.000000	0.000000	1.131125	-9.556340	2.515229	7.017673	0.000000	0.000000	-0.000000	-0.000000	2.166920	0.061040	-0.488320	0.016785	0.977292	-0.104004	-1.000000	-1.000000	-1.000000	-1.000000	-1.000000	-1.000000	-1.000000	146.758621	0.000000	-1.000000	-1.000000	247012.000000	1772311152.103198
-17380.305000	-13730.535000	-18141.795000	-13188.105000	0.000000	0.000000	0.000000	0.000000	20.626233	-11.834364	18.572505	17.449781	0.000000	0.000000	-0.000000	-0.000000	2.166920	0.061040	-0.488320	0.016785	0.977292	-0.104004	-1.000000	-1.000000	-1.000000	-1.000000	-1.000000	-1.000000	-1.000000	146.758621	0.000000	-1.000000	-1.000000	247013.000000	1772311152.107156
-17394.660000	-13766.220000	-18160.965000	-13210.920000	0.000000	0.000000	0.000000	0.000000	26.021491	-9.299773	21.329039	15.071755	0.000000	0.000000	-0.000000	-0.000000	2.166920	0.061040	-0.488320	0.016785	0.977292	-0.104004	-1.000000	-1.000000	-1.000000	-1.000000	-1.000000	-1.000000	-1.000000	146.758621	0.000000	-1.000000	-1.000000	247014.000000	1772311152.107159
-17367.975000	-13769.685000	-18135.495000	-13185.405000	0.000000	0.000000	0.000000	0.000000	15.495969	-7.806384	10.223359	1.935429	0.000000	0.000000	-0.000000	-0.000000	0.900340	-0.061040	-0.900340	0.017151	0.977048	-0.105652	-1.000000	-1.000000	-1.000000	-1.000000	-1.000000	-1.000000	-1.000000	146.758621	0.000000	-1.000000	-1.000000	247015.000000	1772311152.111181
-17360.955000	-13787.325000	-18124.200000	-13173.660000	0.000000	0.000000	0.000000	0.000000	0.071904	-9.942148	-3.460747	-10.056988	0.000000	0.000000	-0.000000	-0.000000	0.900340	-0.061040	-0.900340	0.017151	0.977048	-0.105652	-1.000000	-1.000000	-1.000000	-1.000000	-1.000000	-1.000000	-1.000000	146.758621	0.000000	-1.000000	-1.000000	247016.000000	1772311152.111183
-17356.995000	-13814.820000	-18120.150000	-13168.845000	0.000000	0.000000	0.000000	0.000000	-8.993362	-12.728843	-9.101193	-11.438125	0.000000	0.000000	-0.000000	-0.000000	0.900340	-0.061040	-0.900340	0.017151	0.977048	-0.105652	-1.000000	-1.000000	-1.000000	-1.000000	-1.000000	-1.000000	-1.000000	146.758621	0.000000	-1.000000	-1.000000	247017.000000	1772311152.115232
-17348.895000	-13851.630000	-18113.085000	-13162.230000	0.000000	0.000000	0.000000	0.000000	-9.342738	-13.122383	-5.872672	-3.509298	0.000000	0.000000	-0.000000	-0.000000	0.900340	-0.061040	-0.900340	0.017151	0.977048	-0.105652	-1.000000	-1.000000	-1.000000	-1.000000	-1.000000	-1.000000	-1.000000	146.758621	0.000000	-1.000000	-1.000000	247018.000000	1772311152.115235
-17327.340000	-13875.660000	-18119.970000	-13168.980000	0.000000	0.000000	0.000000	0.000000	-4.636842	-10.447931	0.295473	5.804759	0.000000	0.000000	-0.000000	-0.000000	0.900340	-0.061040	-0.900340	0.017151	0.977048	-0.105652	-1.000000	-1.000000	-1.000000	-1.000000	-1.000000	-1.000000	-1.000000	146.758621	0.000000	-1.000000	-1.000000	247019.000000	1772311152.119232
-17310.645000	-13863.645000	-18106.920000	-13163.400000	0.000000	0.000000	0.000000	0.000000	1.125525	-4.277887	3.788657	9.820152	0.000000	0.000000	-0.000000	-0.000000	0.900340	-0.061040	-0.900340	0.017151	0.977048	-0.105652	-1.000000	-1.000000	-1.000000	-1.000000	-1.000000	-1.000000	-1.000000	146.758621	0.000000	-1.000000	-1.000000	247020.000000	1772311152.119234
-17355.420000	-13815.315000	-18106.470000	-13169.745000	0.000000	0.000000	0.000000	0.000000	4.178830	6.946622	3.171775	7.096830	0.000000	0.000000	-0.000000	-0.000000	0.900340	-0.061040	-0.900340	0.017151	0.977048	-0.105652	-1.000000	-1.000000	-1.000000	-1.000000	-1.000000	-1.000000	-1.000000	146.758621	0.000000	-1.000000	-1.000000	247021.000000	1772311152.123170
-17385.975000	-13811.445000	-18121.410000	-13188.150000	0.000000	0.000000	0.000000	0.000000	0.444209	22.437798	-0.079814	0.219241	0.000000	0.000000	-0.000000	-0.000000	0.900340	-0.061040	-0.900340	0.017151	0.977048	-0.105652	-1.000000	-1.000000	-1.000000	-1.000000	-1.000000	-1.000000	-1.000000	146.758621	0.000000	-1.000000	-1.000000	247022.000000	1772311152.123173
-17367.255000	-13818.015000	-18121.815000	-13175.100000	0.000000	0.000000	0.000000	0.000000	-9.191753	34.678014	-4.337671	-6.936319	0.000000	0.000000	-0.000000	-0.000000	0.900340	-0.061040	-0.900340	0.017151	0.977048	-0.105652	-1.000000	-1.000000	-1.000000	-1.000000	-1.000000	-1.000000	-1.000000	146.758621	0.000000	-1.000000	-1.000000	247023.000000	1772311152.127419
-17315.910000	-13814.235000	-18070.560000	-13126.005000	0.000000	0.000000	0.000000	0.000000	-15.314236	34.142875	-6.759933	-9.438198	0.000000	0.000000	-0.000000	-0.000000	0.900340	-0.061040	-0.900340	0.017151	0.977048	-0.105652	-1.000000	-1.000000	-1.000000	-1.000000	-1.000000	-1.000000	-1.000000	146.758621	0.000000	-1.000000	-1.000000	247024.000000	1772311152.127422
-17335.440000	-13829.265000	-18087.570000	-13137.840000	0.000000	0.000000	0.000000	0.000000	-9.593047	18.922241	-4.062100	-4.215308	0.000000	0.000000	-0.000000	-0.000000	0.396760	0.457800	-1.281840	0.017761	0.976072	-0.104858	-1.000000	-1.000000	-1.000000	-1.000000	-1.000000	-1.000000	-1.000000	146.758621	0.000000	-1.000000	-1.000000	247025.000000	1772311152.131246
-17378.820000	-13842.765000	-18125.415000	-13165.515000	0.000000	0.000000	0.000000	0.000000	3.144413	-4.015717	1.195259	4.047434	0.000000	0.000000	-0.000000	-0.000000	0.396760	0.457800	-1.281840	0.017761	0.976072	-0.104858	-1.000000	-1.000000	-1.000000	-1.000000	-1.000000	-1.000000	-1.000000	146.758621	0.000000	-1.000000	-1.000000	247026.000000	1772311152.131248
-17369.190000	-13856.715000	-18115.920000	-13146.120000	0.000000	0.000000	0.000000	0.000000	10.625610	-24.605685	2.284259	6.977300	0.000000	0.000000	-0.000000	-0.000000	0.396760	0.457800	-1.281840	0.017761	0.976072	-0.104858	-1.000000	-1.000000	-1.000000	-1.000000	-1.000000	-1.000000	-1.000000	146.758621	0.000000	-1.000000	-1.000000	247027.000000	1772311152.135341
-17363.790000	-13879.125000	-18130.005000	-13141.350000	0.000000	0.000000	0.000000	0.000000	8.887269	-35.148065	-1.794915	3.253632	0.000000	0.000000	-0.000000	-0.000000	0.396760	0.457800	-1.281840	0.017761	0.976072	-0.104858	-1.000000	-1.000000	-1.000000	-1.000000	-1.000000	-1.000000	-1.000000	146.758621	0.000000	-1.000000	-1.000000	247028.000000	1772311152.135343
-17353.980000	-13899.915000	-18123.930000	-13148.370000	0.000000	0.000000	0.000000	0.000000	3.941146	-33.448175	-5.856480	-1.999770	0.000000	0.000000	-0.000000	-0.000000	0.396760	0.457800	-1.281840	0.017761	0.976072	-0.104858	-1.000000	-1.000000	-1.000000	-1.000000	-1.000000	-1.000000	-1.000000	146.758621	0.000000	-1.000000	-1.000000	247029.000000	1772311152.139228
-17351.370000	-13905.990000	-18124.110000	-13170.645000	0.000000	0.000000	0.000000	0.000000	1.644116	-22.192899	-5.569811	-5.510680	0.000000	0.000000	-0.000000	-0.000000	0.396760	0.457800	-1.281840	0.017761	0.976072	-0.104858	-1.000000	-1.000000	-1.000000	-1.000000	-1.000000	-1.000000	-1.000000	146.758621	0.000000	-1.000000	-1.000000	247030.000000	1772311152.139231
-17340.930000	-13895.955000	-18127.080000	-13177.620000	0.000000	0.000000	0.000000	0.000000	2.657158	-5.734686	-0.791136	-7.485947	0.000000	0.000000	-0.000000	-0.000000	0.396760	0.457800	-1.281840	0.017761	0.976072	-0.104858	-1.000000	-1.000000	-1.000000	-1.000000	-1.000000	-1.000000	-1.000000	146.758621	0.000000	-1.000000	-1.000000	247031.000000	1772311152.143426
-17340.840000	-13893.165000	-18134.145000	-13181.850000	0.000000	0.000000	0.000000	0.000000	4.438665	11.503502	5.125461	-7.939095	0.000000	0.000000	-0.000000	-0.000000	0.396760	0.457800	-1.281840	0.017761	0.976072	-0.104858	-1.000000	-1.000000	-1.000000	-1.000000	-1.000000	-1.000000	-1.000000	146.758621	0.000000	-1.000000	-1.000000	247032.000000	1772311152.143429
-17333.415000	-13901.265000	-18129.825000	-13177.440000	0.000000	0.000000	0.000000	0.000000	4.445635	24.409578	8.514138	-5.580903	0.000000	0.000000	-0.000000	-0.000000	0.396760	0.457800	-1.281840	0.017761	0.976072	-0.104858	-1.000000	-1.000000	-1.000000	-1.000000	-1.000000	-1.000000	-1.000000	146.758621	0.000000	-1.000000	-1.000000	247033.000000	1772311152.147331
-17333.775000	-13873.275000	-18120.645000	-13175.820000	0.000000	0.000000	0.000000	0.000000	1.933962	28.807245	8.472768	0.005854	0.000000	0.000000	-0.000000	-0.000000	0.396760	0.457800	-1.281840	0.017761	0.976072	-0.104858	-1.000000	-1.000000	-1.000000	-1.000000	-1.000000	-1.000000	-1.000000	146.758621	0.000000	-1.000000	-1.000000	247034.000000	1772311152.147335
-17344.440000	-13853.745000	-18111.735000	-13168.305000	0.000000	0.000000	0.000000	0.000000	-2.274933	24.993498	6.598284	6.973806	0.000000	0.000000	-0.000000	-0.000000	0.076300	0.412020	-1.281840	0.017456	0.976011	-0.104248	-1.000000	-1.000000	-1.000000	-1.000000	-1.000000	-1.000000	-1.000000	146.620690	0.000000	-1.000000	-1.000000	247035.000000	1772311152.151304
-17325.405000	-13822.695000	-18094.995000	-13147.740000	0.000000	0.000000	0.000000	0.000000	-6.438849	16.880550	4.659433	12.565847	0.000000	0.000000	-0.000000	-0.000000	0.076300	0.412020	-1.281840	0.017456	0.976011	-0.104248	-1.000000	-1.000000	-1.000000	-1.000000	-1.000000	-1.000000	-1.000000	146.620690	0.000000	-1.000000	-1.000000	247036.000000	1772311152.151307
-17320.365000	-13784.850000	-18094.275000	-13144.590000	0.000000	0.000000	0.000000	0.000000	-8.003778	8.253000	3.100860	14.862607	0.000000	0.000000	-0.000000	-0.000000	0.076300	0.412020	-1.281840	0.017456	0.976011	-0.104248	-1.000000	-1.000000	-1.000000	-1.000000	-1.000000	-1.000000	-1.000000	146.620690	0.000000	-1.000000	-1.000000	247037.000000	1772311152.155328
-17342.955000	-13744.980000	-18123.120000	-13166.910000	0.000000	0.000000	0.000000	0.000000	-6.167984	1.299787	0.439222	12.282776	0.000000	0.000000	-0.000000	-0.000000	0.076300	0.412020	-1.281840	0.017456	0.976011	-0.104248	-1.000000	-1.000000	-1.000000	-1.000000	-1.000000	-1.000000	-1.000000	146.620690	0.000000	-1.000000	-1.000000	247038.000000	1772311152.155341
-17326.170000	-13739.760000	-18100.620000	-13154.985000	0.000000	0.000000	0.000000	0.000000	-3.230296	-4.060452	-4.661455	4.256563	0.000000	0.000000	-0.000000	-0.000000	0.076300	0.412020	-1.281840	0.017456	0.976011	-0.104248	-1.000000	-1.000000	-1.000000	-1.000000	-1.000000	-1.000000	-1.000000	146.620690	0.000000	-1.000000	-1.000000	247039.000000	1772311152.159907
-17302.365000	-13759.650000	-18072.450000	-13135.410000	0.000000	0.000000	0.000000	0.000000	-0.387573	-10.541069	-9.212811	-5.570763	0.000000	0.000000	-0.000000	-0.000000	0.076300	0.412020	-1.281840	0.017456	0.976011	-0.104248	-1.000000	-1.000000	-1.000000	-1.000000	-1.000000	-1.000000	-1.000000	146.620690	0.000000	-1.000000	-1.000000	247040.000000	1772311152.159938
-17344.440000	-13756.590000	-18119.655000	-13175.055000	0.000000	0.000000	0.000000	0.000000	2.570011	-20.013965	-9.309083	-11.916985	0.000000	0.000000	-0.000000	-0.000000	0.076300	0.412020	-1.281840	0.017456	0.976011	-0.104248	-1.000000	-1.000000	-1.000000	-1.000000	-1.000000	-1.000000	-1.000000	146.620690	0.000000	-1.000000	-1.000000	247041.000000	1772311152.163384
-17409.645000	-13771.305000	-18191.340000	-13231.125000	0.000000	0.000000	0.000000	0.000000	2.216678	-29.251276	-8.176737	-14.923995	0.000000	0.000000	-0.000000	-0.000000	0.076300	0.412020	-1.281840	0.017456	0.976011	-0.104248	-1.000000	-1.000000	-1.000000	-1.000000	-1.000000	-1.000000	-1.000000	146.620690	0.000000	-1.000000	-1.000000	247042.000000	1772311152.163387
-17415.945000	-13792.815000	-18199.530000	-13231.260000	0.000000	0.000000	0.000000	0.000000	-4.780721	-32.515074	-11.437224	-17.599188	0.000000	0.000000	-0.000000	-0.000000	0.076300	0.412020	-1.281840	0.017456	0.976011	-0.104248	-1.000000	-1.000000	-1.000000	-1.000000	-1.000000	-1.000000	-1.000000	146.620690	0.000000	-1.000000	-1.000000	247043.000000	1772311152.167363
-17370.540000	-13770.720000	-18152.145000	-13189.320000	0.000000	0.000000	0.000000	0.000000	-12.317371	-26.537444	-14.914300	-16.873305	0.000000	0.000000	-0.000000	-0.000000	0.076300	0.412020	-1.281840	0.017456	0.976011	-0.104248	-1.000000	-1.000000	-1.000000	-1.000000	-1.000000	-1.000000	-1.000000	146.620690	0.000000	-1.000000	-1.000000	247044.000000	1772311152.167365
-17355.555000	-13729.635000	-18138.870000	-13181.580000	0.000000	0.000000	0.000000	0.000000	-9.179250	-10.770685	-8.102130	-6.439137	0.000000	0.000000	-0.000000	-0.000000	0.183120	0.701960	-0.854560	0.016785	0.976682	-0.102478	-1.000000	-1.000000	-1.000000	-1.000000	-1.000000	-1.000000	-1.000000	146.620690	0.000000	-1.000000	-1.000000	247045.000000	1772311152.172092
-17347.905000	-13723.245000	-18133.380000	-13179.870000	0.000000	0.000000	0.000000	0.000000	6.161868	11.510519	10.062687	11.659530	0.000000	0.000000	-0.000000	-0.000000	0.183120	0.701960	-0.854560	0.016785	0.976682	-0.102478	-1.000000	-1.000000	-1.000000	-1.000000	-1.000000	-1.000000	-1.000000	146.620690	0.000000	-1.000000	-1.000000	247046.000000	1772311152.172095
-17339.130000	-13694.670000	-18123.840000	-13169.610000	0.000000	0.000000	0.000000	0.000000	22.827996	31.442540	28.116985	26.632315	0.000000	0.000000	-0.000000	-0.000000	0.183120	0.701960	-0.854560	0.016785	0.976682	-0.102478	-1.000000	-1.000000	-1.000000	-1.000000	-1.000000	-1.000000	-1.000000	146.620690	0.000000	-1.000000	-1.000000	247047.000000	1772311152.175324
-17306.685000	-13675.320000	-18085.095000	-13123.800000	0.000000	0.000000	0.000000	0.000000	29.609038	39.878709	34.838144	30.478912	0.000000	0.000000	-0.000000	-0.000000	0.183120	0.701960	-0.854560	0.016785	0.976682	-0.102478	-1.000000	-1.000000	-1.000000	-1.000000	-1.000000	-1.000000	-1.000000	146.620690	0.000000	-1.000000	-1.000000	247048.000000	1772311152.175327
-17290.755000	-13635.000000	-18072.720000	-13133.160000	0.000000	0.000000	0.000000	0.000000	24.106636	34.450312	28.392195	23.628162	0.000000	0.000000	-0.000000	-0.000000	0.183120	0.701960	-0.854560	0.016785	0.976682	-0.102478	-1.000000	-1.000000	-1.000000	-1.000000	-1.000000	-1.000000	-1.000000	146.620690	0.000000	-1.000000	-1.000000	247049.000000	1772311152.179305
-17355.915000	-13629.915000	-18140.220000	-13203.090000	0.000000	0.000000	0.000000	0.000000	9.361539	19.447699	12.057622	8.630818	0.000000	0.000000	-0.000000	-0.000000	0.183120	0.701960	-0.854560	0.016785	0.976682	-0.102478	-1.000000	-1.000000	-1.000000	-1.000000	-1.000000	-1.000000	-1.000000	146.620690	0.000000	-1.000000	-1.000000	247050.000000	1772311152.179308
-17405.055000	-13629.420000	-18185.355000	-13225.455000	0.000000	0.000000	0.000000	0.000000	-12.042107	0.728983	-11.506449	-12.917074	0.000000	0.000000	-0.000000	-0.000000	0.183120	0.701960	-0.854560	0.016785	0.976682	-0.102478	-1.000000	-1.000000	-1.000000	-1.000000	-1.000000	-1.000000	-1.000000	146.620690	0.000000	-1.000000	-1.000000	247051.000000	1772311152.183474
-17393.760000	-13596.435000	-18176.040000	-13209.840000	0.000000	0.000000	0.000000	0.000000	-34.012473	-16.388772	-35.524068	-33.419128	0.000000	0.000000	-0.000000	-0.000000	0.183120	0.701960	-0.854560	0.016785	0.976682	-0.102478	-1.000000	-1.000000	-1.000000	-1.000000	-1.000000	-1.000000	-1.000000	146.620690	0.000000	-1.000000	-1.000000	247052.000000	1772311152.183477
-17375.040000	-13569.210000	-18156.150000	-13203.495000	0.000000	0.000000	0.000000	0.000000	-43.710409	-26.086342	-46.384808	-39.868112	0.000000	0.000000	-0.000000	-0.000000	0.183120	0.701960	-0.854560	0.016785	0.976682	-0.102478	-1.000000	-1.000000	-1.000000	-1.000000	-1.000000	-1.000000	-1.000000	146.620690	0.000000	-1.000000	-1.000000	247053.000000	1772311152.189718
-17365.815000	-13577.490000	-18149.130000	-13199.265000	0.000000	0.000000	0.000000	0.000000	-32.169742	-25.406902	-34.987957	-26.705908	0.000000	0.000000	-0.000000	-0.000000	0.183120	0.701960	-0.854560	0.016785	0.976682	-0.102478	-1.000000	-1.000000	-1.000000	-1.000000	-1.000000	-1.000000	-1.000000	146.620690	0.000000	-1.000000	-1.000000	247054.000000	1772311152.189720
-17360.955000	-13594.995000	-18144.765000	-13194.270000	0.000000	0.000000	0.000000	0.000000	-4.901307	-18.361874	-7.184814	-1.796519	0.000000	0.000000	-0.000000	-0.000000	0.686700	0.152600	-0.503580	0.015442	0.977109	-0.100830	-1.000000	-1.000000	-1.000000	-1.000000	-1.000000	-1.000000	-1.000000	146.620690	0.000000	-1.000000	-1.000000	247055.000000	1772311152.192013
-17358.480000	-13601.295000	-18137.790000	-13182.480000	0.000000	0.000000	0.000000	0.000000	22.526704	-11.682134	21.144793	21.213966	0.000000	0.000000	-0.000000	-0.000000	0.686700	0.152600	-0.503580	0.015442	0.977109	-0.100830	-1.000000	-1.000000	-1.000000	-1.000000	-1.000000	-1.000000	-1.000000	146.620690	0.000000	-1.000000	-1.000000	247056.000000	1772311152.192015
-17362.935000	-13632.570000	-18138.645000	-13176.855000	0.000000	0.000000	0.000000	0.000000	36.557321	-8.193405	36.428679	32.594482	0.000000	0.000000	-0.000000	-0.000000	0.686700	0.152600	-0.503580	0.015442	0.977109	-0.100830	-1.000000	-1.000000	-1.000000	-1.000000	-1.000000	-1.000000	-1.000000	146.620690	0.000000	-1.000000	-1.000000	247057.000000	1772311152.199078
-17383.680000	-13612.815000	-18155.070000	-13189.410000	0.000000	0.000000	0.000000	0.000000	32.715874	-5.992411	34.088690	29.779048	0.000000	0.000000	-0.000000	-0.000000	0.686700	0.152600	-0.503580	0.015442	0.977109	-0.100830	-1.000000	-1.000000	-1.000000	-1.000000	-1.000000	-1.000000	-1.000000	146.620690	0.000000	-1.000000	-1.000000	247058.000000	1772311152.199081
-17375.175000	-13585.005000	-18144.675000	-13179.105000	0.000000	0.000000	0.000000	0.000000	15.822097	-0.668563	18.383816	16.185697	0.000000	0.000000	-0.000000	-0.000000	0.686700	0.152600	-0.503580	0.015442	0.977109	-0.100830	-1.000000	-1.000000	-1.000000	-1.000000	-1.000000	-1.000000	-1.000000	146.620690	0.000000	-1.000000	-1.000000	247059.000000	1772311152.201033
-17345.880000	-13565.430000	-18129.510000	-13176.900000	0.000000	0.000000	0.000000	0.000000	-3.056475	10.279118	-0.593434	-0.693324	0.000000	0.000000	-0.000000	-0.000000	0.686700	0.152600	-0.503580	0.015442	0.977109	-0.100830	-1.000000	-1.000000	-1.000000	-1.000000	-1.000000	-1.000000	-1.000000	146.620690	0.000000	-1.000000	-1.000000	247060.000000	1772311152.201036
-17343.495000	-13554.270000	-18126.540000	-13184.190000	0.000000	0.000000	0.000000	0.000000	-13.459243	22.922839	-13.072310	-13.377097	0.000000	0.000000	-0.000000	-0.000000	0.686700	0.152600	-0.503580	0.015442	0.977109	-0.100830	-1.000000	-1.000000	-1.000000	-1.000000	-1.000000	-1.000000	-1.000000	146.620690	0.000000	-1.000000	-1.000000	247061.000000	1772311152.204595
-17356.860000	-13570.245000	-18128.790000	-13175.955000	0.000000	0.000000	0.000000	0.000000	-13.467625	28.945742	-15.936835	-18.458015	0.000000	0.000000	-0.000000	-0.000000	0.686700	0.152600	-0.503580	0.015442	0.977109	-0.100830	-1.000000	-1.000000	-1.000000	-1.000000	-1.000000	-1.000000	-1.000000	146.620690	0.000000	-1.000000	-1.000000	247062.000000	1772311152.204599
-17316.450000	-13596.795000	-18090.720000	-13136.895000	0.000000	0.000000	0.000000	0.000000	-8.307054	22.292067	-11.849076	-15.671050	0.000000	0.000000	-0.000000	-0.000000	0.686700	0.152600	-0.503580	0.015442	0.977109	-0.100830	-1.000000	-1.000000	-1.000000	-1.000000	-1.000000	-1.000000	-1.000000	146.620690	0.000000	-1.000000	-1.000000	247063.000000	1772311152.207695
-17295.840000	-13619.655000	-18070.560000	-13113.945000	0.000000	0.000000	0.000000	0.000000	-1.993261	4.245240	-4.052684	-6.136876	0.000000	0.000000	-0.000000	-0.000000	0.686700	0.152600	-0.503580	0.015442	0.977109	-0.100830	-1.000000	-1.000000	-1.000000	-1.000000	-1.000000	-1.000000	-1.000000	146.620690	0.000000	-1.000000	-1.000000	247064.000000	1772311152.207697
-17315.055000	-13624.470000	-18104.265000	-13161.870000	0.000000	0.000000	0.000000	0.000000	3.389273	-16.238152	3.451683	4.862468	0.000000	0.000000	-0.000000	-0.000000	0.549360	0.000000	-0.686700	0.016113	0.976987	-0.099975	-1.000000	-1.000000	-1.000000	-1.000000	-1.000000	-1.000000	-1.000000	146.620690	0.000000	-1.000000	-1.000000	247065.000000	1772311152.211528
-17328.735000	-13626.045000	-18124.695000	-13195.620000	0.000000	0.000000	0.000000	0.000000	4.090712	-27.956318	4.639147	8.033706	0.000000	0.000000	-0.000000	-0.000000	0.549360	0.000000	-0.686700	0.016113	0.976987	-0.099975	-1.000000	-1.000000	-1.000000	-1.000000	-1.000000	-1.000000	-1.000000	146.620690	0.000000	-1.000000	-1.000000	247066.000000	1772311152.211537
-17332.470000	-13646.430000	-18130.860000	-13211.595000	0.000000	0.000000	0.000000	0.000000	-1.666465	-25.466377	-2.487707	-0.465296	0.000000	0.000000	-0.000000	-0.000000	0.549360	0.000000	-0.686700	0.016113	0.976987	-0.099975	-1.000000	-1.000000	-1.000000	-1.000000	-1.000000	-1.000000	-1.000000	146.620690	0.000000	-1.000000	-1.000000	247067.000000	1772311152.215481
-17334.495000	-13640.715000	-18131.940000	-13202.280000	0.000000	0.000000	0.000000	0.000000	-9.700847	-12.215935	-11.787619	-12.809728	0.000000	0.000000	-0.000000	-0.000000	0.549360	0.000000	-0.686700	0.016113	0.976987	-0.099975	-1.000000	-1.000000	-1.000000	-1.000000	-1.000000	-1.000000	-1.000000	146.620690	0.000000	-1.000000	-1.000000	247068.000000	1772311152.215484
-17338.185000	-13615.740000	-18144.945000	-13196.070000	0.000000	0.000000	0.000000	0.000000	-13.697736	4.556834	-15.227946	-17.041799	0.000000	0.000000	-0.000000	-0.000000	0.549360	0.000000	-0.686700	0.016113	0.976987	-0.099975	-1.000000	-1.000000	-1.000000	-1.000000	-1.000000	-1.000000	-1.000000	146.620690	0.000000	-1.000000	-1.000000	247069.000000	1772311152.219425
-17351.415000	-13594.140000	-18154.530000	-13197.465000	0.000000	0.000000	0.000000	0.000000	-11.055402	19.313085	-10.472093	-8.677161	0.000000	0.000000	-0.000000	-0.000000	0.549360	0.000000	-0.686700	0.016113	0.976987	-0.099975	-1.000000	-1.000000	-1.000000	-1.000000	-1.000000	-1.000000	-1.000000	146.620690	0.000000	-1.000000	-1.000000	247070.000000	1772311152.219428
-17332.740000	-13582.890000	-18134.280000	-13182.075000	0.000000	0.000000	0.000000	0.000000	-3.582692	28.037798	-0.542101	6.711162	0.000000	0.000000	-0.000000	-0.000000	0.549360	0.000000	-0.686700	0.016113	0.976987	-0.099975	-1.000000	-1.000000	-1.000000	-1.000000	-1.000000	-1.000000	-1.000000	146.620690	0.000000	-1.000000	-1.000000	247071.000000	1772311152.225436
-17306.685000	-13563.180000	-18096.030000	-13136.580000	0.000000	0.000000	0.000000	0.000000	6.036912	27.690206	11.131467	20.722910	0.000000	0.000000	-0.000000	-0.000000	0.549360	0.000000	-0.686700	0.016113	0.976987	-0.099975	-1.000000	-1.000000	-1.000000	-1.000000	-1.000000	-1.000000	-1.000000	146.620690	0.000000	-1.000000	-1.000000	247072.000000	1772311152.225438
-17305.470000	-13563.630000	-18087.930000	-13142.790000	0.000000	0.000000	0.000000	0.000000	15.223980	18.135757	21.657855	27.967873	0.000000	0.000000	-0.000000	-0.000000	0.549360	0.000000	-0.686700	0.016113	0.976987	-0.099975	-1.000000	-1.000000	-1.000000	-1.000000	-1.000000	-1.000000	-1.000000	146.620690	0.000000	-1.000000	-1.000000	247073.000000	1772311152.227456
-17404.380000	-13580.190000	-18190.350000	-13236.300000	0.000000	0.000000	0.000000	0.000000	18.113214	2.331662	24.505568	23.546571	0.000000	0.000000	-0.000000	-0.000000	0.549360	0.000000	-0.686700	0.016113	0.976987	-0.099975	-1.000000	-1.000000	-1.000000	-1.000000	-1.000000	-1.000000	-1.000000	146.620690	0.000000	-1.000000	-1.000000	247074.000000	1772311152.227459
-17388.405000	-13585.185000	-18182.880000	-13213.350000	0.000000	0.000000	0.000000	0.000000	8.799164	-14.971296	12.620948	4.925658	0.000000	0.000000	-0.000000	-0.000000	-1.617560	1.052940	-1.449700	0.017334	0.976377	-0.101745	-1.000000	-1.000000	-1.000000	-1.000000	-1.000000	-1.000000	-1.000000	146.620690	0.000000	-1.000000	-1.000000	247075.000000	1772311152.231803
-17335.395000	-13585.860000	-18144.540000	-13168.215000	0.000000	0.000000	0.000000	0.000000	-6.616467	-27.667684	-8.214522	-17.772728	0.000000	0.000000	-0.000000	-0.000000	-1.617560	1.052940	-1.449700	0.017334	0.976377	-0.101745	-1.000000	-1.000000	-1.000000	-1.000000	-1.000000	-1.000000	-1.000000	146.620690	0.000000	-1.000000	-1.000000	247076.000000	1772311152.231805
-17326.800000	-13582.440000	-18125.820000	-13164.750000	0.000000	0.000000	0.000000	0.000000	-12.838398	-30.406640	-20.660185	-27.170565	0.000000	0.000000	-0.000000	-0.000000	-1.617560	1.052940	-1.449700	0.017334	0.976377	-0.101745	-1.000000	-1.000000	-1.000000	-1.000000	-1.000000	-1.000000	-1.000000	146.620690	0.000000	-1.000000	-1.000000	247077.000000	1772311152.235513
-17357.895000	-13618.485000	-18144.180000	-13179.105000	0.000000	0.000000	0.000000	0.000000	-5.307652	-22.878672	-16.066301	-18.592175	0.000000	0.000000	-0.000000	-0.000000	-1.617560	1.052940	-1.449700	0.017334	0.976377	-0.101745	-1.000000	-1.000000	-1.000000	-1.000000	-1.000000	-1.000000	-1.000000	146.620690	0.000000	-1.000000	-1.000000	247078.000000	1772311152.235515
-17351.505000	-13651.335000	-18132.840000	-13161.825000	0.000000	0.000000	0.000000	0.000000	5.464157	-11.028749	-2.242952	-2.670003	0.000000	0.000000	-0.000000	-0.000000	-1.617560	1.052940	-1.449700	0.017334	0.976377	-0.101745	-1.000000	-1.000000	-1.000000	-1.000000	-1.000000	-1.000000	-1.000000	146.620690	0.000000	-1.000000	-1.000000	247079.000000	1772311152.239485
-17326.935000	-13690.620000	-18099.765000	-13156.245000	0.000000	0.000000	0.000000	0.000000	9.919090	-1.915866	9.466704	9.294084	0.000000	0.000000	-0.000000	-0.000000	-1.617560	1.052940	-1.449700	0.017334	0.976377	-0.101745	-1.000000	-1.000000	-1.000000	-1.000000	-1.000000	-1.000000	-1.000000	146.620690	0.000000	-1.000000	-1.000000	247080.000000	1772311152.239488
-17319.915000	-13719.780000	-18094.950000	-13171.185000	0.000000	0.000000	0.000000	0.000000	8.291379	2.111184	14.564597	12.894290	0.000000	0.000000	-0.000000	-0.000000	-1.617560	1.052940	-1.449700	0.017334	0.976377	-0.101745	-1.000000	-1.000000	-1.000000	-1.000000	-1.000000	-1.000000	-1.000000	146.620690	0.000000	-1.000000	-1.000000	247081.000000	1772311152.243577
-17315.865000	-13717.305000	-18086.130000	-13170.780000	0.000000	0.000000	0.000000	0.000000	4.462581	4.058678	13.121299	8.619527	0.000000	0.000000	-0.000000	-0.000000	-1.617560	1.052940	-1.449700	0.017334	0.976377	-0.101745	-1.000000	-1.000000	-1.000000	-1.000000	-1.000000	-1.000000	-1.000000	146.620690	0.000000	-1.000000	-1.000000	247082.000000	1772311152.243580
-17301.330000	-13702.185000	-18076.500000	-13180.860000	0.000000	0.000000	0.000000	0.000000	0.402792	8.871488	6.447494	0.138635	0.000000	0.000000	-0.000000	-0.000000	-1.617560	1.052940	-1.449700	0.017334	0.976377	-0.101745	-1.000000	-1.000000	-1.000000	-1.000000	-1.000000	-1.000000	-1.000000	146.620690	0.000000	-1.000000	-1.000000	247083.000000	1772311152.247498
-17300.565000	-13686.885000	-18133.290000	-13187.655000	0.000000	0.000000	0.000000	0.000000	-3.134464	18.322551	-3.622868	-7.529077	0.000000	0.000000	-0.000000	-0.000000	-1.617560	1.052940	-1.449700	0.017334	0.976377	-0.101745	-1.000000	-1.000000	-1.000000	-1.000000	-1.000000	-1.000000	-1.000000	146.620690	0.000000	-1.000000	-1.000000	247084.000000	1772311152.247501
-17356.050000	-13682.745000	-18175.140000	-13197.015000	0.000000	0.000000	0.000000	0.000000	-6.825998	28.152375	-16.010285	-10.978843	0.000000	0.000000	-0.000000	-0.000000	-4.272800	0.946120	-0.763000	0.016235	0.978269	-0.103576	-1.000000	-1.000000	-1.000000	-1.000000	-1.000000	-1.000000	-1.000000	146.620690	0.000000	-1.000000	-1.000000	247085.000000	1772311152.251705
-17389.035000	-13640.445000	-18199.620000	-13216.725000	0.000000	0.000000	0.000000	0.000000	-12.860484	31.807415	-27.785493	-9.778278	0.000000	0.000000	-0.000000	-0.000000	-4.272800	0.946120	-0.763000	0.016235	0.978269	-0.103576	-1.000000	-1.000000	-1.000000	-1.000000	-1.000000	-1.000000	-1.000000	146.620690	0.000000	-1.000000	-1.000000	247086.000000	1772311152.251708
-17353.395000	-13624.380000	-18176.445000	-13199.220000	0.000000	0.000000	0.000000	0.000000	-19.184917	26.605123	-31.323923	-5.292266	0.000000	0.000000	-0.000000	-0.000000	-4.272800	0.946120	-0.763000	0.016235	0.978269	-0.103576	-1.000000	-1.000000	-1.000000	-1.000000	-1.000000	-1.000000	-1.000000	146.620690	0.000000	-1.000000	-1.000000	247087.000000	1772311152.255562
-17317.890000	-13627.530000	-18135.360000	-13167.045000	0.000000	0.000000	0.000000	0.000000	-17.223220	13.885953	-19.226341	1.930999	0.000000	0.000000	-0.000000	-0.000000	-4.272800	0.946120	-0.763000	0.016235	0.978269	-0.103576	-1.000000	-1.000000	-1.000000	-1.000000	-1.000000	-1.000000	-1.000000	146.620690	0.000000	-1.000000	-1.000000	247088.000000	1772311152.255565
-17265.465000	-13604.895000	-18142.965000	-13160.655000	0.000000	0.000000	0.000000	0.000000	-1.558732	-3.341104	6.498174	11.268684	0.000000	0.000000	-0.000000	-0.000000	-4.272800	0.946120	-0.763000	0.016235	0.978269	-0.103576	-1.000000	-1.000000	-1.000000	-1.000000	-1.000000	-1.000000	-1.000000	146.620690	0.000000	-1.000000	-1.000000	247089.000000	1772311152.259619
-17249.805000	-13625.550000	-18149.310000	-13157.865000	0.000000	0.000000	0.000000	0.000000	21.404071	-20.266435	31.945582	18.622672	0.000000	0.000000	-0.000000	-0.000000	-4.272800	0.946120	-0.763000	0.016235	0.978269	-0.103576	-1.000000	-1.000000	-1.000000	-1.000000	-1.000000	-1.000000	-1.000000	146.620690	0.000000	-1.000000	-1.000000	247090.000000	1772311152.259621
-17216.955000	-13659.840000	-18117.405000	-13128.030000	0.000000	0.000000	0.000000	0.000000	37.660367	-32.620418	42.517537	19.068348	0.000000	0.000000	-0.000000	-0.000000	-4.272800	0.946120	-0.763000	0.016235	0.978269	-0.103576	-1.000000	-1.000000	-1.000000	-1.000000	-1.000000	-1.000000	-1.000000	146.620690	0.000000	-1.000000	-1.000000	247091.000000	1772311152.263598
-17241.660000	-13672.080000	-18109.620000	-13119.705000	0.000000	0.000000	0.000000	0.000000	36.381662	-38.492247	35.373925	12.406879	0.000000	0.000000	-0.000000	-0.000000	-4.272800	0.946120	-0.763000	0.016235	0.978269	-0.103576	-1.000000	-1.000000	-1.000000	-1.000000	-1.000000	-1.000000	-1.000000	146.620690	0.000000	-1.000000	-1.000000	247092.000000	1772311152.263601
-17321.535000	-13680.855000	-18101.565000	-13129.875000	0.000000	0.000000	0.000000	0.000000	15.221421	-35.978818	17.566554	1.899966	0.000000	0.000000	-0.000000	-0.000000	-4.272800	0.946120	-0.763000	0.016235	0.978269	-0.103576	-1.000000	-1.000000	-1.000000	-1.000000	-1.000000	-1.000000	-1.000000	146.620690	0.000000	-1.000000	-1.000000	247093.000000	1772311152.267656
-17454.330000	-13688.730000	-18125.235000	-13160.385000	0.000000	0.000000	0.000000	0.000000	-20.825462	-23.819009	-2.839916	-10.019708	0.000000	0.000000	-0.000000	-0.000000	-4.272800	0.946120	-0.763000	0.016235	0.978269	-0.103576	-1.000000	-1.000000	-1.000000	-1.000000	-1.000000	-1.000000	-1.000000	146.620690	0.000000	-1.000000	-1.000000	247094.000000	1772311152.267659
-17567.370000	-13678.605000	-18189.855000	-13230.630000	0.000000	0.000000	0.000000	0.000000	-59.882570	-4.539971	-21.433642	-22.302860	0.000000	0.000000	-0.000000	-0.000000	0.167860	0.335720	0.717220	0.013855	0.977537	-0.094665	-1.000000	-1.000000	-1.000000	-1.000000	-1.000000	-1.000000	-1.000000	146.620690	0.000000	-1.000000	-1.000000	247095.000000	1772311152.271663
-17456.355000	-13693.230000	-18131.220000	-13184.820000	0.000000	0.000000	0.000000	0.000000	-80.715435	15.600663	-34.596419	-31.528873	0.000000	0.000000	-0.000000	-0.000000	0.167860	0.335720	0.717220	0.013855	0.977537	-0.094665	-1.000000	-1.000000	-1.000000	-1.000000	-1.000000	-1.000000	-1.000000	146.620690	0.000000	-1.000000	-1.000000	247096.000000	1772311152.271666
-17386.830000	-13713.615000	-18145.845000	-13214.025000	0.000000	0.000000	0.000000	0.000000	-59.776125	28.907071	-35.547338	-30.225436	0.000000	0.000000	-0.000000	-0.000000	0.167860	0.335720	0.717220	0.013855	0.977537	-0.094665	-1.000000	-1.000000	-1.000000	-1.000000	-1.000000	-1.000000	-1.000000	146.620690	0.000000	-1.000000	-1.000000	247097.000000	1772311152.275692
-17374.185000	-13748.985000	-18144.090000	-13224.420000	0.000000	0.000000	0.000000	0.000000	2.920112	29.839978	-21.666806	-15.550745	0.000000	0.000000	-0.000000	-0.000000	0.167860	0.335720	0.717220	0.013855	0.977537	-0.094665	-1.000000	-1.000000	-1.000000	-1.000000	-1.000000	-1.000000	-1.000000	146.620690	0.000000	-1.000000	-1.000000	247098.000000	1772311152.275695
-17369.730000	-13789.710000	-18130.815000	-13194.945000	0.000000	0.000000	0.000000	0.000000	72.382634	18.545437	-0.541328	5.728853	0.000000	0.000000	-0.000000	-0.000000	0.167860	0.335720	0.717220	0.013855	0.977537	-0.094665	-1.000000	-1.000000	-1.000000	-1.000000	-1.000000	-1.000000	-1.000000	146.620690	0.000000	-1.000000	-1.000000	247099.000000	1772311152.279666
-17362.035000	-13790.745000	-18110.610000	-13160.790000	0.000000	0.000000	0.000000	0.000000	107.035975	1.665671	17.716289	25.376344	0.000000	0.000000	-0.000000	-0.000000	0.167860	0.335720	0.717220	0.013855	0.977537	-0.094665	-1.000000	-1.000000	-1.000000	-1.000000	-1.000000	-1.000000	-1.000000	146.620690	0.000000	-1.000000	-1.000000	247100.000000	1772311152.279668
-17299.755000	-13771.080000	-18041.085000	-13105.845000	0.000000	0.000000	0.000000	0.000000	92.460406	-10.218683	28.358703	38.776033	0.000000	0.000000	-0.000000	-0.000000	0.167860	0.335720	0.717220	0.013855	0.977537	-0.094665	-1.000000	-1.000000	-1.000000	-1.000000	-1.000000	-1.000000	-1.000000	146.620690	0.000000	-1.000000	-1.000000	247101.000000	1772311152.283646
-17308.440000	-13755.375000	-18051.615000	-13130.955000	0.000000	0.000000	0.000000	0.000000	44.850605	-9.438211	31.076651	42.062700	0.000000	0.000000	-0.000000	-0.000000	0.167860	0.335720	0.717220	0.013855	0.977537	-0.094665	-1.000000	-1.000000	-1.000000	-1.000000	-1.000000	-1.000000	-1.000000	146.620690	0.000000	-1.000000	-1.000000	247102.000000	1772311152.283649
-17427.960000	-13754.565000	-18158.670000	-13207.905000	0.000000	0.000000	0.000000	0.000000	-11.768545	2.010721	22.831265	29.638644	0.000000	0.000000	-0.000000	-0.000000	0.167860	0.335720	0.717220	0.013855	0.977537	-0.094665	-1.000000	-1.000000	-1.000000	-1.000000	-1.000000	-1.000000	-1.000000	146.620690	0.000000	-1.000000	-1.000000	247103.000000	1772311152.287629
-17432.010000	-13724.865000	-18147.105000	-13157.955000	0.000000	0.000000	0.000000	0.000000	-61.390202	14.636662	0.091707	1.457784	0.000000	0.000000	-0.000000	-0.000000	0.167860	0.335720	0.717220	0.013855	0.977537	-0.094665	-1.000000	-1.000000	-1.000000	-1.000000	-1.000000	-1.000000	-1.000000	146.620690	0.000000	-1.000000	-1.000000	247104.000000	1772311152.287631
-17399.700000	-13701.195000	-18112.095000	-13093.425000	0.000000	0.000000	0.000000	0.000000	-89.176083	20.472282	-27.024109	-26.915546	0.000000	0.000000	-0.000000	-0.000000	6.073480	0.274680	0.930860	0.014709	0.975339	-0.087646	-1.000000	-1.000000	-1.000000	-1.000000	-1.000000	-1.000000	-1.000000	146.620690	0.000000	-1.000000	-1.000000	247105.000000	1772311152.291747
-17369.415000	-13720.860000	-18087.930000	-13053.780000	0.000000	0.000000	0.000000	0.000000	-81.207730	16.875318	-38.391425	-35.355408	0.000000	0.000000	-0.000000	-0.000000	6.073480	0.274680	0.930860	0.014709	0.975339	-0.087646	-1.000000	-1.000000	-1.000000	-1.000000	-1.000000	-1.000000	-1.000000	146.620690	0.000000	-1.000000	-1.000000	247106.000000	1772311152.291749
-17415.765000	-13736.160000	-18166.860000	-13143.555000	0.000000	0.000000	0.000000	0.000000	-41.149047	4.255774	-27.399296	-22.912833	0.000000	0.000000	-0.000000	-0.000000	6.073480	0.274680	0.930860	0.014709	0.975339	-0.087646	-1.000000	-1.000000	-1.000000	-1.000000	-1.000000	-1.000000	-1.000000	146.620690	0.000000	-1.000000	-1.000000	247107.000000	1772311152.297413
-17418.825000	-13692.555000	-18202.320000	-13221.090000	0.000000	0.000000	0.000000	0.000000	7.010168	-12.554870	-8.166774	-9.544644	0.000000	0.000000	-0.000000	-0.000000	6.073480	0.274680	0.930860	0.014709	0.975339	-0.087646	-1.000000	-1.000000	-1.000000	-1.000000	-1.000000	-1.000000	-1.000000	146.620690	0.000000	-1.000000	-1.000000	247108.000000	1772311152.297416
-17292.465000	-13655.610000	-18098.550000	-13163.895000	0.000000	0.000000	0.000000	0.000000	41.519399	-23.295203	5.739475	-9.694229	0.000000	0.000000	-0.000000	-0.000000	6.073480	0.274680	0.930860	0.014709	0.975339	-0.087646	-1.000000	-1.000000	-1.000000	-1.000000	-1.000000	-1.000000	-1.000000	146.620690	0.000000	-1.000000	-1.000000	247109.000000	1772311152.299656
-17261.370000	-13641.705000	-18056.340000	-13163.445000	0.000000	0.000000	0.000000	0.000000	58.740144	-20.878841	17.050602	-14.592941	0.000000	0.000000	-0.000000	-0.000000	6.073480	0.274680	0.930860	0.014709	0.975339	-0.087646	-1.000000	-1.000000	-1.000000	-1.000000	-1.000000	-1.000000	-1.000000	146.620690	0.000000	-1.000000	-1.000000	247110.000000	1772311152.299659
-17375.580000	-13672.440000	-18144.855000	-13261.320000	0.000000	0.000000	0.000000	0.000000	58.703790	-9.915502	28.530092	-11.190807	0.000000	0.000000	-0.000000	-0.000000	6.073480	0.274680	0.930860	0.014709	0.975339	-0.087646	-1.000000	-1.000000	-1.000000	-1.000000	-1.000000	-1.000000	-1.000000	146.620690	0.000000	-1.000000	-1.000000	247111.000000	1772311152.303702
-17386.515000	-13694.265000	-18104.490000	-13185.090000	0.000000	0.000000	0.000000	0.000000	35.097573	-2.002253	30.289155	-0.638152	0.000000	0.000000	-0.000000	-0.000000	6.073480	0.274680	0.930860	0.014709	0.975339	-0.087646	-1.000000	-1.000000	-1.000000	-1.000000	-1.000000	-1.000000	-1.000000	146.620690	0.000000	-1.000000	-1.000000	247112.000000	1772311152.303705
-17369.010000	-13705.605000	-18088.155000	-13187.205000	0.000000	0.000000	0.000000	0.000000	-6.252000	-3.287469	17.472359	12.370101	0.000000	0.000000	-0.000000	-0.000000	6.073480	0.274680	0.930860	0.014709	0.975339	-0.087646	-1.000000	-1.000000	-1.000000	-1.000000	-1.000000	-1.000000	-1.000000	146.620690	0.000000	-1.000000	-1.000000	247113.000000	1772311152.307659
-17429.040000	-13710.375000	-18153.315000	-13271.265000	0.000000	0.000000	0.000000	0.000000	-42.575384	-9.399593	-1.682230	23.777564	0.000000	0.000000	-0.000000	-0.000000	6.073480	0.274680	0.930860	0.014709	0.975339	-0.087646	-1.000000	-1.000000	-1.000000	-1.000000	-1.000000	-1.000000	-1.000000	146.620690	0.000000	-1.000000	-1.000000	247114.000000	1772311152.307662
-17349.705000	-13722.345000	-18077.085000	-13174.695000	0.000000	0.000000	0.000000	0.000000	-54.944746	-12.056063	-17.713911	26.800775	0.000000	0.000000	-0.000000	-0.000000	2.121140	1.190280	0.595140	0.016235	0.977781	-0.096191	-1.000000	-1.000000	-1.000000	-1.000000	-1.000000	-1.000000	-1.000000	146.620690	0.000000	-1.000000	-1.000000	247115.000000	1772311152.311672
-17385.480000	-13717.800000	-18177.570000	-13232.340000	0.000000	0.000000	0.000000	0.000000	-39.830019	-7.211652	-25.012491	21.151077	0.000000	0.000000	-0.000000	-0.000000	2.121140	1.190280	0.595140	0.016235	0.977781	-0.096191	-1.000000	-1.000000	-1.000000	-1.000000	-1.000000	-1.000000	-1.000000	146.620690	0.000000	-1.000000	-1.000000	247116.000000	1772311152.311675
-17283.465000	-13701.870000	-18181.530000	-13151.880000	0.000000	0.000000	0.000000	0.000000	-7.168144	3.621727	-24.303286	12.789373	0.000000	0.000000	-0.000000	-0.000000	2.121140	1.190280	0.595140	0.016235	0.977781	-0.096191	-1.000000	-1.000000	-1.000000	-1.000000	-1.000000	-1.000000	-1.000000	146.620690	0.000000	-1.000000	-1.000000	247117.000000	1772311152.315746
-17252.055000	-13679.280000	-18216.720000	-13121.280000	0.000000	0.000000	0.000000	0.000000	27.438779	16.194275	-20.119518	6.751817	0.000000	0.000000	-0.000000	-0.000000	2.121140	1.190280	0.595140	0.016235	0.977781	-0.096191	-1.000000	-1.000000	-1.000000	-1.000000	-1.000000	-1.000000	-1.000000	146.620690	0.000000	-1.000000	-1.000000	247118.000000	1772311152.315750
-17463.420000	-13686.795000	-18446.580000	-13293.945000	0.000000	0.000000	0.000000	0.000000	45.674332	25.170684	-17.208804	1.430348	0.000000	0.000000	-0.000000	-0.000000	2.121140	1.190280	0.595140	0.016235	0.977781	-0.096191	-1.000000	-1.000000	-1.000000	-1.000000	-1.000000	-1.000000	-1.000000	146.620690	0.000000	-1.000000	-1.000000	247119.000000	1772311152.319773
-17429.130000	-13695.390000	-18376.650000	-13204.215000	0.000000	0.000000	0.000000	0.000000	31.520012	25.310951	-19.209119	-10.953634	0.000000	0.000000	-0.000000	-0.000000	2.121140	1.190280	0.595140	0.016235	0.977781	-0.096191	-1.000000	-1.000000	-1.000000	-1.000000	-1.000000	-1.000000	-1.000000	146.620690	0.000000	-1.000000	-1.000000	247120.000000	1772311152.319776
-17380.485000	-13725.855000	-18186.750000	-13092.120000	0.000000	0.000000	0.000000	0.000000	-5.288983	14.606767	-13.754755	-24.328604	0.000000	0.000000	-0.000000	-0.000000	2.121140	1.190280	0.595140	0.016235	0.977781	-0.096191	-1.000000	-1.000000	-1.000000	-1.000000	-1.000000	-1.000000	-1.000000	146.620690	0.000000	-1.000000	-1.000000	247121.000000	1772311152.326049
-17509.680000	-13743.855000	-18158.805000	-13135.545000	0.000000	0.000000	0.000000	0.000000	-34.048943	-3.246017	18.725528	-21.461454	0.000000	0.000000	-0.000000	-0.000000	2.121140	1.190280	0.595140	0.016235	0.977781	-0.096191	-1.000000	-1.000000	-1.000000	-1.000000	-1.000000	-1.000000	-1.000000	146.620690	0.000000	-1.000000	-1.000000	247122.000000	1772311152.326052
-17537.580000	-13734.945000	-18140.130000	-13172.670000	0.000000	0.000000	0.000000	0.000000	-40.489434	-19.651528	67.237131	-4.938604	0.000000	0.000000	-0.000000	-0.000000	2.121140	1.190280	0.595140	0.016235	0.977781	-0.096191	-1.000000	-1.000000	-1.000000	-1.000000	-1.000000	-1.000000	-1.000000	146.620690	0.000000	-1.000000	-1.000000	247123.000000	1772311152.327789
-17534.430000	-13729.590000	-18185.490000	-13241.520000	0.000000	0.000000	0.000000	0.000000	-30.037772	-25.555317	92.959359	4.759915	0.000000	0.000000	-0.000000	-0.000000	2.121140	1.190280	0.595140	0.016235	0.977781	-0.096191	-1.000000	-1.000000	-1.000000	-1.000000	-1.000000	-1.000000	-1.000000	146.620690	0.000000	-1.000000	-1.000000	247124.000000	1772311152.327791
-17447.580000	-13709.565000	-18127.080000	-13219.740000	0.000000	0.000000	0.000000	0.000000	-7.065657	-17.782702	71.876451	-1.877407	0.000000	0.000000	-0.000000	-0.000000	-6.561800	5.203660	5.051060	0.026062	0.986753	-0.116272	-1.000000	-1.000000	-1.000000	-1.000000	-1.000000	-1.000000	-1.000000	146.620690	0.000000	-1.000000	-1.000000	247125.000000	1772311152.331757
-17401.950000	-13686.930000	-18074.745000	-13227.300000	0.000000	0.000000	0.000000	0.000000	25.595877	-1.055950	17.714326	-14.156349	0.000000	0.000000	-0.000000	-0.000000	-6.561800	5.203660	5.051060	0.026062	0.986753	-0.116272	-1.000000	-1.000000	-1.000000	-1.000000	-1.000000	-1.000000	-1.000000	146.620690	0.000000	-1.000000	-1.000000	247126.000000	1772311152.331759
-17444.790000	-13667.445000	-18071.910000	-13224.555000	0.000000	0.000000	0.000000	0.000000	55.357687	15.836823	-35.876723	-16.864478	0.000000	0.000000	-0.000000	-0.000000	-6.561800	5.203660	5.051060	0.026062	0.986753	-0.116272	-1.000000	-1.000000	-1.000000	-1.000000	-1.000000	-1.000000	-1.000000	146.620690	0.000000	-1.000000	-1.000000	247127.000000	1772311152.335728
-17462.565000	-13651.335000	-18123.075000	-13260.375000	0.000000	0.000000	0.000000	0.000000	62.286538	24.991904	-67.209483	-6.830738	0.000000	0.000000	-0.000000	-0.000000	-6.561800	5.203660	5.051060	0.026062	0.986753	-0.116272	-1.000000	-1.000000	-1.000000	-1.000000	-1.000000	-1.000000	-1.000000	146.620690	0.000000	-1.000000	-1.000000	247128.000000	1772311152.335730
-17366.940000	-13643.505000	-18083.610000	-13239.990000	0.000000	0.000000	0.000000	0.000000	40.179445	22.815608	-74.411110	7.909064	0.000000	0.000000	-0.000000	-0.000000	-6.561800	5.203660	5.051060	0.026062	0.986753	-0.116272	-1.000000	-1.000000	-1.000000	-1.000000	-1.000000	-1.000000	-1.000000	146.620690	0.000000	-1.000000	-1.000000	247129.000000	1772311152.339920
-17311.680000	-13636.170000	-18132.300000	-13211.415000	0.000000	0.000000	0.000000	0.000000	6.748306	11.066677	-62.802399	19.754409	0.000000	0.000000	-0.000000	-0.000000	-6.561800	5.203660	5.051060	0.026062	0.986753	-0.116272	-1.000000	-1.000000	-1.000000	-1.000000	-1.000000	-1.000000	-1.000000	146.620690	0.000000	-1.000000	-1.000000	247130.000000	1772311152.339923
-17303.985000	-13640.220000	-18252.810000	-13174.200000	0.000000	0.000000	0.000000	0.000000	-16.989582	-4.733015	-41.560714	26.835794	0.000000	0.000000	-0.000000	-0.000000	-6.561800	5.203660	5.051060	0.026062	0.986753	-0.116272	-1.000000	-1.000000	-1.000000	-1.000000	-1.000000	-1.000000	-1.000000	146.620690	0.000000	-1.000000	-1.000000	247131.000000	1772311152.343807
-17345.520000	-13643.820000	-18479.340000	-13254.255000	0.000000	0.000000	0.000000	0.000000	-27.928440	-18.374803	-26.129653	27.164423	0.000000	0.000000	-0.000000	-0.000000	-6.561800	5.203660	5.051060	0.026062	0.986753	-0.116272	-1.000000	-1.000000	-1.000000	-1.000000	-1.000000	-1.000000	-1.000000	146.620690	0.000000	-1.000000	-1.000000	247132.000000	1772311152.343833
-17349.345000	-13644.720000	-18531.360000	-13261.770000	0.000000	0.000000	0.000000	0.000000	-34.795327	-25.379695	-25.256856	15.844300	0.000000	0.000000	-0.000000	-0.000000	-6.561800	5.203660	5.051060	0.026062	0.986753	-0.116272	-1.000000	-1.000000	-1.000000	-1.000000	-1.000000	-1.000000	-1.000000	146.620690	0.000000	-1.000000	-1.000000	247133.000000	1772311152.347991
-17345.340000	-13665.915000	-18555.525000	-13205.340000	0.000000	0.000000	0.000000	0.000000	-40.702837	-24.349306	-25.650393	-4.259971	0.000000	0.000000	-0.000000	-0.000000	-6.561800	5.203660	5.051060	0.026062	0.986753	-0.116272	-1.000000	-1.000000	-1.000000	-1.000000	-1.000000	-1.000000	-1.000000	146.620690	0.000000	-1.000000	-1.000000	247134.000000	1772311152.347994
-17429.580000	-13678.875000	-18557.280000	-13171.095000	0.000000	0.000000	0.000000	0.000000	-41.448641	-17.369850	-5.030576	-18.595851	0.000000	0.000000	-0.000000	-0.000000	-4.425400	6.973820	7.767340	0.033752	0.988706	-0.112426	-1.000000	-1.000000	-1.000000	-1.000000	-1.000000	-1.000000	-1.000000	146.620690	0.000000	-1.000000	-1.000000	247135.000000	1772311152.353504
-17611.380000	-13694.490000	-18527.985000	-13187.430000	0.000000	0.000000	0.000000	0.000000	-38.079730	-8.045560	40.196160	-17.589725	0.000000	0.000000	-0.000000	-0.000000	-4.425400	6.973820	7.767340	0.033752	0.988706	-0.112426	-1.000000	-1.000000	-1.000000	-1.000000	-1.000000	-1.000000	-1.000000	146.620690	0.000000	-1.000000	-1.000000	247136.000000	1772311152.353507
-17618.715000	-13683.330000	-18346.950000	-13184.955000	0.000000	0.000000	0.000000	0.000000	-35.633233	1.363676	93.008458	-7.585756	0.000000	0.000000	-0.000000	-0.000000	-4.425400	6.973820	7.767340	0.033752	0.988706	-0.112426	-1.000000	-1.000000	-1.000000	-1.000000	-1.000000	-1.000000	-1.000000	146.620690	0.000000	-1.000000	-1.000000	247137.000000	1772311152.355843
-17614.980000	-13678.380000	-18243.405000	-13192.065000	0.000000	0.000000	0.000000	0.000000	-27.610029	10.391456	132.670725	-0.260489	0.000000	0.000000	-0.000000	-0.000000	-4.425400	6.973820	7.767340	0.033752	0.988706	-0.112426	-1.000000	-1.000000	-1.000000	-1.000000	-1.000000	-1.000000	-1.000000	146.620690	0.000000	-1.000000	-1.000000	247138.000000	1772311152.355846
-17665.380000	-13698.630000	-18259.875000	-13244.175000	0.000000	0.000000	0.000000	0.000000	-2.554519	17.729978	139.217259	-1.192719	0.000000	0.000000	-0.000000	-0.000000	-4.425400	6.973820	7.767340	0.033752	0.988706	-0.112426	-1.000000	-1.000000	-1.000000	-1.000000	-1.000000	-1.000000	-1.000000	146.620690	0.000000	-1.000000	-1.000000	247139.000000	1772311152.359767
-17505.045000	-13682.520000	-18229.545000	-13231.845000	0.000000	0.000000	0.000000	0.000000	37.684320	20.415420	97.425574	-8.630261	0.000000	0.000000	-0.000000	-0.000000	-4.425400	6.973820	7.767340	0.033752	0.988706	-0.112426	-1.000000	-1.000000	-1.000000	-1.000000	-1.000000	-1.000000	-1.000000	146.620690	0.000000	-1.000000	-1.000000	247140.000000	1772311152.359770
-17095.365000	-13659.345000	-18228.465000	-13179.645000	0.000000	0.000000	0.000000	0.000000	87.000664	17.889520	14.802267	-14.105616	0.000000	0.000000	-0.000000	-0.000000	-4.425400	6.973820	7.767340	0.033752	0.988706	-0.112426	-1.000000	-1.000000	-1.000000	-1.000000	-1.000000	-1.000000	-1.000000	146.620690	0.000000	-1.000000	-1.000000	247141.000000	1772311152.363888
-16937.235000	-13662.315000	-18265.545000	-13073.940000	0.000000	0.000000	0.000000	0.000000	139.674432	12.789733	-76.208755	-6.832265	0.000000	0.000000	-0.000000	-0.000000	-4.425400	6.973820	7.767340	0.033752	0.988706	-0.112426	-1.000000	-1.000000	-1.000000	-1.000000	-1.000000	-1.000000	-1.000000	146.620690	0.000000	-1.000000	-1.000000	247142.000000	1772311152.363891
-17318.565000	-13687.920000	-18493.650000	-13083.885000	0.000000	0.000000	0.000000	0.000000	159.950234	6.097164	-143.910374	14.055388	0.000000	0.000000	-0.000000	-0.000000	-4.425400	6.973820	7.767340	0.033752	0.988706	-0.112426	-1.000000	-1.000000	-1.000000	-1.000000	-1.000000	-1.000000	-1.000000	146.620690	0.000000	-1.000000	-1.000000	247143.000000	1772311152.367859
-17572.680000	-13689.405000	-18636.435000	-13186.080000	0.000000	0.000000	0.000000	0.000000	90.070954	-3.103419	-175.853368	31.403336	0.000000	0.000000	-0.000000	-0.000000	-4.425400	6.973820	7.767340	0.033752	0.988706	-0.112426	-1.000000	-1.000000	-1.000000	-1.000000	-1.000000	-1.000000	-1.000000	146.620690	0.000000	-1.000000	-1.000000	247144.000000	1772311152.367862
-17730.045000	-13693.725000	-18557.145000	-13231.350000	0.000000	0.000000	0.000000	0.000000	-70.358394	-12.827600	-165.745344	23.945234	0.000000	0.000000	-0.000000	-0.000000	6.561800	3.815000	10.239460	0.024231	0.974607	-0.091675	-1.000000	-1.000000	-1.000000	-1.000000	-1.000000	-1.000000	-1.000000	146.620690	0.000000	-1.000000	-1.000000	247145.000000	1772311152.371939
-18020.520000	-13734.000000	-18374.400000	-13218.795000	0.000000	0.000000	0.000000	0.000000	-236.008643	-18.943617	-100.579863	-7.273603	0.000000	0.000000	-0.000000	-0.000000	6.561800	3.815000	10.239460	0.024231	0.974607	-0.091675	-1.000000	-1.000000	-1.000000	-1.000000	-1.000000	-1.000000	-1.000000	146.620690	0.000000	-1.000000	-1.000000	247146.000000	1772311152.371941
-17895.420000	-13761.270000	-18207.180000	-13174.785000	0.000000	0.000000	0.000000	0.000000	-305.943097	-20.124864	17.301949	-36.343478	0.000000	0.000000	-0.000000	-0.000000	6.561800	3.815000	10.239460	0.024231	0.974607	-0.091675	-1.000000	-1.000000	-1.000000	-1.000000	-1.000000	-1.000000	-1.000000	146.620690	0.000000	-1.000000	-1.000000	247147.000000	1772311152.375912
-17567.145000	-13772.295000	-18222.165000	-13184.820000	0.000000	0.000000	0.000000	0.000000	-226.355776	-17.166105	144.105743	-39.601507	0.000000	0.000000	-0.000000	-0.000000	6.561800	3.815000	10.239460	0.024231	0.974607	-0.091675	-1.000000	-1.000000	-1.000000	-1.000000	-1.000000	-1.000000	-1.000000	146.620690	0.000000	-1.000000	-1.000000	247148.000000	1772311152.375915
-17300.700000	-13749.525000	-18346.320000	-13204.575000	0.000000	0.000000	0.000000	0.000000	-16.164946	-9.368325	210.058714	-17.906758	0.000000	0.000000	-0.000000	-0.000000	6.561800	3.815000	10.239460	0.024231	0.974607	-0.091675	-1.000000	-1.000000	-1.000000	-1.000000	-1.000000	-1.000000	-1.000000	146.620690	0.000000	-1.000000	-1.000000	247149.000000	1772311152.379989
-17374.320000	-13759.965000	-18309.645000	-13188.690000	0.000000	0.000000	0.000000	0.000000	222.604737	3.634951	173.996514	9.895927	0.000000	0.000000	-0.000000	-0.000000	6.561800	3.815000	10.239460	0.024231	0.974607	-0.091675	-1.000000	-1.000000	-1.000000	-1.000000	-1.000000	-1.000000	-1.000000	146.620690	0.000000	-1.000000	-1.000000	247150.000000	1772311152.379991
-17621.235000	-13787.505000	-18196.335000	-13208.445000	0.000000	0.000000	0.000000	0.000000	349.363303	17.071785	64.672687	27.319108	0.000000	0.000000	-0.000000	-0.000000	6.561800	3.815000	10.239460	0.024231	0.974607	-0.091675	-1.000000	-1.000000	-1.000000	-1.000000	-1.000000	-1.000000	-1.000000	146.620690	0.000000	-1.000000	-1.000000	247151.000000	1772311152.383981
-17748.225000	-13756.860000	-18070.875000	-13234.185000	0.000000	0.000000	0.000000	0.000000	285.195056	23.769398	-43.440106	28.621581	0.000000	0.000000	-0.000000	-0.000000	6.561800	3.815000	10.239460	0.024231	0.974607	-0.091675	-1.000000	-1.000000	-1.000000	-1.000000	-1.000000	-1.000000	-1.000000	146.620690	0.000000	-1.000000	-1.000000	247152.000000	1772311152.383984
-17620.695000	-13724.235000	-18014.715000	-13236.075000	0.000000	0.000000	0.000000	0.000000	81.692786	22.663878	-94.890765	16.799416	0.000000	0.000000	-0.000000	-0.000000	6.561800	3.815000	10.239460	0.024231	0.974607	-0.091675	-1.000000	-1.000000	-1.000000	-1.000000	-1.000000	-1.000000	-1.000000	146.620690	0.000000	-1.000000	-1.000000	247153.000000	1772311152.387907
-17431.380000	-13693.860000	-17778.690000	-13122.315000	0.000000	0.000000	0.000000	0.000000	-119.107409	18.443439	-83.882610	2.939586	0.000000	0.000000	-0.000000	-0.000000	6.561800	3.815000	10.239460	0.024231	0.974607	-0.091675	-1.000000	-1.000000	-1.000000	-1.000000	-1.000000	-1.000000	-1.000000	146.620690	0.000000	-1.000000	-1.000000	247154.000000	1772311152.387909
-17615.115000	-13651.020000	-17903.970000	-13189.455000	0.000000	0.000000	0.000000	0.000000	-206.483177	14.255478	-40.146403	-1.487056	0.000000	0.000000	-0.000000	-0.000000	17.762640	-5.997180	9.766400	0.004517	0.995664	-0.064697	-1.000000	-1.000000	-1.000000	-1.000000	-1.000000	-1.000000	-1.000000	146.620690	0.000000	-1.000000	-1.000000	247155.000000	1772311152.391962
-17592.255000	-13634.280000	-18037.395000	-13247.055000	0.000000	0.000000	0.000000	0.000000	-178.102721	9.484366	-9.371043	0.195913	0.000000	0.000000	-0.000000	-0.000000	17.762640	-5.997180	9.766400	0.004517	0.995664	-0.064697	-1.000000	-1.000000	-1.000000	-1.000000	-1.000000	-1.000000	-1.000000	146.620690	0.000000	-1.000000	-1.000000	247156.000000	1772311152.391966
-17199.090000	-13637.970000	-18093.690000	-13169.025000	0.000000	0.000000	0.000000	0.000000	-89.901717	1.590048	-21.908641	-2.907391	0.000000	0.000000	-0.000000	-0.000000	17.762640	-5.997180	9.766400	0.004517	0.995664	-0.064697	-1.000000	-1.000000	-1.000000	-1.000000	-1.000000	-1.000000	-1.000000	146.620690	0.000000	-1.000000	-1.000000	247157.000000	1772311152.396015
-16954.425000	-13666.770000	-18190.710000	-13114.395000	0.000000	0.000000	0.000000	0.000000	19.875170	-11.345390	-63.073324	-7.838195	0.000000	0.000000	-0.000000	-0.000000	17.762640	-5.997180	9.766400	0.004517	0.995664	-0.064697	-1.000000	-1.000000	-1.000000	-1.000000	-1.000000	-1.000000	-1.000000	146.620690	0.000000	-1.000000	-1.000000	247158.000000	1772311152.396018
-16813.530000	-13710.285000	-18360.135000	-13158.855000	0.000000	0.000000	0.000000	0.000000	120.903172	-27.827552	-93.572350	-5.585081	0.000000	0.000000	-0.000000	-0.000000	17.762640	-5.997180	9.766400	0.004517	0.995664	-0.064697	-1.000000	-1.000000	-1.000000	-1.000000	-1.000000	-1.000000	-1.000000	146.620690	0.000000	-1.000000	-1.000000	247159.000000	1772311152.399989
-16941.420000	-13731.300000	-18452.835000	-13140.720000	0.000000	0.000000	0.000000	0.000000	163.714352	-41.897232	-89.129280	0.425378	0.000000	0.000000	-0.000000	-0.000000	17.762640	-5.997180	9.766400	0.004517	0.995664	-0.064697	-1.000000	-1.000000	-1.000000	-1.000000	-1.000000	-1.000000	-1.000000	146.620690	0.000000	-1.000000	-1.000000	247160.000000	1772311152.399991
-17342.100000	-13755.825000	-18399.960000	-13065.795000	0.000000	0.000000	0.000000	0.000000	104.508250	-45.459254	-46.291360	3.154641	0.000000	0.000000	-0.000000	-0.000000	17.762640	-5.997180	9.766400	0.004517	0.995664	-0.064697	-1.000000	-1.000000	-1.000000	-1.000000	-1.000000	-1.000000	-1.000000	146.620690	0.000000	-1.000000	-1.000000	247161.000000	1772311152.406584
-17589.870000	-13775.805000	-18355.365000	-13188.015000	0.000000	0.000000	0.000000	0.000000	-49.717839	-34.056369	27.036227	1.665570	0.000000	0.000000	-0.000000	-0.000000	17.762640	-5.997180	9.766400	0.004517	0.995664	-0.064697	-1.000000	-1.000000	-1.000000	-1.000000	-1.000000	-1.000000	-1.000000	146.620690	0.000000	-1.000000	-1.000000	247162.000000	1772311152.406587
-17938.305000	-13799.115000	-18386.685000	-13325.400000	0.000000	0.000000	0.000000	0.000000	-224.539961	-11.081793	107.396448	-8.401787	0.000000	0.000000	-0.000000	-0.000000	17.762640	-5.997180	9.766400	0.004517	0.995664	-0.064697	-1.000000	-1.000000	-1.000000	-1.000000	-1.000000	-1.000000	-1.000000	146.620690	0.000000	-1.000000	-1.000000	247163.000000	1772311152.407990
-17965.440000	-13787.730000	-18049.545000	-13173.975000	0.000000	0.000000	0.000000	0.000000	-318.145861	14.813918	163.887163	-26.821275	0.000000	0.000000	-0.000000	-0.000000	17.762640	-5.997180	9.766400	0.004517	0.995664	-0.064697	-1.000000	-1.000000	-1.000000	-1.000000	-1.000000	-1.000000	-1.000000	146.620690	0.000000	-1.000000	-1.000000	247164.000000	1772311152.407993
-17650.710000	-13789.170000	-18046.845000	-13130.235000	0.000000	0.000000	0.000000	0.000000	-259.808597	35.501967	180.721752	-32.952396	0.000000	0.000000	-0.000000	-0.000000	13.886600	-4.043900	12.681060	0.005432	1.008115	-0.083679	-1.000000	-1.000000	-1.000000	-1.000000	-1.000000	-1.000000	-1.000000	146.620690	0.000000	-1.000000	-1.000000	247165.000000	1772311152.412062
-17643.870000	-13785.885000	-18266.265000	-13242.015000	0.000000	0.000000	0.000000	0.000000	-54.004584	45.753105	147.050919	-12.511044	0.000000	0.000000	-0.000000	-0.000000	13.886600	-4.043900	12.681060	0.005432	1.008115	-0.083679	-1.000000	-1.000000	-1.000000	-1.000000	-1.000000	-1.000000	-1.000000	146.620690	0.000000	-1.000000	-1.000000	247166.000000	1772311152.412069
-17753.400000	-13790.250000	-18309.105000	-13365.495000	0.000000	0.000000	0.000000	0.000000	197.622743	43.284437	52.459868	14.216723	0.000000	0.000000	-0.000000	-0.000000	13.886600	-4.043900	12.681060	0.005432	1.008115	-0.083679	-1.000000	-1.000000	-1.000000	-1.000000	-1.000000	-1.000000	-1.000000	146.620690	0.000000	-1.000000	-1.000000	247167.000000	1772311152.416051
-17633.430000	-13775.895000	-18183.195000	-13280.985000	0.000000	0.000000	0.000000	0.000000	356.716990	29.860862	-73.283329	21.612331	0.000000	0.000000	-0.000000	-0.000000	13.886600	-4.043900	12.681060	0.005432	1.008115	-0.083679	-1.000000	-1.000000	-1.000000	-1.000000	-1.000000	-1.000000	-1.000000	146.620690	0.000000	-1.000000	-1.000000	247168.000000	1772311152.416053
-17471.295000	-13747.320000	-18100.440000	-13282.380000	0.000000	0.000000	0.000000	0.000000	359.310223	11.707216	-160.255072	14.221943	0.000000	0.000000	-0.000000	-0.000000	13.886600	-4.043900	12.681060	0.005432	1.008115	-0.083679	-1.000000	-1.000000	-1.000000	-1.000000	-1.000000	-1.000000	-1.000000	146.620690	0.000000	-1.000000	-1.000000	247169.000000	1772311152.419988
-17153.145000	-13721.490000	-17897.940000	-13159.755000	0.000000	0.000000	0.000000	0.000000	246.181687	-3.528803	-159.766495	12.783861	0.000000	0.000000	-0.000000	-0.000000	13.886600	-4.043900	12.681060	0.005432	1.008115	-0.083679	-1.000000	-1.000000	-1.000000	-1.000000	-1.000000	-1.000000	-1.000000	146.620690	0.000000	-1.000000	-1.000000	247170.000000	1772311152.419991
-17120.880000	-13725.720000	-18058.365000	-13148.955000	0.000000	0.000000	0.000000	0.000000	97.553279	-12.169020	-86.621927	25.160533	0.000000	0.000000	-0.000000	-0.000000	13.886600	-4.043900	12.681060	0.005432	1.008115	-0.083679	-1.000000	-1.000000	-1.000000	-1.000000	-1.000000	-1.000000	-1.000000	146.620690	0.000000	-1.000000	-1.000000	247171.000000	1772311152.423996
-17249.625000	-13782.735000	-18556.875000	-13354.740000	0.000000	0.000000	0.000000	0.000000	-39.104055	-17.330115	-12.682873	35.622858	0.000000	0.000000	-0.000000	-0.000000	13.886600	-4.043900	12.681060	0.005432	1.008115	-0.083679	-1.000000	-1.000000	-1.000000	-1.000000	-1.000000	-1.000000	-1.000000	146.620690	0.000000	-1.000000	-1.000000	247172.000000	1772311152.423999
-16922.160000	-13782.015000	-18676.170000	-13247.550000	0.000000	0.000000	0.000000	0.000000	-149.457470	-23.904446	-6.627304	21.802137	0.000000	0.000000	-0.000000	-0.000000	13.886600	-4.043900	12.681060	0.005432	1.008115	-0.083679	-1.000000	-1.000000	-1.000000	-1.000000	-1.000000	-1.000000	-1.000000	146.620690	0.000000	-1.000000	-1.000000	247173.000000	1772311152.428114
-16839.990000	-13757.805000	-18587.565000	-13090.635000	0.000000	0.000000	0.000000	0.000000	-209.728196	-29.516119	-54.565699	-8.284956	0.000000	0.000000	-0.000000	-0.000000	13.886600	-4.043900	12.681060	0.005432	1.008115	-0.083679	-1.000000	-1.000000	-1.000000	-1.000000	-1.000000	-1.000000	-1.000000	146.620690	0.000000	-1.000000	-1.000000	247174.000000	1772311152.428116
-16839.990000	-13757.805000	-18587.565000	-13090.635000	0.000000	0.000000	0.000000	0.000000	-201.668650	-26.211132	-75.334744	-22.784957	0.000000	0.000000	-0.000000	-0.000000	13.886600	-4.043900	12.681060	0.005432	1.008115	-0.083679	-1.000000	-1.000000	-1.000000	-1.000000	-1.000000	-1.000000	-1.000000	146.620690	0.000000	-1.000000	-1.000000	247175.000000	1772311152.432633
-16839.990000	-13757.805000	-18587.565000	-13090.635000	0.000000	0.000000	0.000000	0.000000	-147.291475	-12.103491	-21.617941	-13.379049	0.000000	0.000000	-0.000000	-0.000000	13.886600	-4.043900	12.681060	0.005432	1.008115	-0.083679	-1.000000	-1.000000	-1.000000	-1.000000	-1.000000	-1.000000	-1.000000	146.620690	0.000000	-1.000000	-1.000000	247176.000000	1772311152.432635
-16839.990000	-13757.805000	-18587.565000	-13090.635000	0.000000	0.000000	0.000000	0.000000	-85.063123	5.576789	76.222660	-0.637741	0.000000	0.000000	-0.000000	-0.000000	13.886600	-4.043900	12.681060	0.005432	1.008115	-0.083679	-1.000000	-1.000000	-1.000000	-1.000000	-1.000000	-1.000000	-1.000000	146.620690	0.000000	-1.000000	-1.000000	247177.000000	1772311152.432637
-17676.765000	-13827.285000	-17820.990000	-12865.230000	0.000000	0.000000	0.000000	0.000000	-50.395554	16.848367	168.169768	2.534063	0.000000	0.000000	-0.000000	-0.000000	8.011500	-3.616620	27.513780	-0.006592	1.080197	-0.085998	-1.000000	-1.000000	-1.000000	-1.000000	-1.000000	-1.000000	-1.000000	146.620690	0.000000	-1.000000	-1.000000	247179.000000	1772311152.440039
-17336.520000	-13840.110000	-17908.695000	-13049.550000	0.000000	0.000000	0.000000	0.000000	-61.824607	15.441096	231.377349	0.629442	0.000000	0.000000	-0.000000	-0.000000	8.011500	-3.616620	27.513780	-0.006592	1.080197	-0.085998	-1.000000	-1.000000	-1.000000	-1.000000	-1.000000	-1.000000	-1.000000	146.620690	0.000000	-1.000000	-1.000000	247180.000000	1772311152.440041
-17329.455000	-13838.400000	-18000.675000	-13362.165000	0.000000	0.000000	0.000000	0.000000	-74.037336	4.756849	232.095778	-13.430698	0.000000	0.000000	-0.000000	-0.000000	8.011500	-3.616620	27.513780	-0.006592	1.080197	-0.085998	-1.000000	-1.000000	-1.000000	-1.000000	-1.000000	-1.000000	-1.000000	146.620690	0.000000	-1.000000	-1.000000	247181.000000	1772311152.444486
-17514.630000	-13855.545000	-18049.995000	-13506.435000	0.000000	0.000000	0.000000	0.000000	-22.455926	-4.404609	128.146173	-54.853802	0.000000	0.000000	-0.000000	-0.000000	8.011500	-3.616620	27.513780	-0.006592	1.080197	-0.085998	-1.000000	-1.000000	-1.000000	-1.000000	-1.000000	-1.000000	-1.000000	146.620690	0.000000	-1.000000	-1.000000	247182.000000	1772311152.444489
-17434.665000	-13866.930000	-18062.730000	-13358.250000	0.000000	0.000000	0.000000	0.000000	80.580293	-5.230596	-55.780054	-100.864505	0.000000	0.000000	-0.000000	-0.000000	8.011500	-3.616620	27.513780	-0.006592	1.080197	-0.085998	-1.000000	-1.000000	-1.000000	-1.000000	-1.000000	-1.000000	-1.000000	146.620690	0.000000	-1.000000	-1.000000	247183.000000	1772311152.450638
-17394.390000	-13881.330000	-18150.705000	-13251.240000	0.000000	0.000000	0.000000	0.000000	173.847790	0.475914	-228.907494	-95.124356	0.000000	0.000000	-0.000000	-0.000000	8.011500	-3.616620	27.513780	-0.006592	1.080197	-0.085998	-1.000000	-1.000000	-1.000000	-1.000000	-1.000000	-1.000000	-1.000000	146.620690	0.000000	-1.000000	-1.000000	247184.000000	1772311152.450640
-17334.810000	-13883.805000	-18205.290000	-13209.660000	0.000000	0.000000	0.000000	0.000000	216.001847	7.324481	-310.499873	-15.359556	0.000000	0.000000	-0.000000	-0.000000	-4.349100	-3.769220	33.984020	-0.013977	1.085691	-0.103088	-1.000000	-1.000000	-1.000000	-1.000000	-1.000000	-1.000000	-1.000000	146.620690	0.000000	-1.000000	-1.000000	247185.000000	1772311152.452382
-17283.375000	-13844.160000	-18285.570000	-13208.085000	0.000000	0.000000	0.000000	0.000000	195.934656	12.222270	-277.271880	93.503247	0.000000	0.000000	-0.000000	-0.000000	-4.349100	-3.769220	33.984020	-0.013977	1.085691	-0.103088	-1.000000	-1.000000	-1.000000	-1.000000	-1.000000	-1.000000	-1.000000	146.620690	0.000000	-1.000000	-1.000000	247186.000000	1772311152.452384
-17328.330000	-13815.765000	-18408.465000	-13306.995000	0.000000	0.000000	0.000000	0.000000	123.936990	15.823979	-161.233279	160.020310	0.000000	0.000000	-0.000000	-0.000000	-4.349100	-3.769220	33.984020	-0.013977	1.085691	-0.103088	-1.000000	-1.000000	-1.000000	-1.000000	-1.000000	-1.000000	-1.000000	146.620690	0.000000	-1.000000	-1.000000	247187.000000	1772311152.456165
-17300.520000	-13785.300000	-18451.305000	-13333.995000	0.000000	0.000000	0.000000	0.000000	24.033971	18.586428	-20.522713	144.328896	0.000000	0.000000	-0.000000	-0.000000	-4.349100	-3.769220	33.984020	-0.013977	1.085691	-0.103088	-1.000000	-1.000000	-1.000000	-1.000000	-1.000000	-1.000000	-1.000000	146.620690	0.000000	-1.000000	-1.000000	247188.000000	1772311152.456168
-17221.050000	-13791.015000	-18372.015000	-13314.645000	0.000000	0.000000	0.000000	0.000000	-69.981124	17.557969	97.498623	63.471023	0.000000	0.000000	-0.000000	-0.000000	-4.349100	-3.769220	33.984020	-0.013977	1.085691	-0.103088	-1.000000	-1.000000	-1.000000	-1.000000	-1.000000	-1.000000	-1.000000	146.620690	0.000000	-1.000000	-1.000000	247189.000000	1772311152.460182
-17037.990000	-13777.020000	-18238.410000	-13265.505000	0.000000	0.000000	0.000000	0.000000	-122.455171	9.168949	174.849604	-27.580260	0.000000	0.000000	-0.000000	-0.000000	-4.349100	-3.769220	33.984020	-0.013977	1.085691	-0.103088	-1.000000	-1.000000	-1.000000	-1.000000	-1.000000	-1.000000	-1.000000	146.620690	0.000000	-1.000000	-1.000000	247190.000000	1772311152.460185
-16930.260000	-13760.370000	-18136.305000	-13212.945000	0.000000	0.000000	0.000000	0.000000	-115.904946	-5.271775	210.642745	-79.653223	0.000000	0.000000	-0.000000	-0.000000	-4.349100	-3.769220	33.984020	-0.013977	1.085691	-0.103088	-1.000000	-1.000000	-1.000000	-1.000000	-1.000000	-1.000000	-1.000000	146.620690	0.000000	-1.000000	-1.000000	247191.000000	1772311152.464162
-17054.325000	-13763.115000	-18087.615000	-13036.860000	0.000000	0.000000	0.000000	0.000000	-70.056967	-19.368296	202.321171	-76.272050	0.000000	0.000000	-0.000000	-0.000000	-4.349100	-3.769220	33.984020	-0.013977	1.085691	-0.103088	-1.000000	-1.000000	-1.000000	-1.000000	-1.000000	-1.000000	-1.000000	146.620690	0.000000	-1.000000	-1.000000	247192.000000	1772311152.464166
-17002.800000	-13761.720000	-18004.455000	-13007.745000	0.000000	0.000000	0.000000	0.000000	-29.253744	-27.381108	147.407807	-32.444923	0.000000	0.000000	-0.000000	-0.000000	-4.349100	-3.769220	33.984020	-0.013977	1.085691	-0.103088	-1.000000	-1.000000	-1.000000	-1.000000	-1.000000	-1.000000	-1.000000	146.620690	0.000000	-1.000000	-1.000000	247193.000000	1772311152.468078
-16894.845000	-13755.465000	-17983.980000	-13122.720000	0.000000	0.000000	0.000000	0.000000	-16.458663	-27.387188	57.416291	14.094596	0.000000	0.000000	-0.000000	-0.000000	-4.349100	-3.769220	33.984020	-0.013977	1.085691	-0.103088	-1.000000	-1.000000	-1.000000	-1.000000	-1.000000	-1.000000	-1.000000	146.620690	0.000000	-1.000000	-1.000000	247194.000000	1772311152.468081
-17132.940000	-13751.730000	-17858.340000	-13103.820000	0.000000	0.000000	0.000000	0.000000	-21.832218	-20.274014	-39.461228	25.567784	0.000000	0.000000	-0.000000	-0.000000	14.878500	2.304260	29.024520	0.050476	0.979490	-0.131652	-1.000000	-1.000000	-1.000000	-1.000000	-1.000000	-1.000000	-1.000000	146.620690	0.000000	-1.000000	-1.000000	247195.000000	1772311152.473536
-17316.135000	-13722.345000	-17898.390000	-13223.565000	0.000000	0.000000	0.000000	0.000000	-37.752255	-8.468899	-112.058167	-3.897785	0.000000	0.000000	-0.000000	-0.000000	14.878500	2.304260	29.024520	0.050476	0.979490	-0.131652	-1.000000	-1.000000	-1.000000	-1.000000	-1.000000	-1.000000	-1.000000	146.620690	0.000000	-1.000000	-1.000000	247196.000000	1772311152.473538
-17259.615000	-13707.675000	-18009.180000	-13282.605000	0.000000	0.000000	0.000000	0.000000	-58.578649	4.914631	-146.983628	-49.005310	0.000000	0.000000	-0.000000	-0.000000	14.878500	2.304260	29.024520	0.050476	0.979490	-0.131652	-1.000000	-1.000000	-1.000000	-1.000000	-1.000000	-1.000000	-1.000000	146.620690	0.000000	-1.000000	-1.000000	247197.000000	1772311152.476150
-17186.130000	-13678.335000	-17954.325000	-13120.245000	0.000000	0.000000	0.000000	0.000000	-57.493499	16.239983	-149.165843	-75.015389	0.000000	0.000000	-0.000000	-0.000000	14.878500	2.304260	29.024520	0.050476	0.979490	-0.131652	-1.000000	-1.000000	-1.000000	-1.000000	-1.000000	-1.000000	-1.000000	146.620690	0.000000	-1.000000	-1.000000	247198.000000	1772311152.476153
-17330.220000	-13668.345000	-18169.245000	-13259.790000	0.000000	0.000000	0.000000	0.000000	-14.717673	21.920146	-125.637312	-58.511331	0.000000	0.000000	-0.000000	-0.000000	14.878500	2.304260	29.024520	0.050476	0.979490	-0.131652	-1.000000	-1.000000	-1.000000	-1.000000	-1.000000	-1.000000	-1.000000	146.620690	0.000000	-1.000000	-1.000000	247199.000000	1772311152.480218
-17429.265000	-13667.715000	-18394.830000	-13339.935000	0.000000	0.000000	0.000000	0.000000	45.997152	19.701276	-88.596006	-11.679311	0.000000	0.000000	-0.000000	-0.000000	14.878500	2.304260	29.024520	0.050476	0.979490	-0.131652	-1.000000	-1.000000	-1.000000	-1.000000	-1.000000	-1.000000	-1.000000	146.620690	0.000000	-1.000000	-1.000000	247200.000000	1772311152.480220
-17228.970000	-13644.900000	-18372.015000	-13304.340000	0.000000	0.000000	0.000000	0.000000	87.552092	10.311475	-51.239011	30.831405	0.000000	0.000000	-0.000000	-0.000000	14.878500	2.304260	29.024520	0.050476	0.979490	-0.131652	-1.000000	-1.000000	-1.000000	-1.000000	-1.000000	-1.000000	-1.000000	146.620690	0.000000	-1.000000	-1.000000	247201.000000	1772311152.484224
-17169.525000	-13642.245000	-18387.720000	-13320.540000	0.000000	0.000000	0.000000	0.000000	104.036164	-1.734961	-7.791831	52.207115	0.000000	0.000000	-0.000000	-0.000000	14.878500	2.304260	29.024520	0.050476	0.979490	-0.131652	-1.000000	-1.000000	-1.000000	-1.000000	-1.000000	-1.000000	-1.000000	146.620690	0.000000	-1.000000	-1.000000	247202.000000	1772311152.484227
-16963.290000	-13649.670000	-18275.580000	-13149.540000	0.000000	0.000000	0.000000	0.000000	107.765636	-11.403677	53.469837	59.409273	0.000000	0.000000	-0.000000	-0.000000	14.878500	2.304260	29.024520	0.050476	0.979490	-0.131652	-1.000000	-1.000000	-1.000000	-1.000000	-1.000000	-1.000000	-1.000000	146.620690	0.000000	-1.000000	-1.000000	247203.000000	1772311152.488155
-16803.630000	-13649.355000	-18057.780000	-13092.795000	0.000000	0.000000	0.000000	0.000000	102.320982	-16.523452	126.422744	64.315824	0.000000	0.000000	-0.000000	-0.000000	14.878500	2.304260	29.024520	0.050476	0.979490	-0.131652	-1.000000	-1.000000	-1.000000	-1.000000	-1.000000	-1.000000	-1.000000	146.620690	0.000000	-1.000000	-1.000000	247204.000000	1772311152.488158
-17164.575000	-13622.760000	-18194.445000	-13388.130000	0.000000	0.000000	0.000000	0.000000	73.501480	-16.310193	183.030158	60.926740	0.000000	0.000000	-0.000000	-0.000000	-5.737760	-2.594200	16.541840	0.064941	0.962583	-0.107910	-1.000000	-1.000000	-1.000000	-1.000000	-1.000000	-1.000000	-1.000000	146.620690	0.000000	-1.000000	-1.000000	247205.000000	1772311152.492205
-17402.490000	-13625.820000	-18214.425000	-13495.815000	0.000000	0.000000	0.000000	0.000000	-4.828749	-10.380624	182.438229	24.722839	0.000000	0.000000	-0.000000	-0.000000	-5.737760	-2.594200	16.541840	0.064941	0.962583	-0.107910	-1.000000	-1.000000	-1.000000	-1.000000	-1.000000	-1.000000	-1.000000	146.620690	0.000000	-1.000000	-1.000000	247206.000000	1772311152.492207
-17156.115000	-13642.605000	-17987.310000	-13097.790000	0.000000	0.000000	0.000000	0.000000	-119.070841	-1.546425	112.085016	-36.160441	0.000000	0.000000	-0.000000	-0.000000	-5.737760	-2.594200	16.541840	0.064941	0.962583	-0.107910	-1.000000	-1.000000	-1.000000	-1.000000	-1.000000	-1.000000	-1.000000	146.620690	0.000000	-1.000000	-1.000000	247207.000000	1772311152.496560
-16993.755000	-13664.700000	-17935.380000	-12913.875000	0.000000	0.000000	0.000000	0.000000	-189.801744	4.455851	13.646596	-62.567325	0.000000	0.000000	-0.000000	-0.000000	-5.737760	-2.594200	16.541840	0.064941	0.962583	-0.107910	-1.000000	-1.000000	-1.000000	-1.000000	-1.000000	-1.000000	-1.000000	146.620690	0.000000	-1.000000	-1.000000	247208.000000	1772311152.496563
-17224.380000	-13678.470000	-18081.045000	-13108.590000	0.000000	0.000000	0.000000	0.000000	-158.422632	4.374048	-65.552644	-25.788312	0.000000	0.000000	-0.000000	-0.000000	-5.737760	-2.594200	16.541840	0.064941	0.962583	-0.107910	-1.000000	-1.000000	-1.000000	-1.000000	-1.000000	-1.000000	-1.000000	146.620690	0.000000	-1.000000	-1.000000	247209.000000	1772311152.502170
-17247.510000	-13642.020000	-18218.070000	-13234.725000	0.000000	0.000000	0.000000	0.000000	-61.233532	1.277607	-117.741449	21.622229	0.000000	0.000000	-0.000000	-0.000000	-5.737760	-2.594200	16.541840	0.064941	0.962583	-0.107910	-1.000000	-1.000000	-1.000000	-1.000000	-1.000000	-1.000000	-1.000000	146.620690	0.000000	-1.000000	-1.000000	247210.000000	1772311152.502172
-16791.885000	-13590.045000	-18020.295000	-12997.080000	0.000000	0.000000	0.000000	0.000000	35.700394	2.416288	-145.962244	23.822752	0.000000	0.000000	-0.000000	-0.000000	-5.737760	-2.594200	16.541840	0.064941	0.962583	-0.107910	-1.000000	-1.000000	-1.000000	-1.000000	-1.000000	-1.000000	-1.000000	146.620690	0.000000	-1.000000	-1.000000	247211.000000	1772311152.504255
-16792.605000	-13574.790000	-18089.055000	-13130.190000	0.000000	0.000000	0.000000	0.000000	110.753406	11.173489	-134.744667	-8.427969	0.000000	0.000000	-0.000000	-0.000000	-5.737760	-2.594200	16.541840	0.064941	0.962583	-0.107910	-1.000000	-1.000000	-1.000000	-1.000000	-1.000000	-1.000000	-1.000000	146.620690	0.000000	-1.000000	-1.000000	247212.000000	1772311152.504258
-16973.145000	-13577.580000	-18176.265000	-13337.460000	0.000000	0.000000	0.000000	0.000000	149.272000	21.107422	-81.389341	-42.432697	0.000000	0.000000	-0.000000	-0.000000	-5.737760	-2.594200	16.541840	0.064941	0.962583	-0.107910	-1.000000	-1.000000	-1.000000	-1.000000	-1.000000	-1.000000	-1.000000	146.620690	0.000000	-1.000000	-1.000000	247213.000000	1772311152.508270
-17225.640000	-13609.080000	-18298.980000	-13412.745000	0.000000	0.000000	0.000000	0.000000	115.295095	21.214437	-17.243726	-69.310306	0.000000	0.000000	-0.000000	-0.000000	-5.737760	-2.594200	16.541840	0.064941	0.962583	-0.107910	-1.000000	-1.000000	-1.000000	-1.000000	-1.000000	-1.000000	-1.000000	146.620690	0.000000	-1.000000	-1.000000	247214.000000	1772311152.508273
-17143.290000	-13658.040000	-18280.530000	-13421.340000	0.000000	0.000000	0.000000	0.000000	9.151272	6.409789	26.307034	-81.078453	0.000000	0.000000	-0.000000	-0.000000	-31.725540	-5.051060	9.842700	0.048950	0.986631	-0.106262	-1.000000	-1.000000	-1.000000	-1.000000	-1.000000	-1.000000	-1.000000	146.620690	0.000000	-1.000000	-1.000000	247215.000000	1772311152.512293
-16802.145000	-13663.305000	-17790.255000	-12996.630000	0.000000	0.000000	0.000000	0.000000	-96.050752	-17.200063	55.342630	-52.834598	0.000000	0.000000	-0.000000	-0.000000	-31.725540	-5.051060	9.842700	0.048950	0.986631	-0.106262	-1.000000	-1.000000	-1.000000	-1.000000	-1.000000	-1.000000	-1.000000	146.620690	0.000000	-1.000000	-1.000000	247216.000000	1772311152.512295
-16814.970000	-13677.795000	-18187.605000	-13278.960000	0.000000	0.000000	0.000000	0.000000	-117.469891	-35.479132	89.927937	24.188070	0.000000	0.000000	-0.000000	-0.000000	-31.725540	-5.051060	9.842700	0.048950	0.986631	-0.106262	-1.000000	-1.000000	-1.000000	-1.000000	-1.000000	-1.000000	-1.000000	146.620690	0.000000	-1.000000	-1.000000	247217.000000	1772311152.516286
-16566.615000	-13640.535000	-18381.015000	-13378.185000	0.000000	0.000000	0.000000	0.000000	-48.464718	-36.141480	104.002589	101.694059	0.000000	0.000000	-0.000000	-0.000000	-31.725540	-5.051060	9.842700	0.048950	0.986631	-0.106262	-1.000000	-1.000000	-1.000000	-1.000000	-1.000000	-1.000000	-1.000000	146.620690	0.000000	-1.000000	-1.000000	247218.000000	1772311152.516289
-16617.105000	-13603.635000	-18022.770000	-12916.395000	0.000000	0.000000	0.000000	0.000000	46.843705	-16.873537	63.523728	124.450117	0.000000	0.000000	-0.000000	-0.000000	-31.725540	-5.051060	9.842700	0.048950	0.986631	-0.106262	-1.000000	-1.000000	-1.000000	-1.000000	-1.000000	-1.000000	-1.000000	146.620690	0.000000	-1.000000	-1.000000	247219.000000	1772311152.520271
-17136.045000	-13604.040000	-18159.570000	-13050.945000	0.000000	0.000000	0.000000	0.000000	88.586888	12.832870	0.691472	101.003006	0.000000	0.000000	-0.000000	-0.000000	-31.725540	-5.051060	9.842700	0.048950	0.986631	-0.106262	-1.000000	-1.000000	-1.000000	-1.000000	-1.000000	-1.000000	-1.000000	146.620690	0.000000	-1.000000	-1.000000	247220.000000	1772311152.520275
-17285.850000	-13598.100000	-18438.660000	-13454.640000	0.000000	0.000000	0.000000	0.000000	29.478079	36.249170	-41.787844	52.123870	0.000000	0.000000	-0.000000	-0.000000	-31.725540	-5.051060	9.842700	0.048950	0.986631	-0.106262	-1.000000	-1.000000	-1.000000	-1.000000	-1.000000	-1.000000	-1.000000	146.620690	0.000000	-1.000000	-1.000000	247221.000000	1772311152.524157
-17210.295000	-13568.220000	-18304.245000	-13253.535000	0.000000	0.000000	0.000000	0.000000	-90.486109	41.297506	-65.075972	-25.946822	0.000000	0.000000	-0.000000	-0.000000	-31.725540	-5.051060	9.842700	0.048950	0.986631	-0.106262	-1.000000	-1.000000	-1.000000	-1.000000	-1.000000	-1.000000	-1.000000	146.620690	0.000000	-1.000000	-1.000000	247222.000000	1772311152.524160
