Channel1	Channel2	Channel3	Channel4	Channel5	Channel6	Channel7	Channel8	FilteredChannel1	FilteredChannel2	FilteredChannel3	FilteredChannel4	FilteredChannel5	FilteredChannel6	FilteredChannel7	FilteredChannel8	GyroX	GyroY	GyroZ	AccX	AccY	AccZ	PPG1	PPG2	rawPPG1	rawPPG2	rawPPG3	Hr	Hrv	Battery	Trigger	PhysicalTrigger	AutoTrigger	NumMeasurements	Timestamp
-1582.200000	36071.100000	-14776.560000	-18025.740000	0.000000	0.000000	0.000000	0.000000	-7.245205	27.816134	-4.791863	-0.468287	0.000000	0.000000	0.000000	0.000000	2.166920	0.228900	0.534100	-0.047851	0.878843	0.474059	-1.000000	-1.000000	-1.000000	-1.000000	-1.000000	-1.000000	-1.000000	138.827586	0.000000	-1.000000	-1.000000	215709.000000	1772918459.712175
-1540.530000	35904.285000	-14734.890000	-17989.920000	0.000000	0.000000	0.000000	0.000000	-98.654772	73.714180	-136.150959	-151.614551	0.000000	0.000000	0.000000	0.000000	2.166920	0.228900	0.534100	-0.047851	0.878843	0.474059	-1.000000	-1.000000	-1.000000	-1.000000	-1.000000	-1.000000	-1.000000	138.827586	0.000000	-1.000000	-1.000000	215710.000000	1772918459.712177
-1474.290000	35829.405000	-14648.040000	-17891.505000	0.000000	0.000000	0.000000	0.000000	-135.237250	74.180091	-192.407957	-219.580901	0.000000	0.000000	0.000000	0.000000	2.166920	0.228900	0.534100	-0.047851	0.878843	0.474059	-1.000000	-1.000000	-1.000000	-1.000000	-1.000000	-1.000000	-1.000000	138.827586	0.000000	-1.000000	-1.000000	215711.000000	1772918459.712362
-1375.650000	35810.955000	-14511.600000	-17740.485000	0.000000	0.000000	0.000000	0.000000	-95.920773	31.421427	-141.189299	-165.228499	0.000000	0.000000	0.000000	0.000000	2.166920	0.228900	0.534100	-0.047851	0.878843	0.474059	-1.000000	-1.000000	-1.000000	-1.000000	-1.000000	-1.000000	-1.000000	138.827586	0.000000	-1.000000	-1.000000	215712.000000	1772918459.712365
-1224.090000	35800.065000	-14284.890000	-17486.910000	0.000000	0.000000	0.000000	0.000000	-3.951629	-19.795588	-11.997269	-19.788449	0.000000	0.000000	0.000000	0.000000	2.166920	0.228900	0.534100	-0.047851	0.878843	0.474059	-1.000000	-1.000000	-1.000000	-1.000000	-1.000000	-1.000000	-1.000000	138.827586	0.000000	-1.000000	-1.000000	215713.000000	1772918459.716690
-1232.640000	35799.345000	-14274.900000	-17464.275000	0.000000	0.000000	0.000000	0.000000	89.361374	-44.380293	124.340107	137.000020	0.000000	0.000000	0.000000	0.000000	2.166920	0.228900	0.534100	-0.047851	0.878843	0.474059	-1.000000	-1.000000	-1.000000	-1.000000	-1.000000	-1.000000	-1.000000	138.827586	0.000000	-1.000000	-1.000000	215714.000000	1772918459.716693
-1311.255000	35792.505000	-14387.445000	-17586.495000	0.000000	0.000000	0.000000	0.000000	131.651674	-33.404302	192.022660	218.361062	0.000000	0.000000	0.000000	0.000000	1.083460	0.015260	1.587040	-0.048401	0.879453	0.475035	-1.000000	-1.000000	-1.000000	-1.000000	-1.000000	-1.000000	-1.000000	138.827586	0.000000	-1.000000	-1.000000	215715.000000	1772918459.720513
-1415.115000	35820.810000	-14541.345000	-17748.090000	0.000000	0.000000	0.000000	0.000000	97.569190	-1.654502	149.932035	175.864726	0.000000	0.000000	0.000000	0.000000	1.083460	0.015260	1.587040	-0.048401	0.879453	0.475035	-1.000000	-1.000000	-1.000000	-1.000000	-1.000000	-1.000000	-1.000000	138.827586	0.000000	-1.000000	-1.000000	215716.000000	1772918459.720516
-1491.885000	35766.450000	-14689.440000	-17918.595000	0.000000	0.000000	0.000000	0.000000	7.139096	28.257189	20.814658	32.849587	0.000000	0.000000	0.000000	0.000000	1.083460	0.015260	1.587040	-0.048401	0.879453	0.475035	-1.000000	-1.000000	-1.000000	-1.000000	-1.000000	-1.000000	-1.000000	138.827586	0.000000	-1.000000	-1.000000	215717.000000	1772918459.759624
-1533.690000	35726.580000	-14742.405000	-17987.760000	0.000000	0.000000	0.000000	0.000000	-86.522334	38.297413	-121.031293	-128.674044	0.000000	0.000000	0.000000	0.000000	1.083460	0.015260	1.587040	-0.048401	0.879453	0.475035	-1.000000	-1.000000	-1.000000	-1.000000	-1.000000	-1.000000	-1.000000	138.827586	0.000000	-1.000000	-1.000000	215718.000000	1772918459.759628
-1499.670000	35696.475000	-14680.125000	-17916.480000	0.000000	0.000000	0.000000	0.000000	-131.597943	23.902931	-195.839410	-218.694509	0.000000	0.000000	0.000000	0.000000	1.083460	0.015260	1.587040	-0.048401	0.879453	0.475035	-1.000000	-1.000000	-1.000000	-1.000000	-1.000000	-1.000000	-1.000000	138.827586	0.000000	-1.000000	-1.000000	215719.000000	1772918459.759632
-1446.120000	35693.730000	-14593.455000	-17816.805000	0.000000	0.000000	0.000000	0.000000	-106.497400	-3.081756	-164.262518	-189.954893	0.000000	0.000000	0.000000	0.000000	1.083460	0.015260	1.587040	-0.048401	0.879453	0.475035	-1.000000	-1.000000	-1.000000	-1.000000	-1.000000	-1.000000	-1.000000	138.827586	0.000000	-1.000000	-1.000000	215720.000000	1772918459.759635
-1317.240000	35700.345000	-14399.370000	-17600.040000	0.000000	0.000000	0.000000	0.000000	-27.201729	-23.983846	-46.237582	-61.080012	0.000000	0.000000	0.000000	0.000000	1.083460	0.015260	1.587040	-0.048401	0.879453	0.475035	-1.000000	-1.000000	-1.000000	-1.000000	-1.000000	-1.000000	-1.000000	138.827586	0.000000	-1.000000	-1.000000	215721.000000	1772918459.759638
-1218.240000	35595.180000	-14277.735000	-17458.065000	0.000000	0.000000	0.000000	0.000000	66.305032	-29.253023	96.267340	99.838409	0.000000	0.000000	0.000000	0.000000	1.083460	0.015260	1.587040	-0.048401	0.879453	0.475035	-1.000000	-1.000000	-1.000000	-1.000000	-1.000000	-1.000000	-1.000000	138.827586	0.000000	-1.000000	-1.000000	215722.000000	1772918459.759640
-1243.575000	35520.885000	-14326.110000	-17510.895000	0.000000	0.000000	0.000000	0.000000	129.218176	-25.128956	191.561527	211.113190	0.000000	0.000000	0.000000	0.000000	1.083460	0.015260	1.587040	-0.048401	0.879453	0.475035	-1.000000	-1.000000	-1.000000	-1.000000	-1.000000	-1.000000	-1.000000	138.827586	0.000000	-1.000000	-1.000000	215723.000000	1772918459.759643
-1322.595000	35561.205000	-14436.405000	-17630.595000	0.000000	0.000000	0.000000	0.000000	128.851524	-19.790049	189.363870	213.800461	0.000000	0.000000	0.000000	0.000000	1.083460	0.015260	1.587040	-0.048401	0.879453	0.475035	-1.000000	-1.000000	-1.000000	-1.000000	-1.000000	-1.000000	-1.000000	138.827586	0.000000	-1.000000	-1.000000	215724.000000	1772918459.759645
-1466.595000	35644.770000	-14646.690000	-17859.105000	0.000000	0.000000	0.000000	0.000000	61.674412	-8.424245	87.732616	103.482350	0.000000	0.000000	0.000000	0.000000	5.783540	-2.243220	1.693860	-0.048340	0.878477	0.478636	-1.000000	-1.000000	-1.000000	-1.000000	-1.000000	-1.000000	-1.000000	138.827586	0.000000	-1.000000	-1.000000	215725.000000	1772918459.759648
-1542.960000	35642.610000	-14767.740000	-18004.995000	0.000000	0.000000	0.000000	0.000000	-40.282323	15.442633	-62.457666	-63.962246	0.000000	0.000000	0.000000	0.000000	5.783540	-2.243220	1.693860	-0.048340	0.878477	0.478636	-1.000000	-1.000000	-1.000000	-1.000000	-1.000000	-1.000000	-1.000000	138.827586	0.000000	-1.000000	-1.000000	215726.000000	1772918459.759650
-1518.570000	35689.680000	-14720.490000	-17956.845000	0.000000	0.000000	0.000000	0.000000	-123.165597	42.475782	-181.712886	-199.762166	0.000000	0.000000	0.000000	0.000000	5.783540	-2.243220	1.693860	-0.048340	0.878477	0.478636	-1.000000	-1.000000	-1.000000	-1.000000	-1.000000	-1.000000	-1.000000	138.827586	0.000000	-1.000000	-1.000000	215727.000000	1772918459.759653
-1474.605000	35749.935000	-14646.780000	-17875.080000	0.000000	0.000000	0.000000	0.000000	-141.024633	55.835954	-204.053461	-229.028938	0.000000	0.000000	0.000000	0.000000	5.783540	-2.243220	1.693860	-0.048340	0.878477	0.478636	-1.000000	-1.000000	-1.000000	-1.000000	-1.000000	-1.000000	-1.000000	138.827586	0.000000	-1.000000	-1.000000	215728.000000	1772918459.759655
-1391.670000	35809.245000	-14513.265000	-17723.295000	0.000000	0.000000	0.000000	0.000000	-85.153519	48.831483	-118.204861	-136.609770	0.000000	0.000000	0.000000	0.000000	5.783540	-2.243220	1.693860	-0.048340	0.878477	0.478636	-1.000000	-1.000000	-1.000000	-1.000000	-1.000000	-1.000000	-1.000000	138.827586	0.000000	-1.000000	-1.000000	215729.000000	1772918459.759658
-1325.070000	35911.755000	-14388.255000	-17565.705000	0.000000	0.000000	0.000000	0.000000	11.638575	27.377056	26.404893	24.726771	0.000000	0.000000	0.000000	0.000000	5.783540	-2.243220	1.693860	-0.048340	0.878477	0.478636	-1.000000	-1.000000	-1.000000	-1.000000	-1.000000	-1.000000	-1.000000	138.827586	0.000000	-1.000000	-1.000000	215730.000000	1772918459.759660
-1391.355000	36051.840000	-14468.670000	-17641.980000	0.000000	0.000000	0.000000	0.000000	96.132215	3.870372	151.033645	167.703130	0.000000	0.000000	0.000000	0.000000	5.783540	-2.243220	1.693860	-0.048340	0.878477	0.478636	-1.000000	-1.000000	-1.000000	-1.000000	-1.000000	-1.000000	-1.000000	138.827586	0.000000	-1.000000	-1.000000	215731.000000	1772918459.759663
-1434.510000	36069.300000	-14544.540000	-17730.000000	0.000000	0.000000	0.000000	0.000000	123.890250	-12.555491	189.585156	216.311921	0.000000	0.000000	0.000000	0.000000	5.783540	-2.243220	1.693860	-0.048340	0.878477	0.478636	-1.000000	-1.000000	-1.000000	-1.000000	-1.000000	-1.000000	-1.000000	138.827586	0.000000	-1.000000	-1.000000	215732.000000	1772918459.759665
-1512.585000	36063.720000	-14665.410000	-17865.315000	0.000000	0.000000	0.000000	0.000000	85.017467	-25.221192	126.057921	148.463934	0.000000	0.000000	0.000000	0.000000	5.783540	-2.243220	1.693860	-0.048340	0.878477	0.478636	-1.000000	-1.000000	-1.000000	-1.000000	-1.000000	-1.000000	-1.000000	138.827586	0.000000	-1.000000	-1.000000	215733.000000	1772918459.759667
-1594.170000	35963.730000	-14807.385000	-18038.970000	0.000000	0.000000	0.000000	0.000000	7.463856	-44.210143	2.038168	7.735079	0.000000	0.000000	0.000000	0.000000	5.783540	-2.243220	1.693860	-0.048340	0.878477	0.478636	-1.000000	-1.000000	-1.000000	-1.000000	-1.000000	-1.000000	-1.000000	138.827586	0.000000	-1.000000	-1.000000	215734.000000	1772918459.759669
-1553.265000	35847.270000	-14763.105000	-17998.605000	0.000000	0.000000	0.000000	0.000000	-63.681382	-72.100312	-112.429451	-126.869839	0.000000	0.000000	0.000000	0.000000	5.768280	0.839300	0.686700	-0.045593	0.881406	0.478209	-1.000000	-1.000000	-1.000000	-1.000000	-1.000000	-1.000000	-1.000000	138.827586	0.000000	-1.000000	-1.000000	215735.000000	1772918459.760529
-1511.415000	35853.030000	-14696.370000	-17916.885000	0.000000	0.000000	0.000000	0.000000	-90.503373	-96.032142	-156.427469	-183.267998	0.000000	0.000000	0.000000	0.000000	5.768280	0.839300	0.686700	-0.045593	0.881406	0.478209	-1.000000	-1.000000	-1.000000	-1.000000	-1.000000	-1.000000	-1.000000	138.827586	0.000000	-1.000000	-1.000000	215736.000000	1772918459.760532
-1432.215000	35813.880000	-14578.380000	-17781.615000	0.000000	0.000000	0.000000	0.000000	-62.001457	-93.431651	-110.018917	-134.242539	0.000000	0.000000	0.000000	0.000000	5.768280	0.839300	0.686700	-0.045593	0.881406	0.478209	-1.000000	-1.000000	-1.000000	-1.000000	-1.000000	-1.000000	-1.000000	138.827586	0.000000	-1.000000	-1.000000	215737.000000	1772918459.767870
-1317.780000	35809.560000	-14403.330000	-17573.895000	0.000000	0.000000	0.000000	0.000000	1.636754	-53.158553	-3.631884	-11.606454	0.000000	0.000000	0.000000	0.000000	5.768280	0.839300	0.686700	-0.045593	0.881406	0.478209	-1.000000	-1.000000	-1.000000	-1.000000	-1.000000	-1.000000	-1.000000	138.827586	0.000000	-1.000000	-1.000000	215738.000000	1772918459.767872
-1321.200000	35870.220000	-14404.545000	-17563.230000	0.000000	0.000000	0.000000	0.000000	63.583010	12.612352	102.964424	115.787902	0.000000	0.000000	0.000000	0.000000	5.768280	0.839300	0.686700	-0.045593	0.881406	0.478209	-1.000000	-1.000000	-1.000000	-1.000000	-1.000000	-1.000000	-1.000000	138.827586	0.000000	-1.000000	-1.000000	215739.000000	1772918459.770991
-1376.820000	35866.080000	-14483.565000	-17651.925000	0.000000	0.000000	0.000000	0.000000	88.240019	78.329310	150.490457	177.077238	0.000000	0.000000	0.000000	0.000000	5.768280	0.839300	0.686700	-0.045593	0.881406	0.478209	-1.000000	-1.000000	-1.000000	-1.000000	-1.000000	-1.000000	-1.000000	138.827586	0.000000	-1.000000	-1.000000	215740.000000	1772918459.770994
-1441.080000	35825.535000	-14577.120000	-17758.260000	0.000000	0.000000	0.000000	0.000000	59.592018	116.977298	111.082830	136.535796	0.000000	0.000000	0.000000	0.000000	5.768280	0.839300	0.686700	-0.045593	0.881406	0.478209	-1.000000	-1.000000	-1.000000	-1.000000	-1.000000	-1.000000	-1.000000	138.827586	0.000000	-1.000000	-1.000000	215741.000000	1772918459.774158
-1576.620000	35848.755000	-14781.915000	-17990.145000	0.000000	0.000000	0.000000	0.000000	-7.843009	112.397189	6.034163	16.090344	0.000000	0.000000	0.000000	0.000000	5.768280	0.839300	0.686700	-0.045593	0.881406	0.478209	-1.000000	-1.000000	-1.000000	-1.000000	-1.000000	-1.000000	-1.000000	138.827586	0.000000	-1.000000	-1.000000	215742.000000	1772918459.774161
-1607.940000	35912.070000	-14832.855000	-18057.645000	0.000000	0.000000	0.000000	0.000000	-78.237815	72.476521	-108.619439	-119.732388	0.000000	0.000000	0.000000	0.000000	5.768280	0.839300	0.686700	-0.045593	0.881406	0.478209	-1.000000	-1.000000	-1.000000	-1.000000	-1.000000	-1.000000	-1.000000	138.827586	0.000000	-1.000000	-1.000000	215743.000000	1772918459.777616
-1565.280000	35935.695000	-14765.670000	-17981.595000	0.000000	0.000000	0.000000	0.000000	-112.737903	22.831098	-170.767429	-197.412190	0.000000	0.000000	0.000000	0.000000	5.768280	0.839300	0.686700	-0.045593	0.881406	0.478209	-1.000000	-1.000000	-1.000000	-1.000000	-1.000000	-1.000000	-1.000000	138.827586	0.000000	-1.000000	-1.000000	215744.000000	1772918459.777618
-1503.945000	35978.445000	-14675.220000	-17881.785000	0.000000	0.000000	0.000000	0.000000	-89.011289	-15.206351	-142.980988	-171.057183	0.000000	0.000000	0.000000	0.000000	6.744920	-0.854560	5.600420	-0.048706	0.885374	0.479247	-1.000000	-1.000000	-1.000000	-1.000000	-1.000000	-1.000000	-1.000000	138.827586	0.000000	-1.000000	-1.000000	215745.000000	1772918459.781657
-1379.565000	36017.730000	-14485.590000	-17671.275000	0.000000	0.000000	0.000000	0.000000	-16.212156	-34.872697	-36.676907	-51.474083	0.000000	0.000000	0.000000	0.000000	6.744920	-0.854560	5.600420	-0.048706	0.885374	0.479247	-1.000000	-1.000000	-1.000000	-1.000000	-1.000000	-1.000000	-1.000000	138.827586	0.000000	-1.000000	-1.000000	215746.000000	1772918459.781660
-1316.835000	35998.785000	-14389.740000	-17552.790000	0.000000	0.000000	0.000000	0.000000	69.616282	-40.119532	93.968863	99.848051	0.000000	0.000000	0.000000	0.000000	6.744920	-0.854560	5.600420	-0.048706	0.885374	0.479247	-1.000000	-1.000000	-1.000000	-1.000000	-1.000000	-1.000000	-1.000000	138.827586	0.000000	-1.000000	-1.000000	215747.000000	1772918459.785557
-1380.690000	36054.675000	-14479.695000	-17652.420000	0.000000	0.000000	0.000000	0.000000	123.807147	-38.503914	180.127564	203.320301	0.000000	0.000000	0.000000	0.000000	6.744920	-0.854560	5.600420	-0.048706	0.885374	0.479247	-1.000000	-1.000000	-1.000000	-1.000000	-1.000000	-1.000000	-1.000000	138.827586	0.000000	-1.000000	-1.000000	215748.000000	1772918459.785560
-1460.565000	36130.635000	-14590.125000	-17774.190000	0.000000	0.000000	0.000000	0.000000	114.740120	-32.520907	172.112810	200.216039	0.000000	0.000000	0.000000	0.000000	6.744920	-0.854560	5.600420	-0.048706	0.885374	0.479247	-1.000000	-1.000000	-1.000000	-1.000000	-1.000000	-1.000000	-1.000000	138.827586	0.000000	-1.000000	-1.000000	215749.000000	1772918459.789541
-1602.585000	36271.620000	-14793.480000	-17998.605000	0.000000	0.000000	0.000000	0.000000	43.977867	-18.060506	70.525550	88.710755	0.000000	0.000000	0.000000	0.000000	6.744920	-0.854560	5.600420	-0.048706	0.885374	0.479247	-1.000000	-1.000000	-1.000000	-1.000000	-1.000000	-1.000000	-1.000000	138.827586	0.000000	-1.000000	-1.000000	215750.000000	1772918459.789544
-1656.405000	36372.960000	-14893.200000	-18130.725000	0.000000	0.000000	0.000000	0.000000	-51.678747	6.230820	-70.983677	-71.963078	0.000000	0.000000	0.000000	0.000000	6.744920	-0.854560	5.600420	-0.048706	0.885374	0.479247	-1.000000	-1.000000	-1.000000	-1.000000	-1.000000	-1.000000	-1.000000	138.827586	0.000000	-1.000000	-1.000000	215751.000000	1772918459.793664
-1647.540000	36414.495000	-14855.265000	-18092.250000	0.000000	0.000000	0.000000	0.000000	-120.226945	30.317567	-175.359824	-194.717302	0.000000	0.000000	0.000000	0.000000	6.744920	-0.854560	5.600420	-0.048706	0.885374	0.479247	-1.000000	-1.000000	-1.000000	-1.000000	-1.000000	-1.000000	-1.000000	138.827586	0.000000	-1.000000	-1.000000	215752.000000	1772918459.793667
-1639.530000	36457.335000	-14804.460000	-18024.570000	0.000000	0.000000	0.000000	0.000000	-124.873932	37.329618	-185.136500	-212.202813	0.000000	0.000000	0.000000	0.000000	6.744920	-0.854560	5.600420	-0.048706	0.885374	0.479247	-1.000000	-1.000000	-1.000000	-1.000000	-1.000000	-1.000000	-1.000000	138.827586	0.000000	-1.000000	-1.000000	215753.000000	1772918459.797515
-1555.920000	36520.380000	-14676.885000	-17880.885000	0.000000	0.000000	0.000000	0.000000	-66.003785	20.066436	-97.143038	-116.607933	0.000000	0.000000	0.000000	0.000000	6.744920	-0.854560	5.600420	-0.048706	0.885374	0.479247	-1.000000	-1.000000	-1.000000	-1.000000	-1.000000	-1.000000	-1.000000	138.827586	0.000000	-1.000000	-1.000000	215754.000000	1772918459.797517
-1423.575000	36538.650000	-14499.270000	-17677.395000	0.000000	0.000000	0.000000	0.000000	24.651237	-11.389349	39.918204	39.196206	0.000000	0.000000	0.000000	0.000000	5.341000	-1.785420	2.060100	-0.045410	0.889646	0.481688	-1.000000	-1.000000	-1.000000	-1.000000	-1.000000	-1.000000	-1.000000	138.827586	0.000000	-1.000000	-1.000000	215755.000000	1772918459.801692
-1431.765000	36509.895000	-14515.335000	-17691.570000	0.000000	0.000000	0.000000	0.000000	104.297890	-41.107524	156.972745	175.604968	0.000000	0.000000	0.000000	0.000000	5.341000	-1.785420	2.060100	-0.045410	0.889646	0.481688	-1.000000	-1.000000	-1.000000	-1.000000	-1.000000	-1.000000	-1.000000	138.827586	0.000000	-1.000000	-1.000000	215756.000000	1772918459.801694
-1494.900000	36571.410000	-14598.810000	-17786.115000	0.000000	0.000000	0.000000	0.000000	133.956410	-57.881347	194.916478	222.801666	0.000000	0.000000	0.000000	0.000000	5.341000	-1.785420	2.060100	-0.045410	0.889646	0.481688	-1.000000	-1.000000	-1.000000	-1.000000	-1.000000	-1.000000	-1.000000	138.827586	0.000000	-1.000000	-1.000000	215757.000000	1772918459.805681
-1562.265000	36583.155000	-14706.630000	-17906.130000	0.000000	0.000000	0.000000	0.000000	96.612544	-54.938906	133.259603	155.323926	0.000000	0.000000	0.000000	0.000000	5.341000	-1.785420	2.060100	-0.045410	0.889646	0.481688	-1.000000	-1.000000	-1.000000	-1.000000	-1.000000	-1.000000	-1.000000	138.827586	0.000000	-1.000000	-1.000000	215758.000000	1772918459.805684
-1661.625000	36537.525000	-14866.020000	-18089.955000	0.000000	0.000000	0.000000	0.000000	11.470073	-33.845881	4.868232	9.588773	0.000000	0.000000	0.000000	0.000000	5.341000	-1.785420	2.060100	-0.045410	0.889646	0.481688	-1.000000	-1.000000	-1.000000	-1.000000	-1.000000	-1.000000	-1.000000	138.827586	0.000000	-1.000000	-1.000000	215759.000000	1772918459.809657
-1696.680000	36534.645000	-14898.330000	-18127.170000	0.000000	0.000000	0.000000	0.000000	-76.813896	-7.119602	-123.322676	-137.996461	0.000000	0.000000	0.000000	0.000000	5.341000	-1.785420	2.060100	-0.045410	0.889646	0.481688	-1.000000	-1.000000	-1.000000	-1.000000	-1.000000	-1.000000	-1.000000	138.827586	0.000000	-1.000000	-1.000000	215760.000000	1772918459.809660
-1727.910000	36614.070000	-14921.145000	-18139.590000	0.000000	0.000000	0.000000	0.000000	-124.893410	14.895064	-187.620209	-213.587438	0.000000	0.000000	0.000000	0.000000	5.341000	-1.785420	2.060100	-0.045410	0.889646	0.481688	-1.000000	-1.000000	-1.000000	-1.000000	-1.000000	-1.000000	-1.000000	138.827586	0.000000	-1.000000	-1.000000	215761.000000	1772918459.813539
-1575.270000	36649.800000	-14731.065000	-17948.655000	0.000000	0.000000	0.000000	0.000000	-110.781864	32.625191	-157.846707	-181.479557	0.000000	0.000000	0.000000	0.000000	5.341000	-1.785420	2.060100	-0.045410	0.889646	0.481688	-1.000000	-1.000000	-1.000000	-1.000000	-1.000000	-1.000000	-1.000000	138.827586	0.000000	-1.000000	-1.000000	215762.000000	1772918459.813542
-1437.210000	36688.230000	-14523.975000	-17704.845000	0.000000	0.000000	0.000000	0.000000	-39.714156	47.042136	-47.440309	-57.074485	0.000000	0.000000	0.000000	0.000000	5.341000	-1.785420	2.060100	-0.045410	0.889646	0.481688	-1.000000	-1.000000	-1.000000	-1.000000	-1.000000	-1.000000	-1.000000	138.827586	0.000000	-1.000000	-1.000000	215763.000000	1772918459.817685
-1460.880000	36737.010000	-14552.010000	-17722.755000	0.000000	0.000000	0.000000	0.000000	53.981796	52.893896	89.571687	98.322824	0.000000	0.000000	0.000000	0.000000	5.341000	-1.785420	2.060100	-0.045410	0.889646	0.481688	-1.000000	-1.000000	-1.000000	-1.000000	-1.000000	-1.000000	-1.000000	138.827586	0.000000	-1.000000	-1.000000	215764.000000	1772918459.817688
-1501.695000	36703.035000	-14619.240000	-17804.835000	0.000000	0.000000	0.000000	0.000000	116.464878	44.271045	176.564740	198.817602	0.000000	0.000000	0.000000	0.000000	13.321980	0.473060	-6.989080	-0.029968	0.873228	0.488585	-1.000000	-1.000000	-1.000000	-1.000000	-1.000000	-1.000000	-1.000000	138.827586	0.000000	-1.000000	-1.000000	215765.000000	1772918459.821535
-1602.405000	36692.145000	-14750.190000	-17945.235000	0.000000	0.000000	0.000000	0.000000	109.501617	19.741938	161.668406	184.989432	0.000000	0.000000	0.000000	0.000000	13.321980	0.473060	-6.989080	-0.029968	0.873228	0.488585	-1.000000	-1.000000	-1.000000	-1.000000	-1.000000	-1.000000	-1.000000	138.827586	0.000000	-1.000000	-1.000000	215766.000000	1772918459.821538
-1730.655000	36735.255000	-14940.540000	-18168.570000	0.000000	0.000000	0.000000	0.000000	38.621895	-12.927469	55.477466	66.671556	0.000000	0.000000	0.000000	0.000000	13.321980	0.473060	-6.989080	-0.029968	0.873228	0.488585	-1.000000	-1.000000	-1.000000	-1.000000	-1.000000	-1.000000	-1.000000	138.827586	0.000000	-1.000000	-1.000000	215767.000000	1772918459.825668
-1702.440000	36693.360000	-14914.305000	-18162.045000	0.000000	0.000000	0.000000	0.000000	-52.447168	-38.397761	-78.204149	-85.643876	0.000000	0.000000	0.000000	0.000000	13.321980	0.473060	-6.989080	-0.029968	0.873228	0.488585	-1.000000	-1.000000	-1.000000	-1.000000	-1.000000	-1.000000	-1.000000	138.827586	0.000000	-1.000000	-1.000000	215768.000000	1772918459.825671
-1660.725000	36684.945000	-14839.155000	-18080.145000	0.000000	0.000000	0.000000	0.000000	-108.285608	-46.963922	-160.182774	-182.543855	0.000000	0.000000	0.000000	0.000000	13.321980	0.473060	-6.989080	-0.029968	0.873228	0.488585	-1.000000	-1.000000	-1.000000	-1.000000	-1.000000	-1.000000	-1.000000	138.827586	0.000000	-1.000000	-1.000000	215769.000000	1772918459.829658
-1599.615000	36706.770000	-14746.230000	-17976.330000	0.000000	0.000000	0.000000	0.000000	-97.013060	-39.228997	-144.094386	-168.976769	0.000000	0.000000	0.000000	0.000000	13.321980	0.473060	-6.989080	-0.029968	0.873228	0.488585	-1.000000	-1.000000	-1.000000	-1.000000	-1.000000	-1.000000	-1.000000	138.827586	0.000000	-1.000000	-1.000000	215770.000000	1772918459.829661
-1471.950000	36680.760000	-14559.390000	-17755.605000	0.000000	0.000000	0.000000	0.000000	-29.683311	-20.266098	-45.017059	-57.989323	0.000000	0.000000	0.000000	0.000000	13.321980	0.473060	-6.989080	-0.029968	0.873228	0.488585	-1.000000	-1.000000	-1.000000	-1.000000	-1.000000	-1.000000	-1.000000	138.827586	0.000000	-1.000000	-1.000000	215771.000000	1772918459.836983
-1444.590000	36692.550000	-14524.020000	-17683.380000	0.000000	0.000000	0.000000	0.000000	52.720716	2.057332	76.770827	84.382624	0.000000	0.000000	0.000000	0.000000	13.321980	0.473060	-6.989080	-0.029968	0.873228	0.488585	-1.000000	-1.000000	-1.000000	-1.000000	-1.000000	-1.000000	-1.000000	138.827586	0.000000	-1.000000	-1.000000	215772.000000	1772918459.836986
-1452.915000	36576.135000	-14562.540000	-17733.105000	0.000000	0.000000	0.000000	0.000000	104.360359	17.607096	152.404829	178.557227	0.000000	0.000000	0.000000	0.000000	13.321980	0.473060	-6.989080	-0.029968	0.873228	0.488585	-1.000000	-1.000000	-1.000000	-1.000000	-1.000000	-1.000000	-1.000000	138.827586	0.000000	-1.000000	-1.000000	215773.000000	1772918459.836990
-1457.595000	36444.420000	-14622.075000	-17809.695000	0.000000	0.000000	0.000000	0.000000	98.593167	16.650093	140.872981	172.323959	0.000000	0.000000	0.000000	0.000000	13.321980	0.473060	-6.989080	-0.029968	0.873228	0.488585	-1.000000	-1.000000	-1.000000	-1.000000	-1.000000	-1.000000	-1.000000	138.827586	0.000000	-1.000000	-1.000000	215774.000000	1772918459.836993
-1534.185000	36337.635000	-14808.645000	-18005.490000	0.000000	0.000000	0.000000	0.000000	42.126059	-2.573248	50.975132	70.214354	0.000000	0.000000	0.000000	0.000000	19.044480	7.263760	2.350040	-0.026855	0.865598	0.483397	-1.000000	-1.000000	-1.000000	-1.000000	-1.000000	-1.000000	-1.000000	138.827586	0.000000	-1.000000	-1.000000	215775.000000	1772918459.844268
-1583.955000	36313.740000	-14951.385000	-18119.430000	0.000000	0.000000	0.000000	0.000000	-33.794798	-25.727310	-69.681281	-72.393609	0.000000	0.000000	0.000000	0.000000	19.044480	7.263760	2.350040	-0.026855	0.865598	0.483397	-1.000000	-1.000000	-1.000000	-1.000000	-1.000000	-1.000000	-1.000000	138.827586	0.000000	-1.000000	-1.000000	215776.000000	1772918459.844271
-1583.685000	36417.735000	-14923.395000	-18078.930000	0.000000	0.000000	0.000000	0.000000	-92.327972	-28.281945	-160.151692	-180.146322	0.000000	0.000000	0.000000	0.000000	19.044480	7.263760	2.350040	-0.026855	0.865598	0.483397	-1.000000	-1.000000	-1.000000	-1.000000	-1.000000	-1.000000	-1.000000	138.827586	0.000000	-1.000000	-1.000000	215777.000000	1772918459.846030
-1557.270000	36483.345000	-14820.120000	-17993.115000	0.000000	0.000000	0.000000	0.000000	-106.522912	4.362325	-170.363053	-194.426141	0.000000	0.000000	0.000000	0.000000	19.044480	7.263760	2.350040	-0.026855	0.865598	0.483397	-1.000000	-1.000000	-1.000000	-1.000000	-1.000000	-1.000000	-1.000000	138.827586	0.000000	-1.000000	-1.000000	215778.000000	1772918459.846032
-1465.470000	36475.245000	-14633.145000	-17826.570000	0.000000	0.000000	0.000000	0.000000	-70.838912	57.923036	-88.544266	-106.673702	0.000000	0.000000	0.000000	0.000000	19.044480	7.263760	2.350040	-0.026855	0.865598	0.483397	-1.000000	-1.000000	-1.000000	-1.000000	-1.000000	-1.000000	-1.000000	138.827586	0.000000	-1.000000	-1.000000	215779.000000	1772918459.849734
-1409.130000	36491.670000	-14468.535000	-17672.490000	0.000000	0.000000	0.000000	0.000000	-3.331680	95.722609	47.005528	36.686269	0.000000	0.000000	0.000000	0.000000	19.044480	7.263760	2.350040	-0.026855	0.865598	0.483397	-1.000000	-1.000000	-1.000000	-1.000000	-1.000000	-1.000000	-1.000000	138.827586	0.000000	-1.000000	-1.000000	215780.000000	1772918459.849737
-1497.465000	36508.860000	-14517.855000	-17742.735000	0.000000	0.000000	0.000000	0.000000	60.679813	90.844096	164.975655	159.965081	0.000000	0.000000	0.000000	0.000000	19.044480	7.263760	2.350040	-0.026855	0.865598	0.483397	-1.000000	-1.000000	-1.000000	-1.000000	-1.000000	-1.000000	-1.000000	138.827586	0.000000	-1.000000	-1.000000	215781.000000	1772918459.854915
-1536.975000	36517.320000	-14617.350000	-17854.020000	0.000000	0.000000	0.000000	0.000000	85.127398	46.566816	197.427869	195.520323	0.000000	0.000000	0.000000	0.000000	19.044480	7.263760	2.350040	-0.026855	0.865598	0.483397	-1.000000	-1.000000	-1.000000	-1.000000	-1.000000	-1.000000	-1.000000	138.827586	0.000000	-1.000000	-1.000000	215782.000000	1772918459.854918
-1544.490000	36513.585000	-14665.455000	-17917.920000	0.000000	0.000000	0.000000	0.000000	59.990095	-12.844818	124.230820	125.048987	0.000000	0.000000	0.000000	0.000000	19.044480	7.263760	2.350040	-0.026855	0.865598	0.483397	-1.000000	-1.000000	-1.000000	-1.000000	-1.000000	-1.000000	-1.000000	138.827586	0.000000	-1.000000	-1.000000	215783.000000	1772918459.858926
-1656.945000	36464.895000	-14832.045000	-18104.445000	0.000000	0.000000	0.000000	0.000000	7.572403	-62.291813	-11.235120	-7.154812	0.000000	0.000000	0.000000	0.000000	19.044480	7.263760	2.350040	-0.026855	0.865598	0.483397	-1.000000	-1.000000	-1.000000	-1.000000	-1.000000	-1.000000	-1.000000	138.827586	0.000000	-1.000000	-1.000000	215784.000000	1772918459.858929
-1613.745000	36353.655000	-14806.530000	-18074.475000	0.000000	0.000000	0.000000	0.000000	-39.820440	-89.392974	-135.028091	-127.502824	0.000000	0.000000	0.000000	0.000000	22.432200	4.761120	9.308600	-0.041748	0.870725	0.483092	-1.000000	-1.000000	-1.000000	-1.000000	-1.000000	-1.000000	-1.000000	138.827586	0.000000	-1.000000	-1.000000	215785.000000	1772918459.862330
-1559.745000	36274.815000	-14754.375000	-17992.305000	0.000000	0.000000	0.000000	0.000000	-56.988125	-94.551781	-185.332766	-173.961062	0.000000	0.000000	0.000000	0.000000	22.432200	4.761120	9.308600	-0.041748	0.870725	0.483092	-1.000000	-1.000000	-1.000000	-1.000000	-1.000000	-1.000000	-1.000000	138.827586	0.000000	-1.000000	-1.000000	215786.000000	1772918459.862332
-1476.405000	36217.350000	-14622.615000	-17852.085000	0.000000	0.000000	0.000000	0.000000	-34.587966	-80.899319	-140.260014	-124.103175	0.000000	0.000000	0.000000	0.000000	22.432200	4.761120	9.308600	-0.041748	0.870725	0.483092	-1.000000	-1.000000	-1.000000	-1.000000	-1.000000	-1.000000	-1.000000	138.827586	0.000000	-1.000000	-1.000000	215787.000000	1772918459.897804
-1335.330000	36089.370000	-14417.730000	-17622.945000	0.000000	0.000000	0.000000	0.000000	14.932092	-51.102239	-26.050991	-6.083104	0.000000	0.000000	0.000000	0.000000	22.432200	4.761120	9.308600	-0.041748	0.870725	0.483092	-1.000000	-1.000000	-1.000000	-1.000000	-1.000000	-1.000000	-1.000000	138.827586	0.000000	-1.000000	-1.000000	215788.000000	1772918459.897807
-1328.715000	36026.505000	-14403.375000	-17605.170000	0.000000	0.000000	0.000000	0.000000	63.717629	-12.675119	98.266172	117.375983	0.000000	0.000000	0.000000	0.000000	22.432200	4.761120	9.308600	-0.041748	0.870725	0.483092	-1.000000	-1.000000	-1.000000	-1.000000	-1.000000	-1.000000	-1.000000	138.827586	0.000000	-1.000000	-1.000000	215789.000000	1772918459.897839
-1376.370000	36001.935000	-14475.780000	-17686.530000	0.000000	0.000000	0.000000	0.000000	80.842342	25.123145	166.785518	178.052481	0.000000	0.000000	0.000000	0.000000	22.432200	4.761120	9.308600	-0.041748	0.870725	0.483092	-1.000000	-1.000000	-1.000000	-1.000000	-1.000000	-1.000000	-1.000000	138.827586	0.000000	-1.000000	-1.000000	215790.000000	1772918459.897841
-1458.540000	36010.395000	-14613.705000	-17832.240000	0.000000	0.000000	0.000000	0.000000	49.293869	57.664718	140.434629	137.809796	0.000000	0.000000	0.000000	0.000000	22.432200	4.761120	9.308600	-0.041748	0.870725	0.483092	-1.000000	-1.000000	-1.000000	-1.000000	-1.000000	-1.000000	-1.000000	138.827586	0.000000	-1.000000	-1.000000	215791.000000	1772918459.897861
-1594.980000	36078.570000	-14821.200000	-18071.190000	0.000000	0.000000	0.000000	0.000000	-19.729921	82.856797	32.797246	14.574105	0.000000	0.000000	0.000000	0.000000	22.432200	4.761120	9.308600	-0.041748	0.870725	0.483092	-1.000000	-1.000000	-1.000000	-1.000000	-1.000000	-1.000000	-1.000000	138.827586	0.000000	-1.000000	-1.000000	215792.000000	1772918459.897863
-1606.005000	36075.780000	-14818.770000	-18092.610000	0.000000	0.000000	0.000000	0.000000	-91.064906	96.204843	-96.030377	-126.032700	0.000000	0.000000	0.000000	0.000000	22.432200	4.761120	9.308600	-0.041748	0.870725	0.483092	-1.000000	-1.000000	-1.000000	-1.000000	-1.000000	-1.000000	-1.000000	138.827586	0.000000	-1.000000	-1.000000	215793.000000	1772918459.897866
-1578.645000	36106.515000	-14756.040000	-18019.755000	0.000000	0.000000	0.000000	0.000000	-123.672223	89.880460	-171.013265	-204.110085	0.000000	0.000000	0.000000	0.000000	22.432200	4.761120	9.308600	-0.041748	0.870725	0.483092	-1.000000	-1.000000	-1.000000	-1.000000	-1.000000	-1.000000	-1.000000	138.827586	0.000000	-1.000000	-1.000000	215794.000000	1772918459.897868
-1509.345000	36074.430000	-14660.460000	-17910.630000	0.000000	0.000000	0.000000	0.000000	-94.809259	59.199060	-147.281341	-171.537491	0.000000	0.000000	0.000000	0.000000	24.980620	-7.996240	5.249440	-0.058166	0.887510	0.482848	-1.000000	-1.000000	-1.000000	-1.000000	-1.000000	-1.000000	-1.000000	138.827586	0.000000	-1.000000	-1.000000	215795.000000	1772918459.897871
-1372.140000	36060.435000	-14474.520000	-17696.340000	0.000000	0.000000	0.000000	0.000000	-15.602683	9.756658	-39.480044	-44.266938	0.000000	0.000000	0.000000	0.000000	24.980620	-7.996240	5.249440	-0.058166	0.887510	0.482848	-1.000000	-1.000000	-1.000000	-1.000000	-1.000000	-1.000000	-1.000000	138.827586	0.000000	-1.000000	-1.000000	215796.000000	1772918459.897873
-1308.330000	36011.520000	-14399.730000	-17604.945000	0.000000	0.000000	0.000000	0.000000	76.114737	-43.377046	92.000356	109.954139	0.000000	0.000000	0.000000	0.000000	24.980620	-7.996240	5.249440	-0.058166	0.887510	0.482848	-1.000000	-1.000000	-1.000000	-1.000000	-1.000000	-1.000000	-1.000000	138.827586	0.000000	-1.000000	-1.000000	215797.000000	1772918459.897876
-1326.240000	35896.185000	-14438.205000	-17656.965000	0.000000	0.000000	0.000000	0.000000	134.709167	-84.049646	176.439623	209.848391	0.000000	0.000000	0.000000	0.000000	24.980620	-7.996240	5.249440	-0.058166	0.887510	0.482848	-1.000000	-1.000000	-1.000000	-1.000000	-1.000000	-1.000000	-1.000000	138.827586	0.000000	-1.000000	-1.000000	215798.000000	1772918459.897878
-1402.965000	35870.670000	-14535.855000	-17769.690000	0.000000	0.000000	0.000000	0.000000	128.323140	-102.139837	167.950309	201.276026	0.000000	0.000000	0.000000	0.000000	24.980620	-7.996240	5.249440	-0.058166	0.887510	0.482848	-1.000000	-1.000000	-1.000000	-1.000000	-1.000000	-1.000000	-1.000000	138.827586	0.000000	-1.000000	-1.000000	215799.000000	1772918459.897881
-1580.490000	35940.780000	-14763.645000	-18024.345000	0.000000	0.000000	0.000000	0.000000	56.603514	-90.447822	69.482650	86.825955	0.000000	0.000000	0.000000	0.000000	24.980620	-7.996240	5.249440	-0.058166	0.887510	0.482848	-1.000000	-1.000000	-1.000000	-1.000000	-1.000000	-1.000000	-1.000000	138.827586	0.000000	-1.000000	-1.000000	215800.000000	1772918459.897883
-1660.365000	36076.140000	-14866.200000	-18151.695000	0.000000	0.000000	0.000000	0.000000	-47.309881	-44.151900	-69.487356	-75.794644	0.000000	0.000000	0.000000	0.000000	24.980620	-7.996240	5.249440	-0.058166	0.887510	0.482848	-1.000000	-1.000000	-1.000000	-1.000000	-1.000000	-1.000000	-1.000000	138.827586	0.000000	-1.000000	-1.000000	215801.000000	1772918459.897886
-1616.265000	36217.395000	-14800.050000	-18080.550000	0.000000	0.000000	0.000000	0.000000	-129.410459	28.002034	-175.215117	-200.800290	0.000000	0.000000	0.000000	0.000000	24.980620	-7.996240	5.249440	-0.058166	0.887510	0.482848	-1.000000	-1.000000	-1.000000	-1.000000	-1.000000	-1.000000	-1.000000	138.827586	0.000000	-1.000000	-1.000000	215802.000000	1772918459.897888
-1596.780000	36288.630000	-14754.555000	-18021.060000	0.000000	0.000000	0.000000	0.000000	-142.997662	97.505332	-187.452234	-218.100412	0.000000	0.000000	0.000000	0.000000	24.980620	-7.996240	5.249440	-0.058166	0.887510	0.482848	-1.000000	-1.000000	-1.000000	-1.000000	-1.000000	-1.000000	-1.000000	138.827586	0.000000	-1.000000	-1.000000	215803.000000	1772918459.897891
-1489.680000	36308.835000	-14607.045000	-17847.990000	0.000000	0.000000	0.000000	0.000000	-80.906370	128.099144	-99.600553	-118.665453	0.000000	0.000000	0.000000	0.000000	24.980620	-7.996240	5.249440	-0.058166	0.887510	0.482848	-1.000000	-1.000000	-1.000000	-1.000000	-1.000000	-1.000000	-1.000000	138.827586	0.000000	-1.000000	-1.000000	215804.000000	1772918459.897893
-1409.400000	36328.320000	-14501.610000	-17710.245000	0.000000	0.000000	0.000000	0.000000	21.378039	100.029668	38.390450	41.170868	0.000000	0.000000	0.000000	0.000000	22.981560	-15.076880	12.360600	-0.064575	0.900449	0.475219	-1.000000	-1.000000	-1.000000	-1.000000	-1.000000	-1.000000	-1.000000	138.827586	0.000000	-1.000000	-1.000000	215805.000000	1772918459.901904
-1446.120000	36360.900000	-14561.595000	-17771.490000	0.000000	0.000000	0.000000	0.000000	109.551979	26.477312	152.503867	175.802814	0.000000	0.000000	0.000000	0.000000	22.981560	-15.076880	12.360600	-0.064575	0.900449	0.475219	-1.000000	-1.000000	-1.000000	-1.000000	-1.000000	-1.000000	-1.000000	138.827586	0.000000	-1.000000	-1.000000	215806.000000	1772918459.901906
-1482.795000	36348.345000	-14622.300000	-17843.490000	0.000000	0.000000	0.000000	0.000000	138.359941	-55.445460	183.203812	214.522662	0.000000	0.000000	0.000000	0.000000	22.981560	-15.076880	12.360600	-0.064575	0.900449	0.475219	-1.000000	-1.000000	-1.000000	-1.000000	-1.000000	-1.000000	-1.000000	138.827586	0.000000	-1.000000	-1.000000	215807.000000	1772918459.905749
-1588.770000	36359.640000	-14766.210000	-18005.490000	0.000000	0.000000	0.000000	0.000000	95.697748	-110.186761	117.916546	140.134460	0.000000	0.000000	0.000000	0.000000	22.981560	-15.076880	12.360600	-0.064575	0.900449	0.475219	-1.000000	-1.000000	-1.000000	-1.000000	-1.000000	-1.000000	-1.000000	138.827586	0.000000	-1.000000	-1.000000	215808.000000	1772918459.905752
-1656.540000	36215.910000	-14872.500000	-18143.010000	0.000000	0.000000	0.000000	0.000000	8.137697	-123.490052	-3.579686	-2.659137	0.000000	0.000000	0.000000	0.000000	22.981560	-15.076880	12.360600	-0.064575	0.900449	0.475219	-1.000000	-1.000000	-1.000000	-1.000000	-1.000000	-1.000000	-1.000000	138.827586	0.000000	-1.000000	-1.000000	215809.000000	1772918459.909855
-1604.205000	36065.520000	-14803.605000	-18074.340000	0.000000	0.000000	0.000000	0.000000	-75.240569	-105.895036	-113.650975	-134.888599	0.000000	0.000000	0.000000	0.000000	22.981560	-15.076880	12.360600	-0.064575	0.900449	0.475219	-1.000000	-1.000000	-1.000000	-1.000000	-1.000000	-1.000000	-1.000000	138.827586	0.000000	-1.000000	-1.000000	215810.000000	1772918459.909858
-1540.845000	36066.690000	-14721.570000	-17974.890000	0.000000	0.000000	0.000000	0.000000	-108.873271	-74.397897	-152.265497	-184.596227	0.000000	0.000000	0.000000	0.000000	22.981560	-15.076880	12.360600	-0.064575	0.900449	0.475219	-1.000000	-1.000000	-1.000000	-1.000000	-1.000000	-1.000000	-1.000000	138.827586	0.000000	-1.000000	-1.000000	215811.000000	1772918459.913776
-1438.515000	35976.060000	-14587.380000	-17819.505000	0.000000	0.000000	0.000000	0.000000	-77.599060	-33.481412	-101.813549	-127.906859	0.000000	0.000000	0.000000	0.000000	22.981560	-15.076880	12.360600	-0.064575	0.900449	0.475219	-1.000000	-1.000000	-1.000000	-1.000000	-1.000000	-1.000000	-1.000000	138.827586	0.000000	-1.000000	-1.000000	215812.000000	1772918459.913778
-1350.270000	35998.650000	-14454.405000	-17649.675000	0.000000	0.000000	0.000000	0.000000	-4.727360	16.784816	3.456886	-2.454230	0.000000	0.000000	0.000000	0.000000	22.981560	-15.076880	12.360600	-0.064575	0.900449	0.475219	-1.000000	-1.000000	-1.000000	-1.000000	-1.000000	-1.000000	-1.000000	138.827586	0.000000	-1.000000	-1.000000	215813.000000	1772918459.918010
-1366.380000	36101.430000	-14481.000000	-17673.885000	0.000000	0.000000	0.000000	0.000000	64.818055	70.145399	101.228527	118.396481	0.000000	0.000000	0.000000	0.000000	22.981560	-15.076880	12.360600	-0.064575	0.900449	0.475219	-1.000000	-1.000000	-1.000000	-1.000000	-1.000000	-1.000000	-1.000000	138.827586	0.000000	-1.000000	-1.000000	215814.000000	1772918459.918013
-1407.870000	36172.260000	-14547.465000	-17763.570000	0.000000	0.000000	0.000000	0.000000	90.382027	116.481886	135.509317	165.651062	0.000000	0.000000	0.000000	0.000000	20.494180	-20.692560	7.553700	-0.051391	0.878416	0.473387	-1.000000	-1.000000	-1.000000	-1.000000	-1.000000	-1.000000	-1.000000	138.965517	0.000000	-1.000000	-1.000000	215815.000000	1772918459.921924
-1494.405000	36271.395000	-14665.680000	-17896.860000	0.000000	0.000000	0.000000	0.000000	58.409999	141.715818	87.543727	112.874230	0.000000	0.000000	0.000000	0.000000	20.494180	-20.692560	7.553700	-0.051391	0.878416	0.473387	-1.000000	-1.000000	-1.000000	-1.000000	-1.000000	-1.000000	-1.000000	138.965517	0.000000	-1.000000	-1.000000	215816.000000	1772918459.921926
-1623.015000	36309.735000	-14855.490000	-18113.265000	0.000000	0.000000	0.000000	0.000000	-11.741229	131.972877	-14.889759	-8.938812	0.000000	0.000000	0.000000	0.000000	20.494180	-20.692560	7.553700	-0.051391	0.878416	0.473387	-1.000000	-1.000000	-1.000000	-1.000000	-1.000000	-1.000000	-1.000000	138.965517	0.000000	-1.000000	-1.000000	215817.000000	1772918459.925976
-1625.535000	36365.130000	-14872.590000	-18137.925000	0.000000	0.000000	0.000000	0.000000	-81.110844	84.297628	-116.194429	-132.422668	0.000000	0.000000	0.000000	0.000000	20.494180	-20.692560	7.553700	-0.051391	0.878416	0.473387	-1.000000	-1.000000	-1.000000	-1.000000	-1.000000	-1.000000	-1.000000	138.965517	0.000000	-1.000000	-1.000000	215818.000000	1772918459.925978
-1583.280000	36408.510000	-14815.080000	-18064.080000	0.000000	0.000000	0.000000	0.000000	-109.900369	12.314363	-159.840531	-188.419832	0.000000	0.000000	0.000000	0.000000	20.494180	-20.692560	7.553700	-0.051391	0.878416	0.473387	-1.000000	-1.000000	-1.000000	-1.000000	-1.000000	-1.000000	-1.000000	138.965517	0.000000	-1.000000	-1.000000	215819.000000	1772918459.929868
-1521.630000	36375.975000	-14723.955000	-17962.290000	0.000000	0.000000	0.000000	0.000000	-78.990035	-60.057809	-117.763773	-142.294374	0.000000	0.000000	0.000000	0.000000	20.494180	-20.692560	7.553700	-0.051391	0.878416	0.473387	-1.000000	-1.000000	-1.000000	-1.000000	-1.000000	-1.000000	-1.000000	138.965517	0.000000	-1.000000	-1.000000	215820.000000	1772918459.929870
-1378.845000	36253.170000	-14564.880000	-17750.520000	0.000000	0.000000	0.000000	0.000000	-2.752035	-114.086443	-9.645291	-16.230777	0.000000	0.000000	0.000000	0.000000	20.494180	-20.692560	7.553700	-0.051391	0.878416	0.473387	-1.000000	-1.000000	-1.000000	-1.000000	-1.000000	-1.000000	-1.000000	138.965517	0.000000	-1.000000	-1.000000	215821.000000	1772918459.933886
-1373.130000	36275.445000	-14594.715000	-17726.850000	0.000000	0.000000	0.000000	0.000000	79.881412	-140.589193	107.354343	124.056831	0.000000	0.000000	0.000000	0.000000	20.494180	-20.692560	7.553700	-0.051391	0.878416	0.473387	-1.000000	-1.000000	-1.000000	-1.000000	-1.000000	-1.000000	-1.000000	138.965517	0.000000	-1.000000	-1.000000	215822.000000	1772918459.933888
-1433.340000	36316.035000	-14690.295000	-17822.430000	0.000000	0.000000	0.000000	0.000000	124.311969	-130.610806	168.415764	203.027574	0.000000	0.000000	0.000000	0.000000	20.494180	-20.692560	7.553700	-0.051391	0.878416	0.473387	-1.000000	-1.000000	-1.000000	-1.000000	-1.000000	-1.000000	-1.000000	138.965517	0.000000	-1.000000	-1.000000	215823.000000	1772918459.937806
-1473.570000	36301.815000	-14744.295000	-17904.285000	0.000000	0.000000	0.000000	0.000000	104.340341	-80.799686	139.496670	175.902597	0.000000	0.000000	0.000000	0.000000	20.494180	-20.692560	7.553700	-0.051391	0.878416	0.473387	-1.000000	-1.000000	-1.000000	-1.000000	-1.000000	-1.000000	-1.000000	138.965517	0.000000	-1.000000	-1.000000	215824.000000	1772918459.937808
-1629.270000	36306.810000	-14926.050000	-18115.380000	0.000000	0.000000	0.000000	0.000000	30.283881	-8.440093	40.327855	57.943562	0.000000	0.000000	0.000000	0.000000	40.225360	-16.190860	15.931440	-0.016663	0.902525	0.479613	-1.000000	-1.000000	-1.000000	-1.000000	-1.000000	-1.000000	-1.000000	138.965517	0.000000	-1.000000	-1.000000	215825.000000	1772918459.941910
-1678.905000	36230.220000	-14934.420000	-18174.015000	0.000000	0.000000	0.000000	0.000000	-59.233853	54.644973	-72.674526	-86.887488	0.000000	0.000000	0.000000	0.000000	40.225360	-16.190860	15.931440	-0.016663	0.902525	0.479613	-1.000000	-1.000000	-1.000000	-1.000000	-1.000000	-1.000000	-1.000000	138.965517	0.000000	-1.000000	-1.000000	215826.000000	1772918459.941912
-1633.500000	36271.305000	-14812.155000	-18082.215000	0.000000	0.000000	0.000000	0.000000	-117.981803	84.478743	-138.181228	-181.600770	0.000000	0.000000	0.000000	0.000000	40.225360	-16.190860	15.931440	-0.016663	0.902525	0.479613	-1.000000	-1.000000	-1.000000	-1.000000	-1.000000	-1.000000	-1.000000	138.965517	0.000000	-1.000000	-1.000000	215827.000000	1772918459.945292
-1599.165000	36318.510000	-14770.080000	-18026.370000	0.000000	0.000000	0.000000	0.000000	-114.000649	80.833451	-120.906475	-175.799053	0.000000	0.000000	0.000000	0.000000	40.225360	-16.190860	15.931440	-0.016663	0.902525	0.479613	-1.000000	-1.000000	-1.000000	-1.000000	-1.000000	-1.000000	-1.000000	138.965517	0.000000	-1.000000	-1.000000	215828.000000	1772918459.945295
-1448.685000	36258.930000	-14577.795000	-17811.000000	0.000000	0.000000	0.000000	0.000000	-49.143477	59.263058	-34.900862	-75.998527	0.000000	0.000000	0.000000	0.000000	40.225360	-16.190860	15.931440	-0.016663	0.902525	0.479613	-1.000000	-1.000000	-1.000000	-1.000000	-1.000000	-1.000000	-1.000000	138.965517	0.000000	-1.000000	-1.000000	215829.000000	1772918459.950094
-1393.245000	36308.025000	-14499.450000	-17710.470000	0.000000	0.000000	0.000000	0.000000	42.435210	31.906792	68.827508	61.729656	0.000000	0.000000	0.000000	0.000000	40.225360	-16.190860	15.931440	-0.016663	0.902525	0.479613	-1.000000	-1.000000	-1.000000	-1.000000	-1.000000	-1.000000	-1.000000	138.965517	0.000000	-1.000000	-1.000000	215830.000000	1772918459.950097
-1497.105000	36450.180000	-14621.805000	-17847.045000	0.000000	0.000000	0.000000	0.000000	111.030433	8.462568	132.275379	162.526832	0.000000	0.000000	0.000000	0.000000	40.225360	-16.190860	15.931440	-0.016663	0.902525	0.479613	-1.000000	-1.000000	-1.000000	-1.000000	-1.000000	-1.000000	-1.000000	138.965517	0.000000	-1.000000	-1.000000	215831.000000	1772918459.983567
-1536.615000	36525.735000	-14702.130000	-17933.670000	0.000000	0.000000	0.000000	0.000000	116.146008	0.166064	116.483115	168.295719	0.000000	0.000000	0.000000	0.000000	40.225360	-16.190860	15.931440	-0.016663	0.902525	0.479613	-1.000000	-1.000000	-1.000000	-1.000000	-1.000000	-1.000000	-1.000000	138.965517	0.000000	-1.000000	-1.000000	215832.000000	1772918459.983572
-1599.165000	36513.720000	-14819.265000	-18066.195000	0.000000	0.000000	0.000000	0.000000	56.417939	5.105387	28.322188	76.753918	0.000000	0.000000	0.000000	0.000000	40.225360	-16.190860	15.931440	-0.016663	0.902525	0.479613	-1.000000	-1.000000	-1.000000	-1.000000	-1.000000	-1.000000	-1.000000	138.965517	0.000000	-1.000000	-1.000000	215833.000000	1772918459.983577
-1637.100000	36439.965000	-14898.285000	-18176.985000	0.000000	0.000000	0.000000	0.000000	-28.691239	3.914912	-80.407707	-55.313838	0.000000	0.000000	0.000000	0.000000	40.225360	-16.190860	15.931440	-0.016663	0.902525	0.479613	-1.000000	-1.000000	-1.000000	-1.000000	-1.000000	-1.000000	-1.000000	138.965517	0.000000	-1.000000	-1.000000	215834.000000	1772918459.983580
-1564.515000	36329.310000	-14809.320000	-18083.745000	0.000000	0.000000	0.000000	0.000000	-89.174169	-19.833473	-147.164109	-151.727558	0.000000	0.000000	0.000000	0.000000	28.994000	-9.232300	31.817100	-0.017212	0.938779	0.465514	-1.000000	-1.000000	-1.000000	-1.000000	-1.000000	-1.000000	-1.000000	138.965517	0.000000	-1.000000	-1.000000	215835.000000	1772918459.983584
-1506.150000	36377.910000	-14723.055000	-17987.805000	0.000000	0.000000	0.000000	0.000000	-93.828134	-58.437780	-133.530574	-159.251287	0.000000	0.000000	0.000000	0.000000	28.994000	-9.232300	31.817100	-0.017212	0.938779	0.465514	-1.000000	-1.000000	-1.000000	-1.000000	-1.000000	-1.000000	-1.000000	138.965517	0.000000	-1.000000	-1.000000	215836.000000	1772918459.983586
-1417.500000	36392.760000	-14598.090000	-17854.605000	0.000000	0.000000	0.000000	0.000000	-45.431641	-81.954290	-46.629068	-76.259940	0.000000	0.000000	0.000000	0.000000	28.994000	-9.232300	31.817100	-0.017212	0.938779	0.465514	-1.000000	-1.000000	-1.000000	-1.000000	-1.000000	-1.000000	-1.000000	138.965517	0.000000	-1.000000	-1.000000	215837.000000	1772918459.983590
-1352.070000	36319.230000	-14505.795000	-17725.725000	0.000000	0.000000	0.000000	0.000000	24.069860	-68.392748	65.228793	47.525399	0.000000	0.000000	0.000000	0.000000	28.994000	-9.232300	31.817100	-0.017212	0.938779	0.465514	-1.000000	-1.000000	-1.000000	-1.000000	-1.000000	-1.000000	-1.000000	138.965517	0.000000	-1.000000	-1.000000	215838.000000	1772918459.983593
-1398.915000	36254.880000	-14611.725000	-17795.880000	0.000000	0.000000	0.000000	0.000000	74.178428	-27.650962	140.676816	142.482856	0.000000	0.000000	0.000000	0.000000	28.994000	-9.232300	31.817100	-0.017212	0.938779	0.465514	-1.000000	-1.000000	-1.000000	-1.000000	-1.000000	-1.000000	-1.000000	138.965517	0.000000	-1.000000	-1.000000	215839.000000	1772918459.983597
-1332.090000	36248.985000	-14636.430000	-17787.240000	0.000000	0.000000	0.000000	0.000000	78.837142	14.034703	138.304561	157.580801	0.000000	0.000000	0.000000	0.000000	28.994000	-9.232300	31.817100	-0.017212	0.938779	0.465514	-1.000000	-1.000000	-1.000000	-1.000000	-1.000000	-1.000000	-1.000000	138.965517	0.000000	-1.000000	-1.000000	215840.000000	1772918459.983599
-1400.850000	36258.795000	-14742.990000	-17912.115000	0.000000	0.000000	0.000000	0.000000	41.030757	41.688862	62.393063	88.718832	0.000000	0.000000	0.000000	0.000000	28.994000	-9.232300	31.817100	-0.017212	0.938779	0.465514	-1.000000	-1.000000	-1.000000	-1.000000	-1.000000	-1.000000	-1.000000	138.965517	0.000000	-1.000000	-1.000000	215841.000000	1772918459.983603
-1610.280000	36289.710000	-15012.180000	-18208.800000	0.000000	0.000000	0.000000	0.000000	-18.509978	55.574781	-44.971586	-27.071835	0.000000	0.000000	0.000000	0.000000	28.994000	-9.232300	31.817100	-0.017212	0.938779	0.465514	-1.000000	-1.000000	-1.000000	-1.000000	-1.000000	-1.000000	-1.000000	138.965517	0.000000	-1.000000	-1.000000	215842.000000	1772918459.983606
-1651.320000	36318.240000	-15136.560000	-18277.515000	0.000000	0.000000	0.000000	0.000000	-78.273720	59.852628	-136.426025	-138.765407	0.000000	0.000000	0.000000	0.000000	28.994000	-9.232300	31.817100	-0.017212	0.938779	0.465514	-1.000000	-1.000000	-1.000000	-1.000000	-1.000000	-1.000000	-1.000000	138.965517	0.000000	-1.000000	-1.000000	215843.000000	1772918459.987384
-1577.520000	36337.320000	-15104.520000	-18150.840000	0.000000	0.000000	0.000000	0.000000	-110.649046	55.406602	-172.124623	-191.492027	0.000000	0.000000	0.000000	0.000000	28.994000	-9.232300	31.817100	-0.017212	0.938779	0.465514	-1.000000	-1.000000	-1.000000	-1.000000	-1.000000	-1.000000	-1.000000	138.965517	0.000000	-1.000000	-1.000000	215844.000000	1772918459.987387
-1516.230000	36342.000000	-14989.770000	-18021.825000	0.000000	0.000000	0.000000	0.000000	-88.619086	40.642971	-126.293072	-145.655880	0.000000	0.000000	0.000000	0.000000	42.148120	-22.661100	41.369860	-0.033935	0.957151	0.473448	-1.000000	-1.000000	-1.000000	-1.000000	-1.000000	-1.000000	-1.000000	138.965517	0.000000	-1.000000	-1.000000	215845.000000	1772918459.987392
-1412.865000	36308.205000	-14849.865000	-17864.640000	0.000000	0.000000	0.000000	0.000000	-14.491434	15.393102	-8.982289	-14.716355	0.000000	0.000000	0.000000	0.000000	42.148120	-22.661100	41.369860	-0.033935	0.957151	0.473448	-1.000000	-1.000000	-1.000000	-1.000000	-1.000000	-1.000000	-1.000000	138.965517	0.000000	-1.000000	-1.000000	215846.000000	1772918459.987394
-1404.135000	36341.640000	-14747.445000	-17826.435000	0.000000	0.000000	0.000000	0.000000	73.755430	-15.178996	127.566537	132.316698	0.000000	0.000000	0.000000	0.000000	42.148120	-22.661100	41.369860	-0.033935	0.957151	0.473448	-1.000000	-1.000000	-1.000000	-1.000000	-1.000000	-1.000000	-1.000000	138.965517	0.000000	-1.000000	-1.000000	215847.000000	1772918459.987398
-1448.595000	36447.885000	-14706.810000	-17862.390000	0.000000	0.000000	0.000000	0.000000	126.778312	-37.928883	215.778188	214.350113	0.000000	0.000000	0.000000	0.000000	42.148120	-22.661100	41.369860	-0.033935	0.957151	0.473448	-1.000000	-1.000000	-1.000000	-1.000000	-1.000000	-1.000000	-1.000000	138.965517	0.000000	-1.000000	-1.000000	215848.000000	1772918459.987401
-1514.880000	36481.815000	-14844.015000	-17985.240000	0.000000	0.000000	0.000000	0.000000	114.990168	-39.515202	209.428281	187.551206	0.000000	0.000000	0.000000	0.000000	42.148120	-22.661100	41.369860	-0.033935	0.957151	0.473448	-1.000000	-1.000000	-1.000000	-1.000000	-1.000000	-1.000000	-1.000000	138.965517	0.000000	-1.000000	-1.000000	215849.000000	1772918459.990006
-1662.615000	36499.140000	-15186.105000	-18238.455000	0.000000	0.000000	0.000000	0.000000	45.498413	-22.116800	102.801996	66.223358	0.000000	0.000000	0.000000	0.000000	42.148120	-22.661100	41.369860	-0.033935	0.957151	0.473448	-1.000000	-1.000000	-1.000000	-1.000000	-1.000000	-1.000000	-1.000000	138.965517	0.000000	-1.000000	-1.000000	215850.000000	1772918459.990010
-1586.745000	36496.575000	-15149.565000	-18186.075000	0.000000	0.000000	0.000000	0.000000	-42.672762	-3.093413	-61.038566	-86.788545	0.000000	0.000000	0.000000	0.000000	42.148120	-22.661100	41.369860	-0.033935	0.957151	0.473448	-1.000000	-1.000000	-1.000000	-1.000000	-1.000000	-1.000000	-1.000000	138.965517	0.000000	-1.000000	-1.000000	215851.000000	1772918459.993991
-1479.915000	36488.970000	-14967.540000	-18050.085000	0.000000	0.000000	0.000000	0.000000	-97.170256	2.571601	-192.402933	-186.153147	0.000000	0.000000	0.000000	0.000000	42.148120	-22.661100	41.369860	-0.033935	0.957151	0.473448	-1.000000	-1.000000	-1.000000	-1.000000	-1.000000	-1.000000	-1.000000	138.965517	0.000000	-1.000000	-1.000000	215852.000000	1772918459.993995
-1513.575000	36467.370000	-14882.445000	-18042.480000	0.000000	0.000000	0.000000	0.000000	-87.457258	-6.578672	-208.856742	-175.858673	0.000000	0.000000	0.000000	0.000000	42.148120	-22.661100	41.369860	-0.033935	0.957151	0.473448	-1.000000	-1.000000	-1.000000	-1.000000	-1.000000	-1.000000	-1.000000	138.965517	0.000000	-1.000000	-1.000000	215853.000000	1772918460.000075
-1558.935000	36369.135000	-14787.090000	-17953.830000	0.000000	0.000000	0.000000	0.000000	-32.666057	-22.773853	-108.068427	-74.039426	0.000000	0.000000	0.000000	0.000000	42.148120	-22.661100	41.369860	-0.033935	0.957151	0.473448	-1.000000	-1.000000	-1.000000	-1.000000	-1.000000	-1.000000	-1.000000	138.965517	0.000000	-1.000000	-1.000000	215854.000000	1772918460.000080
-1461.870000	36306.360000	-14590.800000	-17773.605000	0.000000	0.000000	0.000000	0.000000	22.554881	-37.685832	37.511094	51.548455	0.000000	0.000000	0.000000	0.000000	54.981780	-41.537720	75.659080	-0.032837	0.952268	0.478514	-1.000000	-1.000000	-1.000000	-1.000000	-1.000000	-1.000000	-1.000000	138.965517	0.000000	-1.000000	-1.000000	215855.000000	1772918460.002155
-1444.860000	36348.300000	-14537.700000	-17808.750000	0.000000	0.000000	0.000000	0.000000	52.372493	-42.078686	146.721271	138.283982	0.000000	0.000000	0.000000	0.000000	54.981780	-41.537720	75.659080	-0.032837	0.952268	0.478514	-1.000000	-1.000000	-1.000000	-1.000000	-1.000000	-1.000000	-1.000000	138.965517	0.000000	-1.000000	-1.000000	215856.000000	1772918460.002159
-1484.010000	36379.125000	-14661.630000	-17916.570000	0.000000	0.000000	0.000000	0.000000	54.238667	-25.395949	169.768244	149.040739	0.000000	0.000000	0.000000	0.000000	54.981780	-41.537720	75.659080	-0.032837	0.952268	0.478514	-1.000000	-1.000000	-1.000000	-1.000000	-1.000000	-1.000000	-1.000000	138.965517	0.000000	-1.000000	-1.000000	215857.000000	1772918460.005978
-1608.345000	36389.700000	-14967.180000	-18126.495000	0.000000	0.000000	0.000000	0.000000	30.714259	11.981690	94.391875	77.905179	0.000000	0.000000	0.000000	0.000000	54.981780	-41.537720	75.659080	-0.032837	0.952268	0.478514	-1.000000	-1.000000	-1.000000	-1.000000	-1.000000	-1.000000	-1.000000	138.965517	0.000000	-1.000000	-1.000000	215858.000000	1772918460.005981
-1687.365000	36361.620000	-15219.090000	-18277.605000	0.000000	0.000000	0.000000	0.000000	-11.855318	51.464298	-49.391158	-41.811397	0.000000	0.000000	0.000000	0.000000	54.981780	-41.537720	75.659080	-0.032837	0.952268	0.478514	-1.000000	-1.000000	-1.000000	-1.000000	-1.000000	-1.000000	-1.000000	138.965517	0.000000	-1.000000	-1.000000	215859.000000	1772918460.010432
-1657.170000	36413.775000	-15311.295000	-18273.285000	0.000000	0.000000	0.000000	0.000000	-53.800453	70.834620	-190.093782	-146.590963	0.000000	0.000000	0.000000	0.000000	54.981780	-41.537720	75.659080	-0.032837	0.952268	0.478514	-1.000000	-1.000000	-1.000000	-1.000000	-1.000000	-1.000000	-1.000000	138.965517	0.000000	-1.000000	-1.000000	215860.000000	1772918460.010435
-1560.420000	36454.635000	-15402.375000	-18206.055000	0.000000	0.000000	0.000000	0.000000	-66.185011	63.780786	-247.143370	-174.725280	0.000000	0.000000	0.000000	0.000000	54.981780	-41.537720	75.659080	-0.032837	0.952268	0.478514	-1.000000	-1.000000	-1.000000	-1.000000	-1.000000	-1.000000	-1.000000	138.965517	0.000000	-1.000000	-1.000000	215861.000000	1772918460.014067
-1474.470000	36411.930000	-15271.875000	-18028.620000	0.000000	0.000000	0.000000	0.000000	-33.739153	38.692874	-182.329893	-104.954640	0.000000	0.000000	0.000000	0.000000	54.981780	-41.537720	75.659080	-0.032837	0.952268	0.478514	-1.000000	-1.000000	-1.000000	-1.000000	-1.000000	-1.000000	-1.000000	138.965517	0.000000	-1.000000	-1.000000	215862.000000	1772918460.014071
-1458.090000	36474.660000	-14901.660000	-17874.630000	0.000000	0.000000	0.000000	0.000000	26.601103	6.331823	-17.218369	28.926449	0.000000	0.000000	0.000000	0.000000	54.981780	-41.537720	75.659080	-0.032837	0.952268	0.478514	-1.000000	-1.000000	-1.000000	-1.000000	-1.000000	-1.000000	-1.000000	138.965517	0.000000	-1.000000	-1.000000	215863.000000	1772918460.018008
-1581.750000	36607.815000	-14740.605000	-17896.815000	0.000000	0.000000	0.000000	0.000000	73.266253	-19.924708	182.621464	155.756804	0.000000	0.000000	0.000000	0.000000	54.981780	-41.537720	75.659080	-0.032837	0.952268	0.478514	-1.000000	-1.000000	-1.000000	-1.000000	-1.000000	-1.000000	-1.000000	138.965517	0.000000	-1.000000	-1.000000	215864.000000	1772918460.018011
-1724.895000	36707.445000	-14774.850000	-17928.270000	0.000000	0.000000	0.000000	0.000000	69.432571	-25.910973	323.455038	204.815629	0.000000	0.000000	0.000000	0.000000	51.441460	-25.194260	100.029300	0.040161	0.921262	0.462889	-1.000000	-1.000000	-1.000000	-1.000000	-1.000000	-1.000000	-1.000000	138.965517	0.000000	-1.000000	-1.000000	215865.000000	1772918460.022111
-1763.145000	36755.460000	-14716.440000	-17954.190000	0.000000	0.000000	0.000000	0.000000	14.310852	-12.100809	325.950865	150.590473	0.000000	0.000000	0.000000	0.000000	51.441460	-25.194260	100.029300	0.040161	0.921262	0.462889	-1.000000	-1.000000	-1.000000	-1.000000	-1.000000	-1.000000	-1.000000	138.965517	0.000000	-1.000000	-1.000000	215866.000000	1772918460.022116
-1689.390000	36645.300000	-14750.280000	-18061.695000	0.000000	0.000000	0.000000	0.000000	-50.799840	0.938200	186.098338	27.830451	0.000000	0.000000	0.000000	0.000000	51.441460	-25.194260	100.029300	0.040161	0.921262	0.462889	-1.000000	-1.000000	-1.000000	-1.000000	-1.000000	-1.000000	-1.000000	138.965517	0.000000	-1.000000	-1.000000	215867.000000	1772918460.026046
-1617.075000	36409.185000	-14750.325000	-18035.325000	0.000000	0.000000	0.000000	0.000000	-75.222490	-12.849760	-21.470585	-97.446745	0.000000	0.000000	0.000000	0.000000	51.441460	-25.194260	100.029300	0.040161	0.921262	0.462889	-1.000000	-1.000000	-1.000000	-1.000000	-1.000000	-1.000000	-1.000000	138.965517	0.000000	-1.000000	-1.000000	215868.000000	1772918460.026049
-1627.065000	36154.890000	-14845.005000	-17991.315000	0.000000	0.000000	0.000000	0.000000	-43.328952	-61.972018	-200.624727	-165.745729	0.000000	0.000000	0.000000	0.000000	51.441460	-25.194260	100.029300	0.040161	0.921262	0.462889	-1.000000	-1.000000	-1.000000	-1.000000	-1.000000	-1.000000	-1.000000	138.965517	0.000000	-1.000000	-1.000000	215869.000000	1772918460.030112
-1544.895000	35921.520000	-14837.715000	-17890.695000	0.000000	0.000000	0.000000	0.000000	16.632460	-123.482341	-286.853774	-150.570526	0.000000	0.000000	0.000000	0.000000	51.441460	-25.194260	100.029300	0.040161	0.921262	0.462889	-1.000000	-1.000000	-1.000000	-1.000000	-1.000000	-1.000000	-1.000000	138.965517	0.000000	-1.000000	-1.000000	215870.000000	1772918460.030116
-1390.455000	35821.935000	-15052.545000	-17795.835000	0.000000	0.000000	0.000000	0.000000	66.790524	-153.498043	-268.223890	-68.840605	0.000000	0.000000	0.000000	0.000000	51.441460	-25.194260	100.029300	0.040161	0.921262	0.462889	-1.000000	-1.000000	-1.000000	-1.000000	-1.000000	-1.000000	-1.000000	138.965517	0.000000	-1.000000	-1.000000	215871.000000	1772918460.034129
-1409.715000	35882.100000	-15224.625000	-17833.590000	0.000000	0.000000	0.000000	0.000000	86.704628	-114.721664	-180.047778	30.404470	0.000000	0.000000	0.000000	0.000000	51.441460	-25.194260	100.029300	0.040161	0.921262	0.462889	-1.000000	-1.000000	-1.000000	-1.000000	-1.000000	-1.000000	-1.000000	138.965517	0.000000	-1.000000	-1.000000	215872.000000	1772918460.034133
-1510.245000	35939.565000	-15211.170000	-17910.180000	0.000000	0.000000	0.000000	0.000000	67.272404	-3.633767	-71.005473	92.128611	0.000000	0.000000	0.000000	0.000000	51.441460	-25.194260	100.029300	0.040161	0.921262	0.462889	-1.000000	-1.000000	-1.000000	-1.000000	-1.000000	-1.000000	-1.000000	138.965517	0.000000	-1.000000	-1.000000	215873.000000	1772918460.037249
-1676.790000	35990.730000	-15247.890000	-17951.985000	0.000000	0.000000	0.000000	0.000000	7.377107	137.668165	31.764827	87.936016	0.000000	0.000000	0.000000	0.000000	51.441460	-25.194260	100.029300	0.040161	0.921262	0.462889	-1.000000	-1.000000	-1.000000	-1.000000	-1.000000	-1.000000	-1.000000	138.965517	0.000000	-1.000000	-1.000000	215874.000000	1772918460.037252
-1969.380000	35991.360000	-15317.370000	-18149.715000	0.000000	0.000000	0.000000	0.000000	-76.883422	241.325270	115.648381	30.788541	0.000000	0.000000	0.000000	0.000000	60.002320	-21.562380	48.648880	0.041565	0.912168	0.440245	-1.000000	-1.000000	-1.000000	-1.000000	-1.000000	-1.000000	-1.000000	138.965517	0.000000	-1.000000	-1.000000	215875.000000	1772918460.041949
-2111.130000	35923.455000	-15070.770000	-18168.840000	0.000000	0.000000	0.000000	0.000000	-152.271856	254.857027	169.239727	-41.116545	0.000000	0.000000	0.000000	0.000000	60.002320	-21.562380	48.648880	0.041565	0.912168	0.440245	-1.000000	-1.000000	-1.000000	-1.000000	-1.000000	-1.000000	-1.000000	138.965517	0.000000	-1.000000	-1.000000	215876.000000	1772918460.041952
-2054.565000	35919.675000	-14925.555000	-18105.840000	0.000000	0.000000	0.000000	0.000000	-175.868448	172.210322	192.196976	-84.149268	0.000000	0.000000	0.000000	0.000000	60.002320	-21.562380	48.648880	0.041565	0.912168	0.440245	-1.000000	-1.000000	-1.000000	-1.000000	-1.000000	-1.000000	-1.000000	138.965517	0.000000	-1.000000	-1.000000	215877.000000	1772918460.138117
-1878.345000	35954.145000	-14703.345000	-17958.780000	0.000000	0.000000	0.000000	0.000000	-114.314741	37.105482	189.384555	-67.469190	0.000000	0.000000	0.000000	0.000000	60.002320	-21.562380	48.648880	0.041565	0.912168	0.440245	-1.000000	-1.000000	-1.000000	-1.000000	-1.000000	-1.000000	-1.000000	138.965517	0.000000	-1.000000	-1.000000	215878.000000	1772918460.138122
-1665.720000	35975.160000	-14449.455000	-17715.915000	0.000000	0.000000	0.000000	0.000000	24.546593	-85.339591	159.035707	7.032309	0.000000	0.000000	0.000000	0.000000	60.002320	-21.562380	48.648880	0.041565	0.912168	0.440245	-1.000000	-1.000000	-1.000000	-1.000000	-1.000000	-1.000000	-1.000000	138.965517	0.000000	-1.000000	-1.000000	215879.000000	1772918460.138128
-1628.370000	36035.910000	-14798.295000	-17714.430000	0.000000	0.000000	0.000000	0.000000	179.578236	-148.832635	91.031116	99.957116	0.000000	0.000000	0.000000	0.000000	60.002320	-21.562380	48.648880	0.041565	0.912168	0.440245	-1.000000	-1.000000	-1.000000	-1.000000	-1.000000	-1.000000	-1.000000	138.965517	0.000000	-1.000000	-1.000000	215880.000000	1772918460.138131
-1669.680000	36083.700000	-15020.820000	-17798.310000	0.000000	0.000000	0.000000	0.000000	265.544186	-144.715203	-30.009742	150.223807	0.000000	0.000000	0.000000	0.000000	60.002320	-21.562380	48.648880	0.041565	0.912168	0.440245	-1.000000	-1.000000	-1.000000	-1.000000	-1.000000	-1.000000	-1.000000	138.965517	0.000000	-1.000000	-1.000000	215881.000000	1772918460.138135
-1656.045000	36111.105000	-15014.070000	-17853.750000	0.000000	0.000000	0.000000	0.000000	230.990231	-95.102645	-184.106044	115.737596	0.000000	0.000000	0.000000	0.000000	60.002320	-21.562380	48.648880	0.041565	0.912168	0.440245	-1.000000	-1.000000	-1.000000	-1.000000	-1.000000	-1.000000	-1.000000	138.965517	0.000000	-1.000000	-1.000000	215882.000000	1772918460.138138
-1814.670000	36084.105000	-15090.030000	-18029.925000	0.000000	0.000000	0.000000	0.000000	94.590788	-35.530067	-294.138887	9.591473	0.000000	0.000000	0.000000	0.000000	60.002320	-21.562380	48.648880	0.041565	0.912168	0.440245	-1.000000	-1.000000	-1.000000	-1.000000	-1.000000	-1.000000	-1.000000	138.965517	0.000000	-1.000000	-1.000000	215883.000000	1772918460.138142
-1899.405000	35918.235000	-14940.900000	-18054.405000	0.000000	0.000000	0.000000	0.000000	-75.563757	1.744863	-287.833468	-110.511025	0.000000	0.000000	0.000000	0.000000	60.002320	-21.562380	48.648880	0.041565	0.912168	0.440245	-1.000000	-1.000000	-1.000000	-1.000000	-1.000000	-1.000000	-1.000000	138.965517	0.000000	-1.000000	-1.000000	215884.000000	1772918460.138144
-1872.855000	35810.460000	-14962.005000	-18060.840000	0.000000	0.000000	0.000000	0.000000	-203.224627	1.271539	-161.356991	-180.126539	0.000000	0.000000	0.000000	0.000000	26.933900	-17.213280	75.506480	0.004517	0.939573	0.433837	-1.000000	-1.000000	-1.000000	-1.000000	-1.000000	-1.000000	-1.000000	138.965517	0.000000	-1.000000	-1.000000	215885.000000	1772918460.138148
-1804.410000	35776.530000	-14888.565000	-17923.095000	0.000000	0.000000	0.000000	0.000000	-234.522636	-24.452664	20.521243	-161.871362	0.000000	0.000000	0.000000	0.000000	26.933900	-17.213280	75.506480	0.004517	0.939573	0.433837	-1.000000	-1.000000	-1.000000	-1.000000	-1.000000	-1.000000	-1.000000	138.965517	0.000000	-1.000000	-1.000000	215886.000000	1772918460.138150
-1668.060000	35754.930000	-14595.075000	-17743.635000	0.000000	0.000000	0.000000	0.000000	-161.904837	-42.238379	175.676998	-62.952441	0.000000	0.000000	0.000000	0.000000	26.933900	-17.213280	75.506480	0.004517	0.939573	0.433837	-1.000000	-1.000000	-1.000000	-1.000000	-1.000000	-1.000000	-1.000000	138.965517	0.000000	-1.000000	-1.000000	215887.000000	1772918460.138154
-1509.795000	35845.110000	-14407.830000	-17545.230000	0.000000	0.000000	0.000000	0.000000	-26.453365	-25.779389	257.838994	70.844703	0.000000	0.000000	0.000000	0.000000	26.933900	-17.213280	75.506480	0.004517	0.939573	0.433837	-1.000000	-1.000000	-1.000000	-1.000000	-1.000000	-1.000000	-1.000000	138.965517	0.000000	-1.000000	-1.000000	215888.000000	1772918460.138156
-1568.340000	35736.480000	-14302.170000	-17500.545000	0.000000	0.000000	0.000000	0.000000	103.640717	22.160008	256.908579	176.149580	0.000000	0.000000	0.000000	0.000000	26.933900	-17.213280	75.506480	0.004517	0.939573	0.433837	-1.000000	-1.000000	-1.000000	-1.000000	-1.000000	-1.000000	-1.000000	138.965517	0.000000	-1.000000	-1.000000	215889.000000	1772918460.138160
-1707.120000	35746.335000	-14338.980000	-17676.495000	0.000000	0.000000	0.000000	0.000000	162.212475	71.004368	176.846050	196.807591	0.000000	0.000000	0.000000	0.000000	26.933900	-17.213280	75.506480	0.004517	0.939573	0.433837	-1.000000	-1.000000	-1.000000	-1.000000	-1.000000	-1.000000	-1.000000	138.965517	0.000000	-1.000000	-1.000000	215890.000000	1772918460.138162
-1676.250000	35812.440000	-14510.835000	-17779.680000	0.000000	0.000000	0.000000	0.000000	123.983090	91.789420	35.432805	113.329606	0.000000	0.000000	0.000000	0.000000	26.933900	-17.213280	75.506480	0.004517	0.939573	0.433837	-1.000000	-1.000000	-1.000000	-1.000000	-1.000000	-1.000000	-1.000000	138.965517	0.000000	-1.000000	-1.000000	215891.000000	1772918460.138166
-1718.820000	35849.565000	-14890.140000	-17942.130000	0.000000	0.000000	0.000000	0.000000	26.334320	81.858266	-131.899065	-35.539155	0.000000	0.000000	0.000000	0.000000	26.933900	-17.213280	75.506480	0.004517	0.939573	0.433837	-1.000000	-1.000000	-1.000000	-1.000000	-1.000000	-1.000000	-1.000000	138.965517	0.000000	-1.000000	-1.000000	215892.000000	1772918460.138168
-1671.120000	35891.910000	-15104.430000	-18011.115000	0.000000	0.000000	0.000000	0.000000	-63.375011	54.394179	-275.515198	-171.470433	0.000000	0.000000	0.000000	0.000000	26.933900	-17.213280	75.506480	0.004517	0.939573	0.433837	-1.000000	-1.000000	-1.000000	-1.000000	-1.000000	-1.000000	-1.000000	138.965517	0.000000	-1.000000	-1.000000	215893.000000	1772918460.138171
-1617.930000	35931.015000	-15422.130000	-18048.915000	0.000000	0.000000	0.000000	0.000000	-98.178835	21.068739	-341.236074	-225.857755	0.000000	0.000000	0.000000	0.000000	26.933900	-17.213280	75.506480	0.004517	0.939573	0.433837	-1.000000	-1.000000	-1.000000	-1.000000	-1.000000	-1.000000	-1.000000	138.965517	0.000000	-1.000000	-1.000000	215894.000000	1772918460.138173
-1483.875000	35893.620000	-15335.730000	-17852.580000	0.000000	0.000000	0.000000	0.000000	-70.523866	-11.838212	-291.820523	-173.421627	0.000000	0.000000	0.000000	0.000000	88.996320	1.526000	83.334860	0.001526	0.905027	0.438536	-1.000000	-1.000000	-1.000000	-1.000000	-1.000000	-1.000000	-1.000000	138.965517	0.000000	-1.000000	-1.000000	215895.000000	1772918460.138177
-1422.405000	35883.810000	-14848.380000	-17663.580000	0.000000	0.000000	0.000000	0.000000	-5.283670	-41.846797	-120.034280	-36.251512	0.000000	0.000000	0.000000	0.000000	88.996320	1.526000	83.334860	0.001526	0.905027	0.438536	-1.000000	-1.000000	-1.000000	-1.000000	-1.000000	-1.000000	-1.000000	138.965517	0.000000	-1.000000	-1.000000	215896.000000	1772918460.138179
-1553.670000	35964.225000	-14649.255000	-17759.385000	0.000000	0.000000	0.000000	0.000000	53.755721	-63.199561	137.230568	121.203638	0.000000	0.000000	0.000000	0.000000	88.996320	1.526000	83.334860	0.001526	0.905027	0.438536	-1.000000	-1.000000	-1.000000	-1.000000	-1.000000	-1.000000	-1.000000	138.965517	0.000000	-1.000000	-1.000000	215897.000000	1772918460.138182
-1697.130000	35994.240000	-14562.045000	-17689.095000	0.000000	0.000000	0.000000	0.000000	64.494903	-64.976710	376.740329	216.256108	0.000000	0.000000	0.000000	0.000000	88.996320	1.526000	83.334860	0.001526	0.905027	0.438536	-1.000000	-1.000000	-1.000000	-1.000000	-1.000000	-1.000000	-1.000000	138.965517	0.000000	-1.000000	-1.000000	215898.000000	1772918460.138184
-1846.665000	35943.795000	-14571.990000	-17721.540000	0.000000	0.000000	0.000000	0.000000	16.669507	-45.564094	470.829887	204.060919	0.000000	0.000000	0.000000	0.000000	88.996320	1.526000	83.334860	0.001526	0.905027	0.438536	-1.000000	-1.000000	-1.000000	-1.000000	-1.000000	-1.000000	-1.000000	138.965517	0.000000	-1.000000	-1.000000	215899.000000	1772918460.138187
-1795.320000	35926.245000	-14591.070000	-17852.220000	0.000000	0.000000	0.000000	0.000000	-54.155005	-19.802833	364.086464	103.778541	0.000000	0.000000	0.000000	0.000000	88.996320	1.526000	83.334860	0.001526	0.905027	0.438536	-1.000000	-1.000000	-1.000000	-1.000000	-1.000000	-1.000000	-1.000000	138.965517	0.000000	-1.000000	-1.000000	215900.000000	1772918460.138189
-1853.955000	35849.880000	-14673.510000	-17895.555000	0.000000	0.000000	0.000000	0.000000	-92.921802	-3.922305	113.239367	-29.347487	0.000000	0.000000	0.000000	0.000000	88.996320	1.526000	83.334860	0.001526	0.905027	0.438536	-1.000000	-1.000000	-1.000000	-1.000000	-1.000000	-1.000000	-1.000000	138.965517	0.000000	-1.000000	-1.000000	215901.000000	1772918460.138192
-1984.050000	35857.305000	-14863.095000	-18008.055000	0.000000	0.000000	0.000000	0.000000	-74.306492	-1.174979	-161.647109	-136.249415	0.000000	0.000000	0.000000	0.000000	88.996320	1.526000	83.334860	0.001526	0.905027	0.438536	-1.000000	-1.000000	-1.000000	-1.000000	-1.000000	-1.000000	-1.000000	138.965517	0.000000	-1.000000	-1.000000	215902.000000	1772918460.138194
-1794.105000	35858.115000	-14847.120000	-17855.370000	0.000000	0.000000	0.000000	0.000000	-15.544695	-2.118558	-349.200989	-174.159435	0.000000	0.000000	0.000000	0.000000	88.996320	1.526000	83.334860	0.001526	0.905027	0.438536	-1.000000	-1.000000	-1.000000	-1.000000	-1.000000	-1.000000	-1.000000	138.965517	0.000000	-1.000000	-1.000000	215903.000000	1772918460.138196
-1644.975000	35915.625000	-14704.470000	-17663.265000	0.000000	0.000000	0.000000	0.000000	57.646806	5.138123	-384.894911	-127.384385	0.000000	0.000000	0.000000	0.000000	88.996320	1.526000	83.334860	0.001526	0.905027	0.438536	-1.000000	-1.000000	-1.000000	-1.000000	-1.000000	-1.000000	-1.000000	138.965517	0.000000	-1.000000	-1.000000	215904.000000	1772918460.138198
-1578.690000	35978.625000	-14632.830000	-17689.320000	0.000000	0.000000	0.000000	0.000000	123.331829	24.125640	-267.563374	-19.008318	0.000000	0.000000	0.000000	0.000000	122.476760	-4.745860	79.733500	0.005920	0.863035	0.444945	-1.000000	-1.000000	-1.000000	-1.000000	-1.000000	-1.000000	-1.000000	138.965517	0.000000	-1.000000	-1.000000	215905.000000	1772918460.138201
-1623.195000	35971.785000	-14730.705000	-17726.130000	0.000000	0.000000	0.000000	0.000000	150.601355	46.076702	-67.199728	87.084686	0.000000	0.000000	0.000000	0.000000	122.476760	-4.745860	79.733500	0.005920	0.863035	0.444945	-1.000000	-1.000000	-1.000000	-1.000000	-1.000000	-1.000000	-1.000000	138.965517	0.000000	-1.000000	-1.000000	215906.000000	1772918460.138203
-1615.995000	35957.430000	-14767.965000	-17629.920000	0.000000	0.000000	0.000000	0.000000	115.205431	54.368066	109.735430	130.475814	0.000000	0.000000	0.000000	0.000000	122.476760	-4.745860	79.733500	0.005920	0.863035	0.444945	-1.000000	-1.000000	-1.000000	-1.000000	-1.000000	-1.000000	-1.000000	138.965517	0.000000	-1.000000	-1.000000	215907.000000	1772918460.138206
-1623.690000	36004.320000	-14688.990000	-17671.365000	0.000000	0.000000	0.000000	0.000000	28.098598	39.277302	192.196505	101.921780	0.000000	0.000000	0.000000	0.000000	122.476760	-4.745860	79.733500	0.005920	0.863035	0.444945	-1.000000	-1.000000	-1.000000	-1.000000	-1.000000	-1.000000	-1.000000	138.965517	0.000000	-1.000000	-1.000000	215908.000000	1772918460.138208
-1629.630000	36084.645000	-14812.740000	-17878.095000	0.000000	0.000000	0.000000	0.000000	-68.142188	10.102363	178.518205	29.476455	0.000000	0.000000	0.000000	0.000000	122.476760	-4.745860	79.733500	0.005920	0.863035	0.444945	-1.000000	-1.000000	-1.000000	-1.000000	-1.000000	-1.000000	-1.000000	138.965517	0.000000	-1.000000	-1.000000	215909.000000	1772918460.138210
-1737.045000	36134.775000	-15164.640000	-17971.065000	0.000000	0.000000	0.000000	0.000000	-132.011404	-13.878907	100.556496	-55.254613	0.000000	0.000000	0.000000	0.000000	122.476760	-4.745860	79.733500	0.005920	0.863035	0.444945	-1.000000	-1.000000	-1.000000	-1.000000	-1.000000	-1.000000	-1.000000	138.965517	0.000000	-1.000000	-1.000000	215910.000000	1772918460.138212
-1850.040000	36099.270000	-15549.480000	-18090.585000	0.000000	0.000000	0.000000	0.000000	-148.390722	-24.010123	-13.060905	-120.447782	0.000000	0.000000	0.000000	0.000000	122.476760	-4.745860	79.733500	0.005920	0.863035	0.444945	-1.000000	-1.000000	-1.000000	-1.000000	-1.000000	-1.000000	-1.000000	138.965517	0.000000	-1.000000	-1.000000	215911.000000	1772918460.138215
-1739.565000	36080.370000	-15214.455000	-18085.770000	0.000000	0.000000	0.000000	0.000000	-121.831287	-27.685616	-116.625986	-136.170599	0.000000	0.000000	0.000000	0.000000	122.476760	-4.745860	79.733500	0.005920	0.863035	0.444945	-1.000000	-1.000000	-1.000000	-1.000000	-1.000000	-1.000000	-1.000000	138.965517	0.000000	-1.000000	-1.000000	215912.000000	1772918460.138217
-1551.330000	36199.305000	-14472.270000	-17785.575000	0.000000	0.000000	0.000000	0.000000	-56.471777	-31.058154	-125.469380	-85.959413	0.000000	0.000000	0.000000	0.000000	122.476760	-4.745860	79.733500	0.005920	0.863035	0.444945	-1.000000	-1.000000	-1.000000	-1.000000	-1.000000	-1.000000	-1.000000	138.965517	0.000000	-1.000000	-1.000000	215913.000000	1772918460.138219
-1617.255000	36284.220000	-14283.315000	-17566.695000	0.000000	0.000000	0.000000	0.000000	34.481507	-26.555045	9.865823	23.967331	0.000000	0.000000	0.000000	0.000000	122.476760	-4.745860	79.733500	0.005920	0.863035	0.444945	-1.000000	-1.000000	-1.000000	-1.000000	-1.000000	-1.000000	-1.000000	138.965517	0.000000	-1.000000	-1.000000	215914.000000	1772918460.138221
-1684.170000	36331.245000	-14325.615000	-17583.570000	0.000000	0.000000	0.000000	0.000000	109.124443	-7.574882	203.865789	147.998274	0.000000	0.000000	0.000000	0.000000	87.195640	6.836480	84.006300	0.036743	0.895444	0.430602	-1.000000	-1.000000	-1.000000	-1.000000	-1.000000	-1.000000	-1.000000	138.965517	0.000000	-1.000000	-1.000000	215915.000000	1772918460.138224
-1767.465000	36244.575000	-14612.085000	-17830.620000	0.000000	0.000000	0.000000	0.000000	123.025028	13.881372	287.856024	206.725384	0.000000	0.000000	0.000000	0.000000	87.195640	6.836480	84.006300	0.036743	0.895444	0.430602	-1.000000	-1.000000	-1.000000	-1.000000	-1.000000	-1.000000	-1.000000	138.965517	0.000000	-1.000000	-1.000000	215916.000000	1772918460.138226
-1815.390000	36019.710000	-14735.655000	-17911.350000	0.000000	0.000000	0.000000	0.000000	72.568860	13.240075	172.572897	147.029287	0.000000	0.000000	0.000000	0.000000	87.195640	6.836480	84.006300	0.036743	0.895444	0.430602	-1.000000	-1.000000	-1.000000	-1.000000	-1.000000	-1.000000	-1.000000	138.965517	0.000000	-1.000000	-1.000000	215917.000000	1772918460.138229
-1773.270000	35956.980000	-14732.595000	-17883.450000	0.000000	0.000000	0.000000	0.000000	-2.901014	-20.606297	-71.600535	1.459104	0.000000	0.000000	0.000000	0.000000	87.195640	6.836480	84.006300	0.036743	0.895444	0.430602	-1.000000	-1.000000	-1.000000	-1.000000	-1.000000	-1.000000	-1.000000	138.965517	0.000000	-1.000000	-1.000000	215918.000000	1772918460.138230
-1723.455000	35926.245000	-14703.975000	-17829.270000	0.000000	0.000000	0.000000	0.000000	-53.734303	-64.204157	-283.446950	-133.098044	0.000000	0.000000	0.000000	0.000000	87.195640	6.836480	84.006300	0.036743	0.895444	0.430602	-1.000000	-1.000000	-1.000000	-1.000000	-1.000000	-1.000000	-1.000000	138.965517	0.000000	-1.000000	-1.000000	215919.000000	1772918460.138233
-1630.485000	35903.520000	-14603.670000	-17712.855000	0.000000	0.000000	0.000000	0.000000	-54.107303	-77.098548	-340.975316	-176.954490	0.000000	0.000000	0.000000	0.000000	87.195640	6.836480	84.006300	0.036743	0.895444	0.430602	-1.000000	-1.000000	-1.000000	-1.000000	-1.000000	-1.000000	-1.000000	138.965517	0.000000	-1.000000	-1.000000	215920.000000	1772918460.138235
-1426.590000	35953.785000	-14460.165000	-17556.840000	0.000000	0.000000	0.000000	0.000000	-11.481751	-40.807960	-231.469975	-118.466103	0.000000	0.000000	0.000000	0.000000	87.195640	6.836480	84.006300	0.036743	0.895444	0.430602	-1.000000	-1.000000	-1.000000	-1.000000	-1.000000	-1.000000	-1.000000	138.965517	0.000000	-1.000000	-1.000000	215921.000000	1772918460.138238
-1441.035000	35970.615000	-14564.295000	-17655.930000	0.000000	0.000000	0.000000	0.000000	44.444749	28.556271	-35.650183	-8.285995	0.000000	0.000000	0.000000	0.000000	87.195640	6.836480	84.006300	0.036743	0.895444	0.430602	-1.000000	-1.000000	-1.000000	-1.000000	-1.000000	-1.000000	-1.000000	138.965517	0.000000	-1.000000	-1.000000	215922.000000	1772918460.138240
-1390.365000	35977.905000	-14533.155000	-17604.405000	0.000000	0.000000	0.000000	0.000000	75.524365	94.838161	133.159463	79.162221	0.000000	0.000000	0.000000	0.000000	87.195640	6.836480	84.006300	0.036743	0.895444	0.430602	-1.000000	-1.000000	-1.000000	-1.000000	-1.000000	-1.000000	-1.000000	138.965517	0.000000	-1.000000	-1.000000	215923.000000	1772918460.138242
-1508.445000	36011.925000	-14674.590000	-17703.810000	0.000000	0.000000	0.000000	0.000000	56.529747	124.987087	199.510768	97.681246	0.000000	0.000000	0.000000	0.000000	87.195640	6.836480	84.006300	0.036743	0.895444	0.430602	-1.000000	-1.000000	-1.000000	-1.000000	-1.000000	-1.000000	-1.000000	138.965517	0.000000	-1.000000	-1.000000	215924.000000	1772918460.138244
-1662.795000	35954.775000	-14979.780000	-17962.020000	0.000000	0.000000	0.000000	0.000000	-8.872412	106.999348	154.189046	48.611384	0.000000	0.000000	0.000000	0.000000	88.782680	13.383020	85.242360	0.041870	0.918516	0.381042	-1.000000	-1.000000	-1.000000	-1.000000	-1.000000	-1.000000	-1.000000	138.965517	0.000000	-1.000000	-1.000000	215925.000000	1772918460.141922
-1602.855000	35911.395000	-14951.070000	-17928.675000	0.000000	0.000000	0.000000	0.000000	-88.158257	50.678788	40.428902	-34.142455	0.000000	0.000000	0.000000	0.000000	88.782680	13.383020	85.242360	0.041870	0.918516	0.381042	-1.000000	-1.000000	-1.000000	-1.000000	-1.000000	-1.000000	-1.000000	138.965517	0.000000	-1.000000	-1.000000	215926.000000	1772918460.141927
-1442.970000	35809.920000	-14790.960000	-17794.440000	0.000000	0.000000	0.000000	0.000000	-129.692961	-21.150570	-62.493205	-94.306188	0.000000	0.000000	0.000000	0.000000	88.782680	13.383020	85.242360	0.041870	0.918516	0.381042	-1.000000	-1.000000	-1.000000	-1.000000	-1.000000	-1.000000	-1.000000	138.965517	0.000000	-1.000000	-1.000000	215927.000000	1772918460.146774
-1413.855000	35764.560000	-14681.790000	-17739.900000	0.000000	0.000000	0.000000	0.000000	-98.481765	-81.630991	-83.497319	-84.164482	0.000000	0.000000	0.000000	0.000000	88.782680	13.383020	85.242360	0.041870	0.918516	0.381042	-1.000000	-1.000000	-1.000000	-1.000000	-1.000000	-1.000000	-1.000000	138.965517	0.000000	-1.000000	-1.000000	215928.000000	1772918460.146777
-1448.100000	35728.380000	-14709.330000	-17778.915000	0.000000	0.000000	0.000000	0.000000	-14.477157	-108.672928	-20.249620	-11.317137	0.000000	0.000000	0.000000	0.000000	88.782680	13.383020	85.242360	0.041870	0.918516	0.381042	-1.000000	-1.000000	-1.000000	-1.000000	-1.000000	-1.000000	-1.000000	138.965517	0.000000	-1.000000	-1.000000	215929.000000	1772918460.150938
-1333.980000	35658.720000	-14528.115000	-17625.690000	0.000000	0.000000	0.000000	0.000000	66.001312	-94.376729	66.303082	70.365554	0.000000	0.000000	0.000000	0.000000	88.782680	13.383020	85.242360	0.041870	0.918516	0.381042	-1.000000	-1.000000	-1.000000	-1.000000	-1.000000	-1.000000	-1.000000	138.965517	0.000000	-1.000000	-1.000000	215930.000000	1772918460.150941
-1259.280000	35680.635000	-14575.635000	-17522.685000	0.000000	0.000000	0.000000	0.000000	104.468150	-48.903659	114.726127	116.310542	0.000000	0.000000	0.000000	0.000000	88.782680	13.383020	85.242360	0.041870	0.918516	0.381042	-1.000000	-1.000000	-1.000000	-1.000000	-1.000000	-1.000000	-1.000000	138.965517	0.000000	-1.000000	-1.000000	215931.000000	1772918460.154291
-1367.685000	35670.555000	-14658.975000	-17628.840000	0.000000	0.000000	0.000000	0.000000	95.261081	8.034921	97.832036	112.242233	0.000000	0.000000	0.000000	0.000000	88.782680	13.383020	85.242360	0.041870	0.918516	0.381042	-1.000000	-1.000000	-1.000000	-1.000000	-1.000000	-1.000000	-1.000000	138.965517	0.000000	-1.000000	-1.000000	215932.000000	1772918460.154293
-1583.955000	35717.085000	-14816.655000	-17853.480000	0.000000	0.000000	0.000000	0.000000	43.575543	57.270092	21.380928	56.234664	0.000000	0.000000	0.000000	0.000000	88.782680	13.383020	85.242360	0.041870	0.918516	0.381042	-1.000000	-1.000000	-1.000000	-1.000000	-1.000000	-1.000000	-1.000000	138.965517	0.000000	-1.000000	-1.000000	215933.000000	1772918460.158240
-1680.390000	35777.475000	-15075.450000	-18008.235000	0.000000	0.000000	0.000000	0.000000	-36.496131	85.727782	-82.392153	-39.961077	0.000000	0.000000	0.000000	0.000000	88.782680	13.383020	85.242360	0.041870	0.918516	0.381042	-1.000000	-1.000000	-1.000000	-1.000000	-1.000000	-1.000000	-1.000000	138.965517	0.000000	-1.000000	-1.000000	215934.000000	1772918460.158244
-1702.395000	35852.085000	-15112.890000	-17969.220000	0.000000	0.000000	0.000000	0.000000	-108.042571	89.551533	-166.693880	-133.337089	0.000000	0.000000	0.000000	0.000000	62.215020	6.271860	79.336740	0.042419	0.927305	0.347838	-1.000000	-1.000000	-1.000000	-1.000000	-1.000000	-1.000000	-1.000000	138.965517	0.000000	-1.000000	-1.000000	215935.000000	1772918460.162482
-1606.005000	35909.955000	-15079.365000	-17947.620000	0.000000	0.000000	0.000000	0.000000	-125.179106	71.875360	-184.993537	-165.586993	0.000000	0.000000	0.000000	0.000000	62.215020	6.271860	79.336740	0.042419	0.927305	0.347838	-1.000000	-1.000000	-1.000000	-1.000000	-1.000000	-1.000000	-1.000000	138.965517	0.000000	-1.000000	-1.000000	215936.000000	1772918460.162484
-1516.815000	35946.810000	-14920.605000	-17868.555000	0.000000	0.000000	0.000000	0.000000	-69.159862	38.627715	-114.293263	-110.860776	0.000000	0.000000	0.000000	0.000000	62.215020	6.271860	79.336740	0.042419	0.927305	0.347838	-1.000000	-1.000000	-1.000000	-1.000000	-1.000000	-1.000000	-1.000000	138.965517	0.000000	-1.000000	-1.000000	215937.000000	1772918460.166418
-1387.305000	36020.115000	-14456.070000	-17517.330000	0.000000	0.000000	0.000000	0.000000	33.849696	-1.907035	27.985674	6.584239	0.000000	0.000000	0.000000	0.000000	62.215020	6.271860	79.336740	0.042419	0.927305	0.347838	-1.000000	-1.000000	-1.000000	-1.000000	-1.000000	-1.000000	-1.000000	138.965517	0.000000	-1.000000	-1.000000	215938.000000	1772918460.166421
-1444.185000	36054.585000	-14325.660000	-17430.795000	0.000000	0.000000	0.000000	0.000000	127.400178	-38.580574	188.250339	135.024710	0.000000	0.000000	0.000000	0.000000	62.215020	6.271860	79.336740	0.042419	0.927305	0.347838	-1.000000	-1.000000	-1.000000	-1.000000	-1.000000	-1.000000	-1.000000	138.965517	0.000000	-1.000000	-1.000000	215939.000000	1772918460.169440
-1640.475000	36054.630000	-14649.300000	-17690.895000	0.000000	0.000000	0.000000	0.000000	154.871803	-62.503594	280.561892	207.732436	0.000000	0.000000	0.000000	0.000000	62.215020	6.271860	79.336740	0.042419	0.927305	0.347838	-1.000000	-1.000000	-1.000000	-1.000000	-1.000000	-1.000000	-1.000000	138.965517	0.000000	-1.000000	-1.000000	215940.000000	1772918460.169443
-1735.875000	35969.895000	-14790.420000	-17831.250000	0.000000	0.000000	0.000000	0.000000	94.439872	-73.351828	226.374400	167.680248	0.000000	0.000000	0.000000	0.000000	62.215020	6.271860	79.336740	0.042419	0.927305	0.347838	-1.000000	-1.000000	-1.000000	-1.000000	-1.000000	-1.000000	-1.000000	138.965517	0.000000	-1.000000	-1.000000	215941.000000	1772918460.176098
-1627.605000	35799.795000	-14674.860000	-17775.720000	0.000000	0.000000	0.000000	0.000000	-15.340412	-78.343058	41.387800	28.163324	0.000000	0.000000	0.000000	0.000000	62.215020	6.271860	79.336740	0.042419	0.927305	0.347838	-1.000000	-1.000000	-1.000000	-1.000000	-1.000000	-1.000000	-1.000000	138.965517	0.000000	-1.000000	-1.000000	215942.000000	1772918460.176102
-1490.220000	35785.980000	-14460.390000	-17676.630000	0.000000	0.000000	0.000000	0.000000	-96.961173	-80.910034	-152.035465	-118.286827	0.000000	0.000000	0.000000	0.000000	62.215020	6.271860	79.336740	0.042419	0.927305	0.347838	-1.000000	-1.000000	-1.000000	-1.000000	-1.000000	-1.000000	-1.000000	138.965517	0.000000	-1.000000	-1.000000	215943.000000	1772918460.179092
-1603.530000	35704.665000	-14552.235000	-17722.620000	0.000000	0.000000	0.000000	0.000000	-102.291583	-71.230530	-235.709098	-181.371184	0.000000	0.000000	0.000000	0.000000	62.215020	6.271860	79.336740	0.042419	0.927305	0.347838	-1.000000	-1.000000	-1.000000	-1.000000	-1.000000	-1.000000	-1.000000	138.965517	0.000000	-1.000000	-1.000000	215944.000000	1772918460.179095
-1521.630000	35545.455000	-14613.615000	-17718.255000	0.000000	0.000000	0.000000	0.000000	-50.641916	-40.638548	-195.298902	-145.472358	0.000000	0.000000	0.000000	0.000000	19.578580	2.945180	56.568820	0.081238	0.932493	0.345946	-1.000000	-1.000000	-1.000000	-1.000000	-1.000000	-1.000000	-1.000000	138.965517	0.000000	-1.000000	-1.000000	215945.000000	1772918460.206194
-1312.875000	35602.605000	-14462.460000	-17541.270000	0.000000	0.000000	0.000000	0.000000	12.486673	4.179799	-94.324750	-54.149467	0.000000	0.000000	0.000000	0.000000	19.578580	2.945180	56.568820	0.081238	0.932493	0.345946	-1.000000	-1.000000	-1.000000	-1.000000	-1.000000	-1.000000	-1.000000	138.965517	0.000000	-1.000000	-1.000000	215946.000000	1772918460.206198
-1318.545000	35699.400000	-14439.330000	-17526.465000	0.000000	0.000000	0.000000	0.000000	60.336450	54.627489	7.589844	42.215539	0.000000	0.000000	0.000000	0.000000	19.578580	2.945180	56.568820	0.081238	0.932493	0.345946	-1.000000	-1.000000	-1.000000	-1.000000	-1.000000	-1.000000	-1.000000	138.965517	0.000000	-1.000000	-1.000000	215947.000000	1772918460.206203
-1391.400000	35761.095000	-14571.855000	-17657.280000	0.000000	0.000000	0.000000	0.000000	75.477855	104.934260	76.167703	102.357013	0.000000	0.000000	0.000000	0.000000	19.578580	2.945180	56.568820	0.081238	0.932493	0.345946	-1.000000	-1.000000	-1.000000	-1.000000	-1.000000	-1.000000	-1.000000	138.965517	0.000000	-1.000000	-1.000000	215948.000000	1772918460.206205
-1417.140000	35853.885000	-14688.360000	-17772.255000	0.000000	0.000000	0.000000	0.000000	45.465674	139.799215	89.506460	97.713187	0.000000	0.000000	0.000000	0.000000	19.578580	2.945180	56.568820	0.081238	0.932493	0.345946	-1.000000	-1.000000	-1.000000	-1.000000	-1.000000	-1.000000	-1.000000	138.965517	0.000000	-1.000000	-1.000000	215949.000000	1772918460.206209
-1612.080000	35917.155000	-14965.605000	-17953.875000	0.000000	0.000000	0.000000	0.000000	-19.184786	139.975189	46.489079	32.556278	0.000000	0.000000	0.000000	0.000000	19.578580	2.945180	56.568820	0.081238	0.932493	0.345946	-1.000000	-1.000000	-1.000000	-1.000000	-1.000000	-1.000000	-1.000000	138.965517	0.000000	-1.000000	-1.000000	215950.000000	1772918460.206211
-1750.140000	35883.630000	-15274.980000	-18098.955000	0.000000	0.000000	0.000000	0.000000	-89.162694	97.454464	-29.165974	-54.008838	0.000000	0.000000	0.000000	0.000000	19.578580	2.945180	56.568820	0.081238	0.932493	0.345946	-1.000000	-1.000000	-1.000000	-1.000000	-1.000000	-1.000000	-1.000000	138.965517	0.000000	-1.000000	-1.000000	215951.000000	1772918460.206215
-1577.295000	35926.425000	-14943.105000	-17931.690000	0.000000	0.000000	0.000000	0.000000	-127.696810	21.615528	-90.092130	-108.560536	0.000000	0.000000	0.000000	0.000000	19.578580	2.945180	56.568820	0.081238	0.932493	0.345946	-1.000000	-1.000000	-1.000000	-1.000000	-1.000000	-1.000000	-1.000000	138.965517	0.000000	-1.000000	-1.000000	215952.000000	1772918460.206217
-1512.945000	35976.960000	-14645.250000	-17795.070000	0.000000	0.000000	0.000000	0.000000	-101.283177	-59.930917	-73.237797	-88.547939	0.000000	0.000000	0.000000	0.000000	19.578580	2.945180	56.568820	0.081238	0.932493	0.345946	-1.000000	-1.000000	-1.000000	-1.000000	-1.000000	-1.000000	-1.000000	138.965517	0.000000	-1.000000	-1.000000	215953.000000	1772918460.206220
-1480.905000	35864.055000	-14442.615000	-17600.040000	0.000000	0.000000	0.000000	0.000000	-12.747309	-116.340039	41.652340	5.624710	0.000000	0.000000	0.000000	0.000000	19.578580	2.945180	56.568820	0.081238	0.932493	0.345946	-1.000000	-1.000000	-1.000000	-1.000000	-1.000000	-1.000000	-1.000000	138.965517	0.000000	-1.000000	-1.000000	215954.000000	1772918460.206222
-1318.140000	35816.895000	-14299.380000	-17464.905000	0.000000	0.000000	0.000000	0.000000	90.016266	-135.971390	186.914312	121.981763	0.000000	0.000000	0.000000	0.000000	-6.821220	5.691980	44.696540	0.101501	0.914548	0.334472	-1.000000	-1.000000	-1.000000	-1.000000	-1.000000	-1.000000	-1.000000	138.965517	0.000000	-1.000000	-1.000000	215955.000000	1772918460.206225
-1456.245000	35809.290000	-14553.900000	-17599.365000	0.000000	0.000000	0.000000	0.000000	151.349952	-122.970271	253.930969	188.120557	0.000000	0.000000	0.000000	0.000000	-6.821220	5.691980	44.696540	0.101501	0.914548	0.334472	-1.000000	-1.000000	-1.000000	-1.000000	-1.000000	-1.000000	-1.000000	138.965517	0.000000	-1.000000	-1.000000	215956.000000	1772918460.206227
-1701.090000	35858.070000	-14921.415000	-17947.755000	0.000000	0.000000	0.000000	0.000000	134.962087	-81.687434	172.982955	150.009708	0.000000	0.000000	0.000000	0.000000	-6.821220	5.691980	44.696540	0.101501	0.914548	0.334472	-1.000000	-1.000000	-1.000000	-1.000000	-1.000000	-1.000000	-1.000000	138.965517	0.000000	-1.000000	-1.000000	215957.000000	1772918460.206230
-1787.220000	35899.470000	-15098.355000	-18073.305000	0.000000	0.000000	0.000000	0.000000	41.438772	-18.804358	-32.916316	9.895350	0.000000	0.000000	0.000000	0.000000	-6.821220	5.691980	44.696540	0.101501	0.914548	0.334472	-1.000000	-1.000000	-1.000000	-1.000000	-1.000000	-1.000000	-1.000000	138.965517	0.000000	-1.000000	-1.000000	215958.000000	1772918460.206232
-1598.535000	35895.780000	-14921.100000	-17884.080000	0.000000	0.000000	0.000000	0.000000	-72.713927	47.622746	-244.036500	-151.503053	0.000000	0.000000	0.000000	0.000000	-6.821220	5.691980	44.696540	0.101501	0.914548	0.334472	-1.000000	-1.000000	-1.000000	-1.000000	-1.000000	-1.000000	-1.000000	138.965517	0.000000	-1.000000	-1.000000	215959.000000	1772918460.209675
-1458.495000	35914.095000	-14665.500000	-17750.205000	0.000000	0.000000	0.000000	0.000000	-125.431144	92.417632	-319.230934	-222.058942	0.000000	0.000000	0.000000	0.000000	-6.821220	5.691980	44.696540	0.101501	0.914548	0.334472	-1.000000	-1.000000	-1.000000	-1.000000	-1.000000	-1.000000	-1.000000	138.965517	0.000000	-1.000000	-1.000000	215960.000000	1772918460.209678
-1404.000000	35826.345000	-14611.590000	-17679.555000	0.000000	0.000000	0.000000	0.000000	-82.976716	98.040941	-208.936006	-155.529551	0.000000	0.000000	0.000000	0.000000	-6.821220	5.691980	44.696540	0.101501	0.914548	0.334472	-1.000000	-1.000000	-1.000000	-1.000000	-1.000000	-1.000000	-1.000000	138.965517	0.000000	-1.000000	-1.000000	215961.000000	1772918460.213704
-1513.395000	35778.735000	-14611.095000	-17629.200000	0.000000	0.000000	0.000000	0.000000	8.724352	64.133372	3.392268	-8.051409	0.000000	0.000000	0.000000	0.000000	-6.821220	5.691980	44.696540	0.101501	0.914548	0.334472	-1.000000	-1.000000	-1.000000	-1.000000	-1.000000	-1.000000	-1.000000	138.965517	0.000000	-1.000000	-1.000000	215962.000000	1772918460.213708
-1609.965000	35869.545000	-14865.120000	-17781.795000	0.000000	0.000000	0.000000	0.000000	71.109175	11.024048	173.796006	118.390601	0.000000	0.000000	0.000000	0.000000	-6.821220	5.691980	44.696540	0.101501	0.914548	0.334472	-1.000000	-1.000000	-1.000000	-1.000000	-1.000000	-1.000000	-1.000000	138.965517	0.000000	-1.000000	-1.000000	215963.000000	1772918460.217647
-1584.270000	35942.310000	-14977.395000	-17797.320000	0.000000	0.000000	0.000000	0.000000	64.379495	-27.500797	206.633059	152.295618	0.000000	0.000000	0.000000	0.000000	-6.821220	5.691980	44.696540	0.101501	0.914548	0.334472	-1.000000	-1.000000	-1.000000	-1.000000	-1.000000	-1.000000	-1.000000	138.965517	0.000000	-1.000000	-1.000000	215964.000000	1772918460.217649
-1457.730000	36017.370000	-14613.570000	-17679.240000	0.000000	0.000000	0.000000	0.000000	14.398666	-30.050091	119.598940	96.518106	0.000000	0.000000	0.000000	0.000000	12.742100	7.019600	32.244380	0.108459	0.858579	0.329406	-1.000000	-1.000000	-1.000000	-1.000000	-1.000000	-1.000000	-1.000000	138.965517	0.000000	-1.000000	-1.000000	215965.000000	1772918460.221791
-1499.940000	36088.380000	-14572.260000	-17767.035000	0.000000	0.000000	0.000000	0.000000	-26.591687	-4.598110	14.887788	10.431396	0.000000	0.000000	0.000000	0.000000	12.742100	7.019600	32.244380	0.108459	0.858579	0.329406	-1.000000	-1.000000	-1.000000	-1.000000	-1.000000	-1.000000	-1.000000	138.965517	0.000000	-1.000000	-1.000000	215966.000000	1772918460.221793
-1780.920000	36130.095000	-14730.795000	-17973.495000	0.000000	0.000000	0.000000	0.000000	-40.056085	23.371545	-34.698810	-56.497831	0.000000	0.000000	0.000000	0.000000	12.742100	7.019600	32.244380	0.108459	0.858579	0.329406	-1.000000	-1.000000	-1.000000	-1.000000	-1.000000	-1.000000	-1.000000	138.965517	0.000000	-1.000000	-1.000000	215967.000000	1772918460.225430
-1721.700000	36173.295000	-14853.915000	-17998.020000	0.000000	0.000000	0.000000	0.000000	-44.372770	32.227658	-44.067498	-93.153310	0.000000	0.000000	0.000000	0.000000	12.742100	7.019600	32.244380	0.108459	0.858579	0.329406	-1.000000	-1.000000	-1.000000	-1.000000	-1.000000	-1.000000	-1.000000	138.965517	0.000000	-1.000000	-1.000000	215968.000000	1772918460.225433
-1664.055000	36156.690000	-14877.945000	-17892.360000	0.000000	0.000000	0.000000	0.000000	-44.688433	15.800285	-53.640369	-95.621973	0.000000	0.000000	0.000000	0.000000	12.742100	7.019600	32.244380	0.108459	0.858579	0.329406	-1.000000	-1.000000	-1.000000	-1.000000	-1.000000	-1.000000	-1.000000	138.965517	0.000000	-1.000000	-1.000000	215969.000000	1772918460.229691
-1675.125000	36167.625000	-14796.675000	-17856.765000	0.000000	0.000000	0.000000	0.000000	-24.567762	-17.194764	-65.574341	-55.124169	0.000000	0.000000	0.000000	0.000000	12.742100	7.019600	32.244380	0.108459	0.858579	0.329406	-1.000000	-1.000000	-1.000000	-1.000000	-1.000000	-1.000000	-1.000000	138.965517	0.000000	-1.000000	-1.000000	215970.000000	1772918460.229694
-1536.120000	36153.135000	-14658.120000	-17788.770000	0.000000	0.000000	0.000000	0.000000	18.131207	-49.889476	-53.665809	17.031172	0.000000	0.000000	0.000000	0.000000	12.742100	7.019600	32.244380	0.108459	0.858579	0.329406	-1.000000	-1.000000	-1.000000	-1.000000	-1.000000	-1.000000	-1.000000	138.965517	0.000000	-1.000000	-1.000000	215971.000000	1772918460.233788
-1410.120000	36177.255000	-14529.915000	-17653.680000	0.000000	0.000000	0.000000	0.000000	66.510975	-65.965449	-4.784659	87.020612	0.000000	0.000000	0.000000	0.000000	12.742100	7.019600	32.244380	0.108459	0.858579	0.329406	-1.000000	-1.000000	-1.000000	-1.000000	-1.000000	-1.000000	-1.000000	138.965517	0.000000	-1.000000	-1.000000	215972.000000	1772918460.233791
-1356.210000	36169.200000	-14641.200000	-17701.605000	0.000000	0.000000	0.000000	0.000000	99.484202	-57.938499	57.247024	122.098346	0.000000	0.000000	0.000000	0.000000	12.742100	7.019600	32.244380	0.108459	0.858579	0.329406	-1.000000	-1.000000	-1.000000	-1.000000	-1.000000	-1.000000	-1.000000	138.965517	0.000000	-1.000000	-1.000000	215973.000000	1772918460.237679
-1546.605000	36189.405000	-14877.855000	-17880.390000	0.000000	0.000000	0.000000	0.000000	93.827918	-30.435519	82.653651	101.395078	0.000000	0.000000	0.000000	0.000000	12.742100	7.019600	32.244380	0.108459	0.858579	0.329406	-1.000000	-1.000000	-1.000000	-1.000000	-1.000000	-1.000000	-1.000000	138.965517	0.000000	-1.000000	-1.000000	215974.000000	1772918460.237683
-1760.445000	36235.530000	-14948.280000	-18046.710000	0.000000	0.000000	0.000000	0.000000	32.997071	4.626713	41.209847	23.545732	0.000000	0.000000	0.000000	0.000000	50.388520	11.658640	27.117020	0.125488	0.819273	0.335937	-1.000000	-1.000000	-1.000000	-1.000000	-1.000000	-1.000000	-1.000000	138.965517	0.000000	-1.000000	-1.000000	215975.000000	1772918460.242409
-1668.330000	36239.445000	-14726.385000	-17903.340000	0.000000	0.000000	0.000000	0.000000	-64.271781	35.105958	-34.942929	-75.136374	0.000000	0.000000	0.000000	0.000000	50.388520	11.658640	27.117020	0.125488	0.819273	0.335937	-1.000000	-1.000000	-1.000000	-1.000000	-1.000000	-1.000000	-1.000000	138.965517	0.000000	-1.000000	-1.000000	215976.000000	1772918460.242412
-1622.520000	36204.480000	-14583.870000	-17794.800000	0.000000	0.000000	0.000000	0.000000	-136.878036	50.310126	-73.589901	-129.584661	0.000000	0.000000	0.000000	0.000000	50.388520	11.658640	27.117020	0.125488	0.819273	0.335937	-1.000000	-1.000000	-1.000000	-1.000000	-1.000000	-1.000000	-1.000000	138.965517	0.000000	-1.000000	-1.000000	215977.000000	1772918460.245741
-1718.145000	36121.995000	-14737.275000	-17878.725000	0.000000	0.000000	0.000000	0.000000	-135.077372	42.697764	-42.765784	-103.525893	0.000000	0.000000	0.000000	0.000000	50.388520	11.658640	27.117020	0.125488	0.819273	0.335937	-1.000000	-1.000000	-1.000000	-1.000000	-1.000000	-1.000000	-1.000000	138.965517	0.000000	-1.000000	-1.000000	215978.000000	1772918460.245744
-1621.080000	36069.660000	-14827.005000	-17869.365000	0.000000	0.000000	0.000000	0.000000	-67.754363	14.297673	14.296742	-26.888811	0.000000	0.000000	0.000000	0.000000	50.388520	11.658640	27.117020	0.125488	0.819273	0.335937	-1.000000	-1.000000	-1.000000	-1.000000	-1.000000	-1.000000	-1.000000	138.965517	0.000000	-1.000000	-1.000000	215979.000000	1772918460.249764
-1642.860000	36099.495000	-14740.830000	-17745.255000	0.000000	0.000000	0.000000	0.000000	20.184526	-18.783789	41.325879	45.008667	0.000000	0.000000	0.000000	0.000000	50.388520	11.658640	27.117020	0.125488	0.819273	0.335937	-1.000000	-1.000000	-1.000000	-1.000000	-1.000000	-1.000000	-1.000000	138.965517	0.000000	-1.000000	-1.000000	215980.000000	1772918460.249767
-1580.760000	36115.020000	-14542.605000	-17617.905000	0.000000	0.000000	0.000000	0.000000	87.284445	-34.143203	34.944010	85.213360	0.000000	0.000000	0.000000	0.000000	50.388520	11.658640	27.117020	0.125488	0.819273	0.335937	-1.000000	-1.000000	-1.000000	-1.000000	-1.000000	-1.000000	-1.000000	138.965517	0.000000	-1.000000	-1.000000	215981.000000	1772918460.256115
-1521.810000	35951.310000	-14667.525000	-17663.130000	0.000000	0.000000	0.000000	0.000000	112.329209	-24.842808	23.937376	92.210437	0.000000	0.000000	0.000000	0.000000	50.388520	11.658640	27.117020	0.125488	0.819273	0.335937	-1.000000	-1.000000	-1.000000	-1.000000	-1.000000	-1.000000	-1.000000	138.965517	0.000000	-1.000000	-1.000000	215982.000000	1772918460.256118
-1758.195000	35899.605000	-15332.805000	-18001.215000	0.000000	0.000000	0.000000	0.000000	92.172930	-7.630526	3.781812	60.253274	0.000000	0.000000	0.000000	0.000000	50.388520	11.658640	27.117020	0.125488	0.819273	0.335937	-1.000000	-1.000000	-1.000000	-1.000000	-1.000000	-1.000000	-1.000000	138.965517	0.000000	-1.000000	-1.000000	215983.000000	1772918460.258611
-1845.900000	35965.080000	-15475.635000	-18184.680000	0.000000	0.000000	0.000000	0.000000	31.685979	2.928312	-57.223097	-17.163012	0.000000	0.000000	0.000000	0.000000	50.388520	11.658640	27.117020	0.125488	0.819273	0.335937	-1.000000	-1.000000	-1.000000	-1.000000	-1.000000	-1.000000	-1.000000	138.965517	0.000000	-1.000000	-1.000000	215984.000000	1772918460.258614
-1725.345000	36070.245000	-15024.195000	-18158.490000	0.000000	0.000000	0.000000	0.000000	-43.783270	14.376332	-128.509788	-110.423603	0.000000	0.000000	0.000000	0.000000	58.598400	11.460260	23.988720	0.134887	0.829344	0.337096	-1.000000	-1.000000	-1.000000	-1.000000	-1.000000	-1.000000	-1.000000	138.965517	0.000000	-1.000000	-1.000000	215985.000000	1772918460.262533
-1692.495000	36097.515000	-14592.240000	-17893.935000	0.000000	0.000000	0.000000	0.000000	-86.386232	36.762842	-110.083148	-150.528009	0.000000	0.000000	0.000000	0.000000	58.598400	11.460260	23.988720	0.134887	0.829344	0.337096	-1.000000	-1.000000	-1.000000	-1.000000	-1.000000	-1.000000	-1.000000	138.965517	0.000000	-1.000000	-1.000000	215986.000000	1772918460.262536
-1626.840000	36099.855000	-14403.150000	-17669.880000	0.000000	0.000000	0.000000	0.000000	-68.760636	59.492132	37.618021	-87.536639	0.000000	0.000000	0.000000	0.000000	58.598400	11.460260	23.988720	0.134887	0.829344	0.337096	-1.000000	-1.000000	-1.000000	-1.000000	-1.000000	-1.000000	-1.000000	138.965517	0.000000	-1.000000	-1.000000	215987.000000	1772918460.266673
-1562.805000	36236.070000	-14455.620000	-17691.525000	0.000000	0.000000	0.000000	0.000000	-9.596299	63.336170	218.202055	50.142155	0.000000	0.000000	0.000000	0.000000	58.598400	11.460260	23.988720	0.134887	0.829344	0.337096	-1.000000	-1.000000	-1.000000	-1.000000	-1.000000	-1.000000	-1.000000	138.965517	0.000000	-1.000000	-1.000000	215988.000000	1772918460.266676
-1689.300000	36354.105000	-14654.970000	-17798.040000	0.000000	0.000000	0.000000	0.000000	46.839784	45.993943	285.098251	166.353094	0.000000	0.000000	0.000000	0.000000	58.598400	11.460260	23.988720	0.134887	0.829344	0.337096	-1.000000	-1.000000	-1.000000	-1.000000	-1.000000	-1.000000	-1.000000	138.965517	0.000000	-1.000000	-1.000000	215989.000000	1772918460.269724
-1642.815000	36518.670000	-14688.765000	-17820.855000	0.000000	0.000000	0.000000	0.000000	63.319967	21.501994	176.196846	178.901210	0.000000	0.000000	0.000000	0.000000	58.598400	11.460260	23.988720	0.134887	0.829344	0.337096	-1.000000	-1.000000	-1.000000	-1.000000	-1.000000	-1.000000	-1.000000	138.965517	0.000000	-1.000000	-1.000000	215990.000000	1772918460.269727
-1765.485000	36652.230000	-14730.660000	-17918.550000	0.000000	0.000000	0.000000	0.000000	34.504445	1.927112	-38.660369	86.692979	0.000000	0.000000	0.000000	0.000000	58.598400	11.460260	23.988720	0.134887	0.829344	0.337096	-1.000000	-1.000000	-1.000000	-1.000000	-1.000000	-1.000000	-1.000000	138.965517	0.000000	-1.000000	-1.000000	215991.000000	1772918460.276846
-1882.215000	36544.275000	-14867.100000	-18065.790000	0.000000	0.000000	0.000000	0.000000	-17.643903	-15.419664	-228.508772	-46.616598	0.000000	0.000000	0.000000	0.000000	58.598400	11.460260	23.988720	0.134887	0.829344	0.337096	-1.000000	-1.000000	-1.000000	-1.000000	-1.000000	-1.000000	-1.000000	138.965517	0.000000	-1.000000	-1.000000	215992.000000	1772918460.276849
-1856.880000	36412.785000	-14913.180000	-18086.130000	0.000000	0.000000	0.000000	0.000000	-63.847767	-46.460936	-303.180957	-149.379414	0.000000	0.000000	0.000000	0.000000	58.598400	11.460260	23.988720	0.134887	0.829344	0.337096	-1.000000	-1.000000	-1.000000	-1.000000	-1.000000	-1.000000	-1.000000	138.965517	0.000000	-1.000000	-1.000000	215993.000000	1772918460.279693
-1729.035000	36447.525000	-14767.470000	-17904.780000	0.000000	0.000000	0.000000	0.000000	-74.758045	-94.018886	-246.658365	-172.863469	0.000000	0.000000	0.000000	0.000000	58.598400	11.460260	23.988720	0.134887	0.829344	0.337096	-1.000000	-1.000000	-1.000000	-1.000000	-1.000000	-1.000000	-1.000000	138.965517	0.000000	-1.000000	-1.000000	215994.000000	1772918460.279695
-1799.550000	36413.730000	-14940.810000	-17971.830000	0.000000	0.000000	0.000000	0.000000	-38.216223	-129.410208	-100.301191	-107.689895	0.000000	0.000000	0.000000	0.000000	41.766620	10.727780	16.679180	0.132812	0.866941	0.338317	-1.000000	-1.000000	-1.000000	-1.000000	-1.000000	-1.000000	-1.000000	138.965517	0.000000	-1.000000	-1.000000	215995.000000	1772918460.282745
-1739.835000	36448.830000	-14953.095000	-17973.630000	0.000000	0.000000	0.000000	0.000000	22.378401	-119.579317	58.055147	3.092389	0.000000	0.000000	0.000000	0.000000	41.766620	10.727780	16.679180	0.132812	0.866941	0.338317	-1.000000	-1.000000	-1.000000	-1.000000	-1.000000	-1.000000	-1.000000	138.965517	0.000000	-1.000000	-1.000000	215996.000000	1772918460.282749
-1678.275000	36490.275000	-14860.305000	-17901.765000	0.000000	0.000000	0.000000	0.000000	69.750260	-60.164895	160.276464	94.302118	0.000000	0.000000	0.000000	0.000000	41.766620	10.727780	16.679180	0.132812	0.866941	0.338317	-1.000000	-1.000000	-1.000000	-1.000000	-1.000000	-1.000000	-1.000000	138.965517	0.000000	-1.000000	-1.000000	215997.000000	1772918460.288975
-1658.565000	36481.365000	-14775.345000	-17814.015000	0.000000	0.000000	0.000000	0.000000	84.371348	23.124425	189.937230	130.843522	0.000000	0.000000	0.000000	0.000000	41.766620	10.727780	16.679180	0.132812	0.866941	0.338317	-1.000000	-1.000000	-1.000000	-1.000000	-1.000000	-1.000000	-1.000000	138.965517	0.000000	-1.000000	-1.000000	215998.000000	1772918460.288978
-1632.735000	36482.670000	-14703.300000	-17787.960000	0.000000	0.000000	0.000000	0.000000	66.215110	91.977935	167.069412	116.291594	0.000000	0.000000	0.000000	0.000000	41.766620	10.727780	16.679180	0.132812	0.866941	0.338317	-1.000000	-1.000000	-1.000000	-1.000000	-1.000000	-1.000000	-1.000000	138.965517	0.000000	-1.000000	-1.000000	215999.000000	1772918460.292077
-1816.515000	36504.225000	-14994.900000	-17957.115000	0.000000	0.000000	0.000000	0.000000	22.869826	119.026567	108.311275	65.664748	0.000000	0.000000	0.000000	0.000000	41.766620	10.727780	16.679180	0.132812	0.866941	0.338317	-1.000000	-1.000000	-1.000000	-1.000000	-1.000000	-1.000000	-1.000000	138.965517	0.000000	-1.000000	-1.000000	216000.000000	1772918460.292080
-1980.945000	36503.235000	-15399.495000	-18166.815000	0.000000	0.000000	0.000000	0.000000	-37.189182	102.101493	12.164881	-10.709206	0.000000	0.000000	0.000000	0.000000	41.766620	10.727780	16.679180	0.132812	0.866941	0.338317	-1.000000	-1.000000	-1.000000	-1.000000	-1.000000	-1.000000	-1.000000	138.965517	0.000000	-1.000000	-1.000000	216001.000000	1772918460.294600
-1967.895000	36495.270000	-15336.090000	-18196.560000	0.000000	0.000000	0.000000	0.000000	-95.648174	57.797700	-107.184570	-93.818514	0.000000	0.000000	0.000000	0.000000	41.766620	10.727780	16.679180	0.132812	0.866941	0.338317	-1.000000	-1.000000	-1.000000	-1.000000	-1.000000	-1.000000	-1.000000	138.965517	0.000000	-1.000000	-1.000000	216002.000000	1772918460.294604
-1807.875000	36497.160000	-14908.185000	-18015.930000	0.000000	0.000000	0.000000	0.000000	-116.136525	7.581188	-180.226348	-140.858768	0.000000	0.000000	0.000000	0.000000	41.766620	10.727780	16.679180	0.132812	0.866941	0.338317	-1.000000	-1.000000	-1.000000	-1.000000	-1.000000	-1.000000	-1.000000	138.965517	0.000000	-1.000000	-1.000000	216003.000000	1772918460.298659
-1653.705000	36564.345000	-14576.265000	-17756.730000	0.000000	0.000000	0.000000	0.000000	-69.806517	-29.718766	-129.301017	-108.387299	0.000000	0.000000	0.000000	0.000000	41.766620	10.727780	16.679180	0.132812	0.866941	0.338317	-1.000000	-1.000000	-1.000000	-1.000000	-1.000000	-1.000000	-1.000000	138.965517	0.000000	-1.000000	-1.000000	216004.000000	1772918460.298662
-1713.690000	36630.810000	-14600.700000	-17719.605000	0.000000	0.000000	0.000000	0.000000	25.222171	-41.865499	29.477653	-1.351008	0.000000	0.000000	0.000000	0.000000	21.989660	7.217980	4.227020	0.127136	0.895017	0.339599	-1.000000	-1.000000	-1.000000	-1.000000	-1.000000	-1.000000	-1.000000	138.965517	0.000000	-1.000000	-1.000000	216005.000000	1772918460.302682
-1964.520000	36620.910000	-14969.475000	-18046.305000	0.000000	0.000000	0.000000	0.000000	102.552983	-30.202793	171.017291	107.324669	0.000000	0.000000	0.000000	0.000000	21.989660	7.217980	4.227020	0.127136	0.895017	0.339599	-1.000000	-1.000000	-1.000000	-1.000000	-1.000000	-1.000000	-1.000000	138.965517	0.000000	-1.000000	-1.000000	216006.000000	1772918460.302685
-1842.660000	36604.035000	-14916.060000	-18077.580000	0.000000	0.000000	0.000000	0.000000	105.747249	-11.293800	176.637131	131.345588	0.000000	0.000000	0.000000	0.000000	21.989660	7.217980	4.227020	0.127136	0.895017	0.339599	-1.000000	-1.000000	-1.000000	-1.000000	-1.000000	-1.000000	-1.000000	138.965517	0.000000	-1.000000	-1.000000	216007.000000	1772918460.306753
-1883.835000	36535.185000	-14849.955000	-18031.140000	0.000000	0.000000	0.000000	0.000000	46.318218	-3.851578	53.756080	59.767442	0.000000	0.000000	0.000000	0.000000	21.989660	7.217980	4.227020	0.127136	0.895017	0.339599	-1.000000	-1.000000	-1.000000	-1.000000	-1.000000	-1.000000	-1.000000	138.965517	0.000000	-1.000000	-1.000000	216008.000000	1772918460.306756
-1828.485000	36431.775000	-14842.935000	-18017.235000	0.000000	0.000000	0.000000	0.000000	-19.139783	-14.717247	-88.305052	-36.552464	0.000000	0.000000	0.000000	0.000000	21.989660	7.217980	4.227020	0.127136	0.895017	0.339599	-1.000000	-1.000000	-1.000000	-1.000000	-1.000000	-1.000000	-1.000000	138.965517	0.000000	-1.000000	-1.000000	216009.000000	1772918460.313116
-1702.755000	36385.560000	-14719.230000	-17858.790000	0.000000	0.000000	0.000000	0.000000	-47.801603	-35.782224	-155.246185	-83.799152	0.000000	0.000000	0.000000	0.000000	21.989660	7.217980	4.227020	0.127136	0.895017	0.339599	-1.000000	-1.000000	-1.000000	-1.000000	-1.000000	-1.000000	-1.000000	138.965517	0.000000	-1.000000	-1.000000	216010.000000	1772918460.313118
-1680.210000	36370.260000	-14638.005000	-17782.965000	0.000000	0.000000	0.000000	0.000000	-32.116669	-48.639272	-126.140587	-59.896690	0.000000	0.000000	0.000000	0.000000	21.989660	7.217980	4.227020	0.127136	0.895017	0.339599	-1.000000	-1.000000	-1.000000	-1.000000	-1.000000	-1.000000	-1.000000	138.965517	0.000000	-1.000000	-1.000000	216011.000000	1772918460.314958
-1707.930000	36347.085000	-14620.770000	-17763.210000	0.000000	0.000000	0.000000	0.000000	3.665439	-37.655547	-39.545343	5.121648	0.000000	0.000000	0.000000	0.000000	21.989660	7.217980	4.227020	0.127136	0.895017	0.339599	-1.000000	-1.000000	-1.000000	-1.000000	-1.000000	-1.000000	-1.000000	138.965517	0.000000	-1.000000	-1.000000	216012.000000	1772918460.314961
-1661.040000	36400.050000	-14744.430000	-17858.655000	0.000000	0.000000	0.000000	0.000000	25.449240	-2.630744	40.785528	56.615566	0.000000	0.000000	0.000000	0.000000	21.989660	7.217980	4.227020	0.127136	0.895017	0.339599	-1.000000	-1.000000	-1.000000	-1.000000	-1.000000	-1.000000	-1.000000	138.965517	0.000000	-1.000000	-1.000000	216013.000000	1772918460.318714
-1589.040000	36466.695000	-14956.965000	-17806.995000	0.000000	0.000000	0.000000	0.000000	20.817918	43.148461	63.839962	57.700082	0.000000	0.000000	0.000000	0.000000	21.989660	7.217980	4.227020	0.127136	0.895017	0.339599	-1.000000	-1.000000	-1.000000	-1.000000	-1.000000	-1.000000	-1.000000	138.965517	0.000000	-1.000000	-1.000000	216014.000000	1772918460.318717
-1727.280000	36494.415000	-15246.990000	-17994.555000	0.000000	0.000000	0.000000	0.000000	-0.585368	81.140178	18.505639	12.938937	0.000000	0.000000	0.000000	0.000000	18.052580	6.165040	1.754900	0.120910	0.906614	0.341247	-1.000000	-1.000000	-1.000000	-1.000000	-1.000000	-1.000000	-1.000000	138.965517	0.000000	-1.000000	-1.000000	216015.000000	1772918460.322752
-1727.415000	36494.370000	-15037.830000	-18044.370000	0.000000	0.000000	0.000000	0.000000	-28.311224	93.193128	-55.303474	-47.723843	0.000000	0.000000	0.000000	0.000000	18.052580	6.165040	1.754900	0.120910	0.906614	0.341247	-1.000000	-1.000000	-1.000000	-1.000000	-1.000000	-1.000000	-1.000000	138.965517	0.000000	-1.000000	-1.000000	216016.000000	1772918460.322755
-1830.330000	36456.705000	-14995.890000	-18124.830000	0.000000	0.000000	0.000000	0.000000	-53.408926	69.828554	-86.131119	-91.650483	0.000000	0.000000	0.000000	0.000000	18.052580	6.165040	1.754900	0.120910	0.906614	0.341247	-1.000000	-1.000000	-1.000000	-1.000000	-1.000000	-1.000000	-1.000000	138.965517	0.000000	-1.000000	-1.000000	216017.000000	1772918460.326715
-1970.820000	36459.810000	-15040.260000	-18060.120000	0.000000	0.000000	0.000000	0.000000	-66.308327	18.571955	-37.552541	-93.784292	0.000000	0.000000	0.000000	0.000000	18.052580	6.165040	1.754900	0.120910	0.906614	0.341247	-1.000000	-1.000000	-1.000000	-1.000000	-1.000000	-1.000000	-1.000000	138.965517	0.000000	-1.000000	-1.000000	216018.000000	1772918460.326719
-1846.575000	36455.850000	-14765.580000	-17860.320000	0.000000	0.000000	0.000000	0.000000	-59.575625	-37.416725	57.458840	-44.603448	0.000000	0.000000	0.000000	0.000000	18.052580	6.165040	1.754900	0.120910	0.906614	0.341247	-1.000000	-1.000000	-1.000000	-1.000000	-1.000000	-1.000000	-1.000000	138.965517	0.000000	-1.000000	-1.000000	216019.000000	1772918460.330620
-1799.370000	36449.955000	-14695.470000	-17877.555000	0.000000	0.000000	0.000000	0.000000	-24.808840	-73.280843	142.590931	40.090331	0.000000	0.000000	0.000000	0.000000	18.052580	6.165040	1.754900	0.120910	0.906614	0.341247	-1.000000	-1.000000	-1.000000	-1.000000	-1.000000	-1.000000	-1.000000	138.965517	0.000000	-1.000000	-1.000000	216020.000000	1772918460.330623
-1858.005000	36490.410000	-14668.065000	-17865.720000	0.000000	0.000000	0.000000	0.000000	32.648356	-76.827335	175.891282	115.494384	0.000000	0.000000	0.000000	0.000000	18.052580	6.165040	1.754900	0.120910	0.906614	0.341247	-1.000000	-1.000000	-1.000000	-1.000000	-1.000000	-1.000000	-1.000000	138.965517	0.000000	-1.000000	-1.000000	216021.000000	1772918460.335630
-1639.440000	36539.910000	-14632.515000	-17765.370000	0.000000	0.000000	0.000000	0.000000	86.059273	-50.911144	137.189064	137.554838	0.000000	0.000000	0.000000	0.000000	18.052580	6.165040	1.754900	0.120910	0.906614	0.341247	-1.000000	-1.000000	-1.000000	-1.000000	-1.000000	-1.000000	-1.000000	138.965517	0.000000	-1.000000	-1.000000	216022.000000	1772918460.335634
-1559.790000	36556.020000	-14704.875000	-17850.330000	0.000000	0.000000	0.000000	0.000000	114.182406	-9.657937	39.700445	98.793421	0.000000	0.000000	0.000000	0.000000	18.052580	6.165040	1.754900	0.120910	0.906614	0.341247	-1.000000	-1.000000	-1.000000	-1.000000	-1.000000	-1.000000	-1.000000	138.965517	0.000000	-1.000000	-1.000000	216023.000000	1772918460.338694
-1716.705000	36554.580000	-14807.655000	-17955.495000	0.000000	0.000000	0.000000	0.000000	107.071191	26.588387	-76.891005	20.587324	0.000000	0.000000	0.000000	0.000000	18.052580	6.165040	1.754900	0.120910	0.906614	0.341247	-1.000000	-1.000000	-1.000000	-1.000000	-1.000000	-1.000000	-1.000000	138.965517	0.000000	-1.000000	-1.000000	216024.000000	1772918460.338697
-2006.280000	36531.090000	-14968.890000	-18128.475000	0.000000	0.000000	0.000000	0.000000	51.104442	41.087377	-170.168342	-68.386539	0.000000	0.000000	0.000000	0.000000	17.228540	4.501700	2.670500	0.127807	0.905515	0.343810	-1.000000	-1.000000	-1.000000	-1.000000	-1.000000	-1.000000	-1.000000	138.965517	0.000000	-1.000000	-1.000000	216025.000000	1772918460.342792
-2122.155000	36596.070000	-15238.845000	-18303.570000	0.000000	0.000000	0.000000	0.000000	-50.077272	31.726971	-213.262681	-138.804600	0.000000	0.000000	0.000000	0.000000	17.228540	4.501700	2.670500	0.127807	0.905515	0.343810	-1.000000	-1.000000	-1.000000	-1.000000	-1.000000	-1.000000	-1.000000	138.965517	0.000000	-1.000000	-1.000000	216026.000000	1772918460.342795
-1935.045000	36625.680000	-15115.680000	-18138.870000	0.000000	0.000000	0.000000	0.000000	-144.819221	12.093590	-195.426243	-160.873738	0.000000	0.000000	0.000000	0.000000	17.228540	4.501700	2.670500	0.127807	0.905515	0.343810	-1.000000	-1.000000	-1.000000	-1.000000	-1.000000	-1.000000	-1.000000	138.965517	0.000000	-1.000000	-1.000000	216027.000000	1772918460.346824
-1833.255000	36559.980000	-15003.405000	-18052.605000	0.000000	0.000000	0.000000	0.000000	-160.983292	-4.011547	-110.750721	-111.143783	0.000000	0.000000	0.000000	0.000000	17.228540	4.501700	2.670500	0.127807	0.905515	0.343810	-1.000000	-1.000000	-1.000000	-1.000000	-1.000000	-1.000000	-1.000000	138.965517	0.000000	-1.000000	-1.000000	216028.000000	1772918460.346827
-1755.630000	36571.455000	-14887.665000	-17963.820000	0.000000	0.000000	0.000000	0.000000	-77.940772	-14.854089	27.814773	0.274849	0.000000	0.000000	0.000000	0.000000	17.228540	4.501700	2.670500	0.127807	0.905515	0.343810	-1.000000	-1.000000	-1.000000	-1.000000	-1.000000	-1.000000	-1.000000	138.965517	0.000000	-1.000000	-1.000000	216029.000000	1772918460.350760
-1741.635000	36722.520000	-14772.465000	-17806.860000	0.000000	0.000000	0.000000	0.000000	48.844937	-19.293925	169.654384	120.981319	0.000000	0.000000	0.000000	0.000000	17.228540	4.501700	2.670500	0.127807	0.905515	0.343810	-1.000000	-1.000000	-1.000000	-1.000000	-1.000000	-1.000000	-1.000000	138.965517	0.000000	-1.000000	-1.000000	216030.000000	1772918460.350762
-1799.820000	36812.385000	-14762.385000	-17835.615000	0.000000	0.000000	0.000000	0.000000	137.703470	-8.566352	250.147471	190.894852	0.000000	0.000000	0.000000	0.000000	17.228540	4.501700	2.670500	0.127807	0.905515	0.343810	-1.000000	-1.000000	-1.000000	-1.000000	-1.000000	-1.000000	-1.000000	138.965517	0.000000	-1.000000	-1.000000	216031.000000	1772918460.354748
-1874.520000	36822.735000	-14838.570000	-17980.290000	0.000000	0.000000	0.000000	0.000000	140.647469	16.090503	230.224704	173.841078	0.000000	0.000000	0.000000	0.000000	17.228540	4.501700	2.670500	0.127807	0.905515	0.343810	-1.000000	-1.000000	-1.000000	-1.000000	-1.000000	-1.000000	-1.000000	138.965517	0.000000	-1.000000	-1.000000	216032.000000	1772918460.354750
-1923.660000	36730.035000	-14899.320000	-18020.655000	0.000000	0.000000	0.000000	0.000000	67.152114	32.675659	117.779830	73.891589	0.000000	0.000000	0.000000	0.000000	17.228540	4.501700	2.670500	0.127807	0.905515	0.343810	-1.000000	-1.000000	-1.000000	-1.000000	-1.000000	-1.000000	-1.000000	138.965517	0.000000	-1.000000	-1.000000	216033.000000	1772918460.358734
