Channel1	Channel2	Channel3	Channel4	Channel5	Channel6	Channel7	Channel8	FilteredChannel1	FilteredChannel2	FilteredChannel3	FilteredChannel4	FilteredChannel5	FilteredChannel6	FilteredChannel7	FilteredChannel8	GyroX	GyroY	GyroZ	AccX	AccY	AccZ	PPG1	PPG2	rawPPG1	rawPPG2	rawPPG3	Hr	Hrv	Battery	Trigger	PhysicalTrigger	AutoTrigger	NumMeasurements	Timestamp
-16919.640000	-12577.590000	-17919.675000	-12953.250000	0.000000	0.000000	0.000000	0.000000	10.451982	-2.306739	7.367613	7.893009	0.000000	0.000000	-0.000000	-0.000000	3.998120	0.030520	-0.106820	0.009094	0.977537	-0.090027	-1.000000	-1.000000	-1.000000	-1.000000	-1.000000	-1.000000	-1.000000	146.620690	0.000000	-1.000000	-1.000000	239427.000000	1772311136.895632
-16911.360000	-12553.020000	-17912.970000	-12950.145000	0.000000	0.000000	0.000000	0.000000	12.018274	5.816870	7.826349	5.255065	0.000000	0.000000	-0.000000	-0.000000	3.998120	0.030520	-0.106820	0.009094	0.977537	-0.090027	-1.000000	-1.000000	-1.000000	-1.000000	-1.000000	-1.000000	-1.000000	146.620690	0.000000	-1.000000	-1.000000	239428.000000	1772311136.895634
-16920.180000	-12534.390000	-17913.420000	-12954.780000	0.000000	0.000000	0.000000	0.000000	7.414518	17.666971	3.705240	-1.413097	0.000000	0.000000	-0.000000	-0.000000	3.998120	0.030520	-0.106820	0.009094	0.977537	-0.090027	-1.000000	-1.000000	-1.000000	-1.000000	-1.000000	-1.000000	-1.000000	146.620690	0.000000	-1.000000	-1.000000	239429.000000	1772311136.899731
-16959.060000	-12475.710000	-17930.700000	-12969.180000	0.000000	0.000000	0.000000	0.000000	-0.596082	21.804524	-2.115805	-8.081344	0.000000	0.000000	-0.000000	-0.000000	3.998120	0.030520	-0.106820	0.009094	0.977537	-0.090027	-1.000000	-1.000000	-1.000000	-1.000000	-1.000000	-1.000000	-1.000000	146.620690	0.000000	-1.000000	-1.000000	239430.000000	1772311136.899735
-16970.625000	-12481.920000	-17933.580000	-12973.635000	0.000000	0.000000	0.000000	0.000000	-9.336850	13.372245	-7.048399	-11.536136	0.000000	0.000000	-0.000000	-0.000000	3.998120	0.030520	-0.106820	0.009094	0.977537	-0.090027	-1.000000	-1.000000	-1.000000	-1.000000	-1.000000	-1.000000	-1.000000	146.620690	0.000000	-1.000000	-1.000000	239431.000000	1772311136.903686
-16926.615000	-12468.555000	-17928.405000	-12976.155000	0.000000	0.000000	0.000000	0.000000	-14.472098	-4.281599	-9.274196	-10.644722	0.000000	0.000000	-0.000000	-0.000000	3.998120	0.030520	-0.106820	0.009094	0.977537	-0.090027	-1.000000	-1.000000	-1.000000	-1.000000	-1.000000	-1.000000	-1.000000	146.620690	0.000000	-1.000000	-1.000000	239432.000000	1772311136.903689
-16872.030000	-12458.430000	-17908.200000	-12960.540000	0.000000	0.000000	0.000000	0.000000	-9.614679	-23.809853	-7.058456	-5.509436	0.000000	0.000000	-0.000000	-0.000000	3.998120	0.030520	-0.106820	0.009094	0.977537	-0.090027	-1.000000	-1.000000	-1.000000	-1.000000	-1.000000	-1.000000	-1.000000	146.620690	0.000000	-1.000000	-1.000000	239433.000000	1772311136.907694
-16877.970000	-12443.265000	-17896.005000	-12932.145000	0.000000	0.000000	0.000000	0.000000	5.580665	-36.413698	-0.327131	2.928811	0.000000	0.000000	-0.000000	-0.000000	3.998120	0.030520	-0.106820	0.009094	0.977537	-0.090027	-1.000000	-1.000000	-1.000000	-1.000000	-1.000000	-1.000000	-1.000000	146.620690	0.000000	-1.000000	-1.000000	239434.000000	1772311136.907697
-16890.930000	-12451.590000	-17899.335000	-12935.655000	0.000000	0.000000	0.000000	0.000000	20.187073	-36.771883	7.598689	12.053231	0.000000	0.000000	-0.000000	-0.000000	3.647140	0.167860	-0.457800	0.009705	0.977537	-0.090881	-1.000000	-1.000000	-1.000000	-1.000000	-1.000000	-1.000000	-1.000000	146.620690	0.000000	-1.000000	-1.000000	239435.000000	1772311136.911795
-16887.690000	-12483.315000	-17892.090000	-12930.345000	0.000000	0.000000	0.000000	0.000000	21.769600	-27.035343	11.645578	17.053965	0.000000	0.000000	-0.000000	-0.000000	3.647140	0.167860	-0.457800	0.009705	0.977537	-0.090881	-1.000000	-1.000000	-1.000000	-1.000000	-1.000000	-1.000000	-1.000000	146.620690	0.000000	-1.000000	-1.000000	239436.000000	1772311136.911798
-16935.345000	-12487.995000	-17935.740000	-12967.425000	0.000000	0.000000	0.000000	0.000000	8.349695	-13.937308	8.583758	13.648135	0.000000	0.000000	-0.000000	-0.000000	3.647140	0.167860	-0.457800	0.009705	0.977537	-0.090881	-1.000000	-1.000000	-1.000000	-1.000000	-1.000000	-1.000000	-1.000000	146.620690	0.000000	-1.000000	-1.000000	239437.000000	1772311136.915767
-16977.330000	-12483.495000	-17977.905000	-13013.055000	0.000000	0.000000	0.000000	0.000000	-12.825920	-1.787266	-1.750812	1.203570	0.000000	0.000000	-0.000000	-0.000000	3.647140	0.167860	-0.457800	0.009705	0.977537	-0.090881	-1.000000	-1.000000	-1.000000	-1.000000	-1.000000	-1.000000	-1.000000	146.620690	0.000000	-1.000000	-1.000000	239438.000000	1772311136.915770
-16936.515000	-12448.035000	-17932.815000	-12972.465000	0.000000	0.000000	0.000000	0.000000	-30.288693	9.885441	-14.327673	-14.628030	0.000000	0.000000	-0.000000	-0.000000	3.647140	0.167860	-0.457800	0.009705	0.977537	-0.090881	-1.000000	-1.000000	-1.000000	-1.000000	-1.000000	-1.000000	-1.000000	146.620690	0.000000	-1.000000	-1.000000	239439.000000	1772311136.919702
-16927.065000	-12455.910000	-17922.555000	-12947.130000	0.000000	0.000000	0.000000	0.000000	-32.071869	21.630683	-18.778431	-22.197878	0.000000	0.000000	-0.000000	-0.000000	3.647140	0.167860	-0.457800	0.009705	0.977537	-0.090881	-1.000000	-1.000000	-1.000000	-1.000000	-1.000000	-1.000000	-1.000000	146.620690	0.000000	-1.000000	-1.000000	239440.000000	1772311136.919706
-16918.200000	-12486.735000	-17919.405000	-12942.225000	0.000000	0.000000	0.000000	0.000000	-15.265429	29.063268	-9.666033	-14.279042	0.000000	0.000000	-0.000000	-0.000000	3.647140	0.167860	-0.457800	0.009705	0.977537	-0.090881	-1.000000	-1.000000	-1.000000	-1.000000	-1.000000	-1.000000	-1.000000	146.620690	0.000000	-1.000000	-1.000000	239441.000000	1772311136.923708
-16914.690000	-12499.245000	-17922.330000	-12947.895000	0.000000	0.000000	0.000000	0.000000	9.531344	25.943599	6.233884	2.849721	0.000000	0.000000	-0.000000	-0.000000	3.647140	0.167860	-0.457800	0.009705	0.977537	-0.090881	-1.000000	-1.000000	-1.000000	-1.000000	-1.000000	-1.000000	-1.000000	146.620690	0.000000	-1.000000	-1.000000	239442.000000	1772311136.923711
-16896.060000	-12553.740000	-17903.565000	-12934.755000	0.000000	0.000000	0.000000	0.000000	27.901458	11.814701	17.866920	16.362842	0.000000	0.000000	-0.000000	-0.000000	3.647140	0.167860	-0.457800	0.009705	0.977537	-0.090881	-1.000000	-1.000000	-1.000000	-1.000000	-1.000000	-1.000000	-1.000000	146.620690	0.000000	-1.000000	-1.000000	239443.000000	1772311136.927828
-16892.100000	-12603.150000	-17896.320000	-12939.030000	0.000000	0.000000	0.000000	0.000000	32.255263	-7.419291	19.994439	18.973134	0.000000	0.000000	-0.000000	-0.000000	3.647140	0.167860	-0.457800	0.009705	0.977537	-0.090881	-1.000000	-1.000000	-1.000000	-1.000000	-1.000000	-1.000000	-1.000000	146.620690	0.000000	-1.000000	-1.000000	239444.000000	1772311136.927831
-16911.405000	-12631.365000	-17910.225000	-12954.690000	0.000000	0.000000	0.000000	0.000000	23.051986	-23.437069	13.675641	11.445577	0.000000	0.000000	-0.000000	-0.000000	3.448760	0.228900	-0.564620	0.010376	0.977353	-0.091858	-1.000000	-1.000000	-1.000000	-1.000000	-1.000000	-1.000000	-1.000000	146.620690	0.000000	-1.000000	-1.000000	239445.000000	1772311136.931818
-16917.795000	-12601.125000	-17916.570000	-12959.190000	0.000000	0.000000	0.000000	0.000000	5.361458	-27.461341	2.245751	-1.193764	0.000000	0.000000	-0.000000	-0.000000	3.448760	0.228900	-0.564620	0.010376	0.977353	-0.091858	-1.000000	-1.000000	-1.000000	-1.000000	-1.000000	-1.000000	-1.000000	146.620690	0.000000	-1.000000	-1.000000	239446.000000	1772311136.931820
-16914.555000	-12580.245000	-17913.105000	-12951.000000	0.000000	0.000000	0.000000	0.000000	-12.900371	-14.293268	-9.700159	-12.244054	0.000000	0.000000	-0.000000	-0.000000	3.448760	0.228900	-0.564620	0.010376	0.977353	-0.091858	-1.000000	-1.000000	-1.000000	-1.000000	-1.000000	-1.000000	-1.000000	146.620690	0.000000	-1.000000	-1.000000	239447.000000	1772311136.937423
-16907.355000	-12598.065000	-17906.445000	-12937.005000	0.000000	0.000000	0.000000	0.000000	-23.415166	10.705677	-16.746819	-15.816301	0.000000	0.000000	-0.000000	-0.000000	3.448760	0.228900	-0.564620	0.010376	0.977353	-0.091858	-1.000000	-1.000000	-1.000000	-1.000000	-1.000000	-1.000000	-1.000000	146.620690	0.000000	-1.000000	-1.000000	239448.000000	1772311136.937427
-16902.270000	-12586.365000	-17905.950000	-12939.345000	0.000000	0.000000	0.000000	0.000000	-22.234131	32.522174	-15.887223	-10.630745	0.000000	0.000000	-0.000000	-0.000000	3.448760	0.228900	-0.564620	0.010376	0.977353	-0.091858	-1.000000	-1.000000	-1.000000	-1.000000	-1.000000	-1.000000	-1.000000	146.620690	0.000000	-1.000000	-1.000000	239449.000000	1772311136.939680
-16893.630000	-12577.275000	-17899.695000	-12939.480000	0.000000	0.000000	0.000000	0.000000	-11.926223	38.964344	-8.713301	-1.151774	0.000000	0.000000	-0.000000	-0.000000	3.448760	0.228900	-0.564620	0.010376	0.977353	-0.091858	-1.000000	-1.000000	-1.000000	-1.000000	-1.000000	-1.000000	-1.000000	146.620690	0.000000	-1.000000	-1.000000	239450.000000	1772311136.939683
-16903.845000	-12557.205000	-17909.955000	-12950.055000	0.000000	0.000000	0.000000	0.000000	0.788367	29.444747	0.117900	6.166715	0.000000	0.000000	-0.000000	-0.000000	3.448760	0.228900	-0.564620	0.010376	0.977353	-0.091858	-1.000000	-1.000000	-1.000000	-1.000000	-1.000000	-1.000000	-1.000000	146.620690	0.000000	-1.000000	-1.000000	239451.000000	1772311136.943741
-16928.685000	-12575.790000	-17932.005000	-12968.595000	0.000000	0.000000	0.000000	0.000000	8.807187	11.084876	5.640381	7.419917	0.000000	0.000000	-0.000000	-0.000000	3.448760	0.228900	-0.564620	0.010376	0.977353	-0.091858	-1.000000	-1.000000	-1.000000	-1.000000	-1.000000	-1.000000	-1.000000	146.620690	0.000000	-1.000000	-1.000000	239452.000000	1772311136.943745
-16931.070000	-12590.730000	-17929.935000	-12967.830000	0.000000	0.000000	0.000000	0.000000	8.640946	-8.885355	5.502600	3.140766	0.000000	0.000000	-0.000000	-0.000000	3.448760	0.228900	-0.564620	0.010376	0.977353	-0.091858	-1.000000	-1.000000	-1.000000	-1.000000	-1.000000	-1.000000	-1.000000	146.620690	0.000000	-1.000000	-1.000000	239453.000000	1772311136.948287
-16915.905000	-12584.925000	-17909.505000	-12945.330000	0.000000	0.000000	0.000000	0.000000	3.320499	-24.939813	2.373345	-1.943932	0.000000	0.000000	-0.000000	-0.000000	3.448760	0.228900	-0.564620	0.010376	0.977353	-0.091858	-1.000000	-1.000000	-1.000000	-1.000000	-1.000000	-1.000000	-1.000000	146.620690	0.000000	-1.000000	-1.000000	239454.000000	1772311136.948291
-16914.870000	-12596.715000	-17910.045000	-12947.805000	0.000000	0.000000	0.000000	0.000000	-0.572221	-32.208416	1.255148	-2.688688	0.000000	0.000000	-0.000000	-0.000000	3.357200	0.091560	-0.717220	0.010315	0.977964	-0.092529	-1.000000	-1.000000	-1.000000	-1.000000	-1.000000	-1.000000	-1.000000	146.620690	0.000000	-1.000000	-1.000000	239455.000000	1772311136.952506
-16921.980000	-12622.995000	-17922.195000	-12960.180000	0.000000	0.000000	0.000000	0.000000	0.011214	-29.231220	3.210487	0.890197	0.000000	0.000000	-0.000000	-0.000000	3.357200	0.091560	-0.717220	0.010315	0.977964	-0.092529	-1.000000	-1.000000	-1.000000	-1.000000	-1.000000	-1.000000	-1.000000	146.620690	0.000000	-1.000000	-1.000000	239456.000000	1772311136.952510
-16898.400000	-12648.420000	-17897.670000	-12930.120000	0.000000	0.000000	0.000000	0.000000	3.104975	-19.795857	5.247818	4.697646	0.000000	0.000000	-0.000000	-0.000000	3.357200	0.091560	-0.717220	0.010315	0.977964	-0.092529	-1.000000	-1.000000	-1.000000	-1.000000	-1.000000	-1.000000	-1.000000	146.620690	0.000000	-1.000000	-1.000000	239457.000000	1772311136.955941
-16896.465000	-12670.155000	-17896.365000	-12927.195000	0.000000	0.000000	0.000000	0.000000	6.059743	-9.130742	5.606672	6.541580	0.000000	0.000000	-0.000000	-0.000000	3.357200	0.091560	-0.717220	0.010315	0.977964	-0.092529	-1.000000	-1.000000	-1.000000	-1.000000	-1.000000	-1.000000	-1.000000	146.620690	0.000000	-1.000000	-1.000000	239458.000000	1772311136.955944
-16900.425000	-12670.020000	-17902.710000	-12936.105000	0.000000	0.000000	0.000000	0.000000	7.030404	0.316119	4.306480	6.189671	0.000000	0.000000	-0.000000	-0.000000	3.357200	0.091560	-0.717220	0.010315	0.977964	-0.092529	-1.000000	-1.000000	-1.000000	-1.000000	-1.000000	-1.000000	-1.000000	146.620690	0.000000	-1.000000	-1.000000	239459.000000	1772311136.959878
-16899.165000	-12655.620000	-17899.920000	-12936.510000	0.000000	0.000000	0.000000	0.000000	4.575198	9.199708	1.114111	2.885750	0.000000	0.000000	-0.000000	-0.000000	3.357200	0.091560	-0.717220	0.010315	0.977964	-0.092529	-1.000000	-1.000000	-1.000000	-1.000000	-1.000000	-1.000000	-1.000000	146.620690	0.000000	-1.000000	-1.000000	239460.000000	1772311136.959883
-16897.365000	-12651.120000	-17896.005000	-12939.075000	0.000000	0.000000	0.000000	0.000000	-0.682673	18.149239	-3.178140	-2.802450	0.000000	0.000000	-0.000000	-0.000000	3.357200	0.091560	-0.717220	0.010315	0.977964	-0.092529	-1.000000	-1.000000	-1.000000	-1.000000	-1.000000	-1.000000	-1.000000	146.620690	0.000000	-1.000000	-1.000000	239461.000000	1772311136.968348
-16899.345000	-12674.025000	-17895.510000	-12936.015000	0.000000	0.000000	0.000000	0.000000	-5.992119	24.333399	-6.371499	-7.976341	0.000000	0.000000	-0.000000	-0.000000	3.357200	0.091560	-0.717220	0.010315	0.977964	-0.092529	-1.000000	-1.000000	-1.000000	-1.000000	-1.000000	-1.000000	-1.000000	146.620690	0.000000	-1.000000	-1.000000	239462.000000	1772311136.968352
-16900.830000	-12680.055000	-17894.295000	-12925.080000	0.000000	0.000000	0.000000	0.000000	-8.886240	22.943864	-6.997716	-9.583318	0.000000	0.000000	-0.000000	-0.000000	3.357200	0.091560	-0.717220	0.010315	0.977964	-0.092529	-1.000000	-1.000000	-1.000000	-1.000000	-1.000000	-1.000000	-1.000000	146.620690	0.000000	-1.000000	-1.000000	239463.000000	1772311136.968357
-16910.280000	-12650.175000	-17903.520000	-12928.230000	0.000000	0.000000	0.000000	0.000000	-8.738763	13.731444	-5.458610	-6.712916	0.000000	0.000000	-0.000000	-0.000000	3.357200	0.091560	-0.717220	0.010315	0.977964	-0.092529	-1.000000	-1.000000	-1.000000	-1.000000	-1.000000	-1.000000	-1.000000	146.620690	0.000000	-1.000000	-1.000000	239464.000000	1772311136.968360
-16909.290000	-12631.815000	-17907.795000	-12935.745000	0.000000	0.000000	0.000000	0.000000	-6.402047	3.049671	-3.313244	-1.604998	0.000000	0.000000	-0.000000	-0.000000	3.235120	-0.076300	-0.778260	0.009827	0.977109	-0.093261	-1.000000	-1.000000	-1.000000	-1.000000	-1.000000	-1.000000	-1.000000	146.620690	0.000000	-1.000000	-1.000000	239465.000000	1772311136.971976
-16883.190000	-12650.265000	-17886.870000	-12924.090000	0.000000	0.000000	0.000000	0.000000	-2.420702	-3.628612	-1.242059	2.433047	0.000000	0.000000	-0.000000	-0.000000	3.235120	-0.076300	-0.778260	0.009827	0.977109	-0.093261	-1.000000	-1.000000	-1.000000	-1.000000	-1.000000	-1.000000	-1.000000	146.620690	0.000000	-1.000000	-1.000000	239466.000000	1772311136.971980
-16878.870000	-12685.455000	-17885.025000	-12923.685000	0.000000	0.000000	0.000000	0.000000	3.289403	-7.877540	1.629893	4.242140	0.000000	0.000000	-0.000000	-0.000000	3.235120	-0.076300	-0.778260	0.009827	0.977109	-0.093261	-1.000000	-1.000000	-1.000000	-1.000000	-1.000000	-1.000000	-1.000000	146.620690	0.000000	-1.000000	-1.000000	239467.000000	1772311136.975962
-16895.880000	-12682.395000	-17907.840000	-12952.260000	0.000000	0.000000	0.000000	0.000000	8.646041	-13.356281	4.713635	3.917592	0.000000	0.000000	-0.000000	-0.000000	3.235120	-0.076300	-0.778260	0.009827	0.977109	-0.093261	-1.000000	-1.000000	-1.000000	-1.000000	-1.000000	-1.000000	-1.000000	146.620690	0.000000	-1.000000	-1.000000	239468.000000	1772311136.975965
-16892.145000	-12671.595000	-17902.440000	-12949.290000	0.000000	0.000000	0.000000	0.000000	9.614771	-18.055767	5.204042	1.151168	0.000000	0.000000	-0.000000	-0.000000	3.235120	-0.076300	-0.778260	0.009827	0.977109	-0.093261	-1.000000	-1.000000	-1.000000	-1.000000	-1.000000	-1.000000	-1.000000	146.620690	0.000000	-1.000000	-1.000000	239469.000000	1772311136.979925
-16859.070000	-12639.870000	-17860.320000	-12915.720000	0.000000	0.000000	0.000000	0.000000	5.827655	-16.006152	3.228167	-2.007730	0.000000	0.000000	-0.000000	-0.000000	3.235120	-0.076300	-0.778260	0.009827	0.977109	-0.093261	-1.000000	-1.000000	-1.000000	-1.000000	-1.000000	-1.000000	-1.000000	146.620690	0.000000	-1.000000	-1.000000	239470.000000	1772311136.979928
-16890.885000	-12656.115000	-17886.870000	-12943.215000	0.000000	0.000000	0.000000	0.000000	1.050840	-5.659190	2.188537	-1.876497	0.000000	0.000000	-0.000000	-0.000000	3.235120	-0.076300	-0.778260	0.009827	0.977109	-0.093261	-1.000000	-1.000000	-1.000000	-1.000000	-1.000000	-1.000000	-1.000000	146.620690	0.000000	-1.000000	-1.000000	239471.000000	1772311136.983846
-16931.520000	-12701.205000	-17934.345000	-12985.245000	0.000000	0.000000	0.000000	0.000000	-3.674358	5.836072	1.327965	0.142370	0.000000	0.000000	-0.000000	-0.000000	3.235120	-0.076300	-0.778260	0.009827	0.977109	-0.093261	-1.000000	-1.000000	-1.000000	-1.000000	-1.000000	-1.000000	-1.000000	146.620690	0.000000	-1.000000	-1.000000	239472.000000	1772311136.983850
-16895.025000	-12727.710000	-17901.720000	-12938.400000	0.000000	0.000000	0.000000	0.000000	-9.156459	8.832537	-2.825630	-0.036882	0.000000	0.000000	-0.000000	-0.000000	3.235120	-0.076300	-0.778260	0.009827	0.977109	-0.093261	-1.000000	-1.000000	-1.000000	-1.000000	-1.000000	-1.000000	-1.000000	146.620690	0.000000	-1.000000	-1.000000	239473.000000	1772311136.987849
-16877.880000	-12716.235000	-17880.795000	-12908.025000	0.000000	0.000000	0.000000	0.000000	-11.253804	2.331503	-7.152091	-0.108096	0.000000	0.000000	-0.000000	-0.000000	3.235120	-0.076300	-0.778260	0.009827	0.977109	-0.093261	-1.000000	-1.000000	-1.000000	-1.000000	-1.000000	-1.000000	-1.000000	146.620690	0.000000	-1.000000	-1.000000	239474.000000	1772311136.987851
-16913.970000	-12705.570000	-17917.065000	-12947.670000	0.000000	0.000000	0.000000	0.000000	-6.181180	-4.663491	-6.057232	3.665562	0.000000	0.000000	-0.000000	-0.000000	3.021480	-0.076300	-0.793520	0.009949	0.976926	-0.094299	-1.000000	-1.000000	-1.000000	-1.000000	-1.000000	-1.000000	-1.000000	146.620690	0.000000	-1.000000	-1.000000	239475.000000	1772311136.993379
-16902.720000	-12670.515000	-17913.330000	-12957.705000	0.000000	0.000000	0.000000	0.000000	1.831680	-3.308459	-1.295819	7.022310	0.000000	0.000000	-0.000000	-0.000000	3.021480	-0.076300	-0.793520	0.009949	0.976926	-0.094299	-1.000000	-1.000000	-1.000000	-1.000000	-1.000000	-1.000000	-1.000000	146.620690	0.000000	-1.000000	-1.000000	239476.000000	1772311136.993382
-16882.020000	-12667.185000	-17896.635000	-12942.045000	0.000000	0.000000	0.000000	0.000000	7.209285	6.644378	2.496370	4.612054	0.000000	0.000000	-0.000000	-0.000000	3.021480	-0.076300	-0.793520	0.009949	0.976926	-0.094299	-1.000000	-1.000000	-1.000000	-1.000000	-1.000000	-1.000000	-1.000000	146.620690	0.000000	-1.000000	-1.000000	239477.000000	1772311136.995854
-16903.035000	-12700.215000	-17898.930000	-12924.225000	0.000000	0.000000	0.000000	0.000000	9.116584	16.608892	4.701309	-0.836314	0.000000	0.000000	-0.000000	-0.000000	3.021480	-0.076300	-0.793520	0.009949	0.976926	-0.094299	-1.000000	-1.000000	-1.000000	-1.000000	-1.000000	-1.000000	-1.000000	146.620690	0.000000	-1.000000	-1.000000	239478.000000	1772311136.995857
-16908.615000	-12744.630000	-17894.565000	-12923.325000	0.000000	0.000000	0.000000	0.000000	7.599971	15.934618	5.967135	-3.468488	0.000000	0.000000	-0.000000	-0.000000	3.021480	-0.076300	-0.793520	0.009949	0.976926	-0.094299	-1.000000	-1.000000	-1.000000	-1.000000	-1.000000	-1.000000	-1.000000	146.620690	0.000000	-1.000000	-1.000000	239479.000000	1772311136.999938
-16896.870000	-12775.545000	-17885.655000	-12919.860000	0.000000	0.000000	0.000000	0.000000	2.973567	1.784386	5.835309	-2.146113	0.000000	0.000000	-0.000000	-0.000000	3.021480	-0.076300	-0.793520	0.009949	0.976926	-0.094299	-1.000000	-1.000000	-1.000000	-1.000000	-1.000000	-1.000000	-1.000000	146.620690	0.000000	-1.000000	-1.000000	239480.000000	1772311136.999941
-16899.930000	-12788.055000	-17895.195000	-12931.650000	0.000000	0.000000	0.000000	0.000000	-1.863688	-17.148313	3.988958	-0.113697	0.000000	0.000000	-0.000000	-0.000000	3.021480	-0.076300	-0.793520	0.009949	0.976926	-0.094299	-1.000000	-1.000000	-1.000000	-1.000000	-1.000000	-1.000000	-1.000000	146.620690	0.000000	-1.000000	-1.000000	239481.000000	1772311137.003941
-16902.045000	-12752.190000	-17900.820000	-12940.470000	0.000000	0.000000	0.000000	0.000000	-4.200360	-26.918789	0.422556	-0.565364	0.000000	0.000000	-0.000000	-0.000000	3.021480	-0.076300	-0.793520	0.009949	0.976926	-0.094299	-1.000000	-1.000000	-1.000000	-1.000000	-1.000000	-1.000000	-1.000000	146.620690	0.000000	-1.000000	-1.000000	239482.000000	1772311137.003944
-16889.940000	-12728.205000	-17894.520000	-12937.365000	0.000000	0.000000	0.000000	0.000000	-3.830087	-18.756945	-3.993597	-3.572755	0.000000	0.000000	-0.000000	-0.000000	3.021480	-0.076300	-0.793520	0.009949	0.976926	-0.094299	-1.000000	-1.000000	-1.000000	-1.000000	-1.000000	-1.000000	-1.000000	146.620690	0.000000	-1.000000	-1.000000	239483.000000	1772311137.008084
-16881.435000	-12709.530000	-17885.160000	-12925.080000	0.000000	0.000000	0.000000	0.000000	-1.523263	3.578892	-6.781407	-5.964588	0.000000	0.000000	-0.000000	-0.000000	3.021480	-0.076300	-0.793520	0.009949	0.976926	-0.094299	-1.000000	-1.000000	-1.000000	-1.000000	-1.000000	-1.000000	-1.000000	146.620690	0.000000	-1.000000	-1.000000	239484.000000	1772311137.008087
-16883.640000	-12682.665000	-17883.765000	-12918.960000	0.000000	0.000000	0.000000	0.000000	1.483182	26.387992	-5.930400	-4.549893	0.000000	0.000000	-0.000000	-0.000000	3.006220	0.030520	-1.052940	0.010376	0.977109	-0.094116	-1.000000	-1.000000	-1.000000	-1.000000	-1.000000	-1.000000	-1.000000	146.620690	0.000000	-1.000000	-1.000000	239485.000000	1772311137.011965
-16907.265000	-12683.385000	-17906.850000	-12941.280000	0.000000	0.000000	0.000000	0.000000	2.717636	36.538490	-2.717305	-0.059265	0.000000	0.000000	-0.000000	-0.000000	3.006220	0.030520	-1.052940	0.010376	0.977109	-0.094116	-1.000000	-1.000000	-1.000000	-1.000000	-1.000000	-1.000000	-1.000000	146.620690	0.000000	-1.000000	-1.000000	239486.000000	1772311137.011968
-16928.100000	-12681.000000	-17917.875000	-12959.685000	0.000000	0.000000	0.000000	0.000000	-0.148878	29.042606	-0.782947	3.032424	0.000000	0.000000	-0.000000	-0.000000	3.006220	0.030520	-1.052940	0.010376	0.977109	-0.094116	-1.000000	-1.000000	-1.000000	-1.000000	-1.000000	-1.000000	-1.000000	146.620690	0.000000	-1.000000	-1.000000	239487.000000	1772311137.015985
-16941.780000	-12659.265000	-17929.710000	-12969.090000	0.000000	0.000000	0.000000	0.000000	-6.293965	8.711325	-1.846619	1.655144	0.000000	0.000000	-0.000000	-0.000000	3.006220	0.030520	-1.052940	0.010376	0.977109	-0.094116	-1.000000	-1.000000	-1.000000	-1.000000	-1.000000	-1.000000	-1.000000	146.620690	0.000000	-1.000000	-1.000000	239488.000000	1772311137.015987
-16938.810000	-12642.795000	-17935.740000	-12970.395000	0.000000	0.000000	0.000000	0.000000	-11.144459	-12.980278	-3.917924	-2.188115	0.000000	0.000000	-0.000000	-0.000000	3.006220	0.030520	-1.052940	0.010376	0.977109	-0.094116	-1.000000	-1.000000	-1.000000	-1.000000	-1.000000	-1.000000	-1.000000	146.620690	0.000000	-1.000000	-1.000000	239489.000000	1772311137.021319
-16922.520000	-12635.145000	-17918.100000	-12952.755000	0.000000	0.000000	0.000000	0.000000	-9.675052	-25.861262	-3.568588	-3.673191	0.000000	0.000000	-0.000000	-0.000000	3.006220	0.030520	-1.052940	0.010376	0.977109	-0.094116	-1.000000	-1.000000	-1.000000	-1.000000	-1.000000	-1.000000	-1.000000	146.620690	0.000000	-1.000000	-1.000000	239490.000000	1772311137.021322
-16888.995000	-12670.920000	-17898.390000	-12936.915000	0.000000	0.000000	0.000000	0.000000	-0.340474	-27.917065	1.371605	0.240567	0.000000	0.000000	-0.000000	-0.000000	3.006220	0.030520	-1.052940	0.010376	0.977109	-0.094116	-1.000000	-1.000000	-1.000000	-1.000000	-1.000000	-1.000000	-1.000000	146.620690	0.000000	-1.000000	-1.000000	239491.000000	1772311137.025313
-16879.185000	-12708.945000	-17897.130000	-12935.700000	0.000000	0.000000	0.000000	0.000000	13.132309	-24.567813	9.455599	7.820707	0.000000	0.000000	-0.000000	-0.000000	3.006220	0.030520	-1.052940	0.010376	0.977109	-0.094116	-1.000000	-1.000000	-1.000000	-1.000000	-1.000000	-1.000000	-1.000000	146.620690	0.000000	-1.000000	-1.000000	239492.000000	1772311137.025317
-16878.420000	-12720.555000	-17887.905000	-12916.620000	0.000000	0.000000	0.000000	0.000000	22.904613	-20.950206	15.558858	13.789804	0.000000	0.000000	-0.000000	-0.000000	3.006220	0.030520	-1.052940	0.010376	0.977109	-0.094116	-1.000000	-1.000000	-1.000000	-1.000000	-1.000000	-1.000000	-1.000000	146.620690	0.000000	-1.000000	-1.000000	239493.000000	1772311137.028094
-16878.645000	-12734.460000	-17887.680000	-12918.645000	0.000000	0.000000	0.000000	0.000000	22.096194	-16.246055	15.129793	14.004455	0.000000	0.000000	-0.000000	-0.000000	3.006220	0.030520	-1.052940	0.010376	0.977109	-0.094116	-1.000000	-1.000000	-1.000000	-1.000000	-1.000000	-1.000000	-1.000000	146.620690	0.000000	-1.000000	-1.000000	239494.000000	1772311137.028096
-16888.500000	-12749.040000	-17888.535000	-12926.430000	0.000000	0.000000	0.000000	0.000000	10.221185	-7.280904	7.852492	7.778197	0.000000	0.000000	-0.000000	-0.000000	2.838360	-0.076300	-1.205540	0.010376	0.976804	-0.093567	-1.000000	-1.000000	-1.000000	-1.000000	-1.000000	-1.000000	-1.000000	146.620690	0.000000	-1.000000	-1.000000	239495.000000	1772311137.032050
-16886.295000	-12768.165000	-17887.095000	-12931.380000	0.000000	0.000000	0.000000	0.000000	-6.616106	5.347080	-2.768985	-2.699408	0.000000	0.000000	-0.000000	-0.000000	2.838360	-0.076300	-1.205540	0.010376	0.976804	-0.093567	-1.000000	-1.000000	-1.000000	-1.000000	-1.000000	-1.000000	-1.000000	146.620690	0.000000	-1.000000	-1.000000	239496.000000	1772311137.032053
-16879.185000	-12826.530000	-17880.120000	-12919.365000	0.000000	0.000000	0.000000	0.000000	-19.826214	16.349973	-11.727484	-12.732425	0.000000	0.000000	-0.000000	-0.000000	2.838360	-0.076300	-1.205540	0.010376	0.976804	-0.093567	-1.000000	-1.000000	-1.000000	-1.000000	-1.000000	-1.000000	-1.000000	146.620690	0.000000	-1.000000	-1.000000	239497.000000	1772311137.035776
-16878.240000	-12863.070000	-17878.455000	-12910.635000	0.000000	0.000000	0.000000	0.000000	-23.417425	19.663047	-15.239229	-16.997061	0.000000	0.000000	-0.000000	-0.000000	2.838360	-0.076300	-1.205540	0.010376	0.976804	-0.093567	-1.000000	-1.000000	-1.000000	-1.000000	-1.000000	-1.000000	-1.000000	146.620690	0.000000	-1.000000	-1.000000	239498.000000	1772311137.035779
-16893.990000	-12895.965000	-17898.615000	-12936.330000	0.000000	0.000000	0.000000	0.000000	-17.657494	14.355043	-13.192665	-14.008042	0.000000	0.000000	-0.000000	-0.000000	2.838360	-0.076300	-1.205540	0.010376	0.976804	-0.093567	-1.000000	-1.000000	-1.000000	-1.000000	-1.000000	-1.000000	-1.000000	146.620690	0.000000	-1.000000	-1.000000	239499.000000	1772311137.039932
-16893.855000	-12908.295000	-17898.255000	-12936.375000	0.000000	0.000000	0.000000	0.000000	-7.830750	6.122657	-8.653492	-7.582201	0.000000	0.000000	-0.000000	-0.000000	2.838360	-0.076300	-1.205540	0.010376	0.976804	-0.093567	-1.000000	-1.000000	-1.000000	-1.000000	-1.000000	-1.000000	-1.000000	146.620690	0.000000	-1.000000	-1.000000	239500.000000	1772311137.039935
-16864.290000	-12934.665000	-17867.115000	-12900.780000	0.000000	0.000000	0.000000	0.000000	1.545053	1.691139	-3.528358	-1.242272	0.000000	0.000000	-0.000000	-0.000000	2.838360	-0.076300	-1.205540	0.010376	0.976804	-0.093567	-1.000000	-1.000000	-1.000000	-1.000000	-1.000000	-1.000000	-1.000000	146.620690	0.000000	-1.000000	-1.000000	239501.000000	1772311137.044302
-16850.250000	-12949.830000	-17850.690000	-12881.565000	0.000000	0.000000	0.000000	0.000000	9.611815	2.991518	3.138165	5.547858	0.000000	0.000000	-0.000000	-0.000000	2.838360	-0.076300	-1.205540	0.010376	0.976804	-0.093567	-1.000000	-1.000000	-1.000000	-1.000000	-1.000000	-1.000000	-1.000000	146.620690	0.000000	-1.000000	-1.000000	239502.000000	1772311137.044305
-16841.790000	-12971.790000	-17842.050000	-12880.035000	0.000000	0.000000	0.000000	0.000000	15.741559	7.051570	10.846145	12.616699	0.000000	0.000000	-0.000000	-0.000000	2.838360	-0.076300	-1.205540	0.010376	0.976804	-0.093567	-1.000000	-1.000000	-1.000000	-1.000000	-1.000000	-1.000000	-1.000000	146.620690	0.000000	-1.000000	-1.000000	239503.000000	1772311137.047988
-16865.325000	-13010.715000	-17860.410000	-12898.080000	0.000000	0.000000	0.000000	0.000000	16.815260	9.323066	15.129124	15.549550	0.000000	0.000000	-0.000000	-0.000000	2.838360	-0.076300	-1.205540	0.010376	0.976804	-0.093567	-1.000000	-1.000000	-1.000000	-1.000000	-1.000000	-1.000000	-1.000000	146.620690	0.000000	-1.000000	-1.000000	239504.000000	1772311137.047992
-16877.070000	-13050.225000	-17872.065000	-12911.535000	0.000000	0.000000	0.000000	0.000000	10.023741	6.529263	11.476045	10.148714	0.000000	0.000000	-0.000000	-0.000000	2.807840	-0.030520	-0.946120	0.009216	0.977659	-0.093078	-1.000000	-1.000000	-1.000000	-1.000000	-1.000000	-1.000000	-1.000000	146.620690	0.000000	-1.000000	-1.000000	239505.000000	1772311137.052172
-16885.440000	-13054.725000	-17883.090000	-12922.920000	0.000000	0.000000	0.000000	0.000000	-2.591722	-0.515917	0.587517	-1.985234	0.000000	0.000000	-0.000000	-0.000000	2.807840	-0.030520	-0.946120	0.009216	0.977659	-0.093078	-1.000000	-1.000000	-1.000000	-1.000000	-1.000000	-1.000000	-1.000000	146.620690	0.000000	-1.000000	-1.000000	239506.000000	1772311137.052175
-16885.395000	-13030.335000	-17889.840000	-12930.930000	0.000000	0.000000	0.000000	0.000000	-14.099867	-5.866992	-11.337407	-13.980760	0.000000	0.000000	-0.000000	-0.000000	2.807840	-0.030520	-0.946120	0.009216	0.977659	-0.093078	-1.000000	-1.000000	-1.000000	-1.000000	-1.000000	-1.000000	-1.000000	146.620690	0.000000	-1.000000	-1.000000	239507.000000	1772311137.056033
-16878.285000	-12991.545000	-17880.075000	-12920.445000	0.000000	0.000000	0.000000	0.000000	-17.815653	-3.022830	-17.214768	-18.809595	0.000000	0.000000	-0.000000	-0.000000	2.807840	-0.030520	-0.946120	0.009216	0.977659	-0.093078	-1.000000	-1.000000	-1.000000	-1.000000	-1.000000	-1.000000	-1.000000	146.620690	0.000000	-1.000000	-1.000000	239508.000000	1772311137.056036
-16883.190000	-12971.970000	-17886.375000	-12918.240000	0.000000	0.000000	0.000000	0.000000	-12.187799	7.995803	-13.873478	-13.711681	0.000000	0.000000	-0.000000	-0.000000	2.807840	-0.030520	-0.946120	0.009216	0.977659	-0.093078	-1.000000	-1.000000	-1.000000	-1.000000	-1.000000	-1.000000	-1.000000	146.620690	0.000000	-1.000000	-1.000000	239509.000000	1772311137.060062
-16892.325000	-12969.405000	-17896.860000	-12928.230000	0.000000	0.000000	0.000000	0.000000	-1.607611	18.931870	-4.169169	-2.003836	0.000000	0.000000	-0.000000	-0.000000	2.807840	-0.030520	-0.946120	0.009216	0.977659	-0.093078	-1.000000	-1.000000	-1.000000	-1.000000	-1.000000	-1.000000	-1.000000	146.620690	0.000000	-1.000000	-1.000000	239510.000000	1772311137.060066
-16889.715000	-13000.500000	-17893.080000	-12930.660000	0.000000	0.000000	0.000000	0.000000	7.448760	19.316568	5.668990	9.123924	0.000000	0.000000	-0.000000	-0.000000	2.807840	-0.030520	-0.946120	0.009216	0.977659	-0.093078	-1.000000	-1.000000	-1.000000	-1.000000	-1.000000	-1.000000	-1.000000	146.620690	0.000000	-1.000000	-1.000000	239511.000000	1772311137.067419
-16884.945000	-13019.265000	-17889.255000	-12933.270000	0.000000	0.000000	0.000000	0.000000	11.509172	5.025197	11.423113	14.183876	0.000000	0.000000	-0.000000	-0.000000	2.807840	-0.030520	-0.946120	0.009216	0.977659	-0.093078	-1.000000	-1.000000	-1.000000	-1.000000	-1.000000	-1.000000	-1.000000	146.620690	0.000000	-1.000000	-1.000000	239512.000000	1772311137.067422
-16888.050000	-12997.530000	-17892.270000	-12936.105000	0.000000	0.000000	0.000000	0.000000	10.968984	-16.828703	12.497892	12.554858	0.000000	0.000000	-0.000000	-0.000000	2.807840	-0.030520	-0.946120	0.009216	0.977659	-0.093078	-1.000000	-1.000000	-1.000000	-1.000000	-1.000000	-1.000000	-1.000000	146.620690	0.000000	-1.000000	-1.000000	239513.000000	1772311137.071642
-16875.720000	-12999.105000	-17881.515000	-12924.495000	0.000000	0.000000	0.000000	0.000000	7.760173	-32.253954	10.068442	7.237383	0.000000	0.000000	-0.000000	-0.000000	2.807840	-0.030520	-0.946120	0.009216	0.977659	-0.093078	-1.000000	-1.000000	-1.000000	-1.000000	-1.000000	-1.000000	-1.000000	146.620690	0.000000	-1.000000	-1.000000	239514.000000	1772311137.071645
-16870.140000	-13008.330000	-17870.715000	-12910.725000	0.000000	0.000000	0.000000	0.000000	3.978571	-32.575010	6.111178	2.307863	0.000000	0.000000	-0.000000	-0.000000	3.006220	0.061040	-0.534100	0.009338	0.977598	-0.093384	-1.000000	-1.000000	-1.000000	-1.000000	-1.000000	-1.000000	-1.000000	146.620690	0.000000	-1.000000	-1.000000	239515.000000	1772311137.072115
-16879.680000	-12995.460000	-17881.605000	-12920.850000	0.000000	0.000000	0.000000	0.000000	0.753231	-20.254781	2.229758	-0.073147	0.000000	0.000000	-0.000000	-0.000000	3.006220	0.061040	-0.534100	0.009338	0.977598	-0.093384	-1.000000	-1.000000	-1.000000	-1.000000	-1.000000	-1.000000	-1.000000	146.620690	0.000000	-1.000000	-1.000000	239516.000000	1772311137.072118
-16886.385000	-13018.005000	-17888.310000	-12925.755000	0.000000	0.000000	0.000000	0.000000	-2.466724	-3.659529	-1.741596	-1.257106	0.000000	0.000000	-0.000000	-0.000000	3.006220	0.061040	-0.534100	0.009338	0.977598	-0.093384	-1.000000	-1.000000	-1.000000	-1.000000	-1.000000	-1.000000	-1.000000	146.620690	0.000000	-1.000000	-1.000000	239517.000000	1772311137.076093
-16877.520000	-13054.995000	-17882.370000	-12921.120000	0.000000	0.000000	0.000000	0.000000	-5.861017	8.471418	-6.017626	-3.260027	0.000000	0.000000	-0.000000	-0.000000	3.006220	0.061040	-0.534100	0.009338	0.977598	-0.093384	-1.000000	-1.000000	-1.000000	-1.000000	-1.000000	-1.000000	-1.000000	146.620690	0.000000	-1.000000	-1.000000	239518.000000	1772311137.076096
-16867.305000	-13057.065000	-17869.905000	-12908.115000	0.000000	0.000000	0.000000	0.000000	-7.527403	11.237966	-8.658714	-5.331822	0.000000	0.000000	-0.000000	-0.000000	3.006220	0.061040	-0.534100	0.009338	0.977598	-0.093384	-1.000000	-1.000000	-1.000000	-1.000000	-1.000000	-1.000000	-1.000000	146.620690	0.000000	-1.000000	-1.000000	239519.000000	1772311137.080088
-16869.915000	-13044.555000	-17867.790000	-12908.790000	0.000000	0.000000	0.000000	0.000000	-5.800174	7.622218	-7.483708	-5.340189	0.000000	0.000000	-0.000000	-0.000000	3.006220	0.061040	-0.534100	0.009338	0.977598	-0.093384	-1.000000	-1.000000	-1.000000	-1.000000	-1.000000	-1.000000	-1.000000	146.620690	0.000000	-1.000000	-1.000000	239520.000000	1772311137.080091
-16878.420000	-13073.625000	-17875.485000	-12916.710000	0.000000	0.000000	0.000000	0.000000	-2.075498	4.435091	-3.355388	-3.312817	0.000000	0.000000	-0.000000	-0.000000	3.006220	0.061040	-0.534100	0.009338	0.977598	-0.093384	-1.000000	-1.000000	-1.000000	-1.000000	-1.000000	-1.000000	-1.000000	146.620690	0.000000	-1.000000	-1.000000	239521.000000	1772311137.084147
-16909.335000	-13099.680000	-17910.270000	-12951.720000	0.000000	0.000000	0.000000	0.000000	0.077476	3.668650	-0.184991	-2.017559	0.000000	0.000000	-0.000000	-0.000000	3.006220	0.061040	-0.534100	0.009338	0.977598	-0.093384	-1.000000	-1.000000	-1.000000	-1.000000	-1.000000	-1.000000	-1.000000	146.620690	0.000000	-1.000000	-1.000000	239522.000000	1772311137.084151
-16904.655000	-13106.970000	-17909.415000	-12946.770000	0.000000	0.000000	0.000000	0.000000	-1.311064	2.859795	-1.033684	-3.568589	0.000000	0.000000	-0.000000	-0.000000	3.006220	0.061040	-0.534100	0.009338	0.977598	-0.093384	-1.000000	-1.000000	-1.000000	-1.000000	-1.000000	-1.000000	-1.000000	146.620690	0.000000	-1.000000	-1.000000	239523.000000	1772311137.088038
-16871.265000	-13120.065000	-17870.265000	-12905.145000	0.000000	0.000000	0.000000	0.000000	-3.267018	1.268890	-3.382403	-5.116637	0.000000	0.000000	-0.000000	-0.000000	3.006220	0.061040	-0.534100	0.009338	0.977598	-0.093384	-1.000000	-1.000000	-1.000000	-1.000000	-1.000000	-1.000000	-1.000000	146.620690	0.000000	-1.000000	-1.000000	239524.000000	1772311137.088042
-16870.815000	-13137.750000	-17865.675000	-12900.330000	0.000000	0.000000	0.000000	0.000000	-0.757051	0.262837	-1.317086	-1.315370	0.000000	0.000000	-0.000000	-0.000000	3.311420	0.228900	-0.625660	0.008728	0.978025	-0.095215	-1.000000	-1.000000	-1.000000	-1.000000	-1.000000	-1.000000	-1.000000	146.620690	0.000000	-1.000000	-1.000000	239525.000000	1772311137.092093
-16868.970000	-13151.790000	-17872.830000	-12922.380000	0.000000	0.000000	0.000000	0.000000	5.942742	0.324514	5.660907	6.880680	0.000000	0.000000	-0.000000	-0.000000	3.311420	0.228900	-0.625660	0.008728	0.978025	-0.095215	-1.000000	-1.000000	-1.000000	-1.000000	-1.000000	-1.000000	-1.000000	146.620690	0.000000	-1.000000	-1.000000	239526.000000	1772311137.092096
-16888.365000	-13182.255000	-17899.875000	-12954.465000	0.000000	0.000000	0.000000	0.000000	10.766424	0.593246	10.753600	11.261354	0.000000	0.000000	-0.000000	-0.000000	3.311420	0.228900	-0.625660	0.008728	0.978025	-0.095215	-1.000000	-1.000000	-1.000000	-1.000000	-1.000000	-1.000000	-1.000000	146.620690	0.000000	-1.000000	-1.000000	239527.000000	1772311137.096181
-16892.730000	-13195.845000	-17897.265000	-12939.615000	0.000000	0.000000	0.000000	0.000000	8.759026	0.080371	8.219168	6.703497	0.000000	0.000000	-0.000000	-0.000000	3.311420	0.228900	-0.625660	0.008728	0.978025	-0.095215	-1.000000	-1.000000	-1.000000	-1.000000	-1.000000	-1.000000	-1.000000	146.620690	0.000000	-1.000000	-1.000000	239528.000000	1772311137.096185
-16877.610000	-13191.345000	-17873.820000	-12904.335000	0.000000	0.000000	0.000000	0.000000	1.297008	-0.559944	0.427983	-1.620719	0.000000	0.000000	-0.000000	-0.000000	3.311420	0.228900	-0.625660	0.008728	0.978025	-0.095215	-1.000000	-1.000000	-1.000000	-1.000000	-1.000000	-1.000000	-1.000000	146.620690	0.000000	-1.000000	-1.000000	239529.000000	1772311137.100253
-16857.855000	-13171.860000	-17856.315000	-12897.045000	0.000000	0.000000	0.000000	0.000000	-5.176959	1.180657	-4.906977	-4.614092	0.000000	0.000000	-0.000000	-0.000000	3.311420	0.228900	-0.625660	0.008728	0.978025	-0.095215	-1.000000	-1.000000	-1.000000	-1.000000	-1.000000	-1.000000	-1.000000	146.620690	0.000000	-1.000000	-1.000000	239530.000000	1772311137.100256
-16852.095000	-13171.905000	-17852.625000	-12887.865000	0.000000	0.000000	0.000000	0.000000	-5.736309	6.325234	-3.619611	-0.313525	0.000000	0.000000	-0.000000	-0.000000	3.311420	0.228900	-0.625660	0.008728	0.978025	-0.095215	-1.000000	-1.000000	-1.000000	-1.000000	-1.000000	-1.000000	-1.000000	146.620690	0.000000	-1.000000	-1.000000	239531.000000	1772311137.108095
-16862.580000	-13184.055000	-17861.805000	-12891.555000	0.000000	0.000000	0.000000	0.000000	-1.815844	11.428537	1.025148	5.377764	0.000000	0.000000	-0.000000	-0.000000	3.311420	0.228900	-0.625660	0.008728	0.978025	-0.095215	-1.000000	-1.000000	-1.000000	-1.000000	-1.000000	-1.000000	-1.000000	146.620690	0.000000	-1.000000	-1.000000	239532.000000	1772311137.108098
-16883.595000	-13178.790000	-17884.755000	-12910.905000	0.000000	0.000000	0.000000	0.000000	0.905584	11.427157	2.721480	5.979953	0.000000	0.000000	-0.000000	-0.000000	3.311420	0.228900	-0.625660	0.008728	0.978025	-0.095215	-1.000000	-1.000000	-1.000000	-1.000000	-1.000000	-1.000000	-1.000000	146.620690	0.000000	-1.000000	-1.000000	239533.000000	1772311137.108103
-16872.435000	-13178.250000	-17875.710000	-12911.895000	0.000000	0.000000	0.000000	0.000000	-0.942872	5.355315	-1.139143	-0.162063	0.000000	0.000000	-0.000000	-0.000000	3.311420	0.228900	-0.625660	0.008728	0.978025	-0.095215	-1.000000	-1.000000	-1.000000	-1.000000	-1.000000	-1.000000	-1.000000	146.620690	0.000000	-1.000000	-1.000000	239534.000000	1772311137.108105
-16860.645000	-13192.965000	-17862.255000	-12898.845000	0.000000	0.000000	0.000000	0.000000	-4.610742	-3.396355	-6.643869	-8.587476	0.000000	0.000000	-0.000000	-0.000000	3.189340	0.076300	-0.671440	0.009094	0.978025	-0.095154	-1.000000	-1.000000	-1.000000	-1.000000	-1.000000	-1.000000	-1.000000	146.620690	0.000000	-1.000000	-1.000000	239535.000000	1772311137.112238
-16876.080000	-13197.600000	-17872.290000	-12898.530000	0.000000	0.000000	0.000000	0.000000	-5.465092	-11.080225	-8.115477	-12.561745	0.000000	0.000000	-0.000000	-0.000000	3.189340	0.076300	-0.671440	0.009094	0.978025	-0.095154	-1.000000	-1.000000	-1.000000	-1.000000	-1.000000	-1.000000	-1.000000	146.620690	0.000000	-1.000000	-1.000000	239536.000000	1772311137.112240
-16877.430000	-13223.655000	-17871.300000	-12900.645000	0.000000	0.000000	0.000000	0.000000	-3.070942	-15.528408	-4.682298	-9.537750	0.000000	0.000000	-0.000000	-0.000000	3.189340	0.076300	-0.671440	0.009094	0.978025	-0.095154	-1.000000	-1.000000	-1.000000	-1.000000	-1.000000	-1.000000	-1.000000	146.620690	0.000000	-1.000000	-1.000000	239537.000000	1772311137.116179
-16877.475000	-13229.190000	-17876.430000	-12918.915000	0.000000	0.000000	0.000000	0.000000	0.022878	-16.037789	0.305817	-2.886040	0.000000	0.000000	-0.000000	-0.000000	3.189340	0.076300	-0.671440	0.009094	0.978025	-0.095154	-1.000000	-1.000000	-1.000000	-1.000000	-1.000000	-1.000000	-1.000000	146.620690	0.000000	-1.000000	-1.000000	239538.000000	1772311137.116182
-16870.500000	-13240.980000	-17870.490000	-12920.040000	0.000000	0.000000	0.000000	0.000000	2.439619	-12.631587	3.870848	2.329281	0.000000	0.000000	-0.000000	-0.000000	3.189340	0.076300	-0.671440	0.009094	0.978025	-0.095154	-1.000000	-1.000000	-1.000000	-1.000000	-1.000000	-1.000000	-1.000000	146.620690	0.000000	-1.000000	-1.000000	239539.000000	1772311137.120171
-16871.220000	-13232.655000	-17869.365000	-12912.480000	0.000000	0.000000	0.000000	0.000000	4.204633	-5.667024	5.284281	4.281007	0.000000	0.000000	-0.000000	-0.000000	3.189340	0.076300	-0.671440	0.009094	0.978025	-0.095154	-1.000000	-1.000000	-1.000000	-1.000000	-1.000000	-1.000000	-1.000000	146.620690	0.000000	-1.000000	-1.000000	239540.000000	1772311137.120174
-16864.335000	-13222.305000	-17864.190000	-12911.130000	0.000000	0.000000	0.000000	0.000000	5.225691	3.709578	5.176072	4.737127	0.000000	0.000000	-0.000000	-0.000000	3.189340	0.076300	-0.671440	0.009094	0.978025	-0.095154	-1.000000	-1.000000	-1.000000	-1.000000	-1.000000	-1.000000	-1.000000	146.620690	0.000000	-1.000000	-1.000000	239541.000000	1772311137.124269
-16856.055000	-13215.330000	-17860.905000	-12915.180000	0.000000	0.000000	0.000000	0.000000	5.255470	13.042445	4.251771	5.267959	0.000000	0.000000	-0.000000	-0.000000	3.189340	0.076300	-0.671440	0.009094	0.978025	-0.095154	-1.000000	-1.000000	-1.000000	-1.000000	-1.000000	-1.000000	-1.000000	146.620690	0.000000	-1.000000	-1.000000	239542.000000	1772311137.124271
-16870.995000	-13226.220000	-17875.395000	-12929.175000	0.000000	0.000000	0.000000	0.000000	4.017001	18.494241	2.548910	5.110696	0.000000	0.000000	-0.000000	-0.000000	3.189340	0.076300	-0.671440	0.009094	0.978025	-0.095154	-1.000000	-1.000000	-1.000000	-1.000000	-1.000000	-1.000000	-1.000000	146.620690	0.000000	-1.000000	-1.000000	239543.000000	1772311137.128344
-16868.610000	-13262.715000	-17875.530000	-12924.765000	0.000000	0.000000	0.000000	0.000000	1.035348	16.153888	-0.336626	3.084928	0.000000	0.000000	-0.000000	-0.000000	3.189340	0.076300	-0.671440	0.009094	0.978025	-0.095154	-1.000000	-1.000000	-1.000000	-1.000000	-1.000000	-1.000000	-1.000000	146.620690	0.000000	-1.000000	-1.000000	239544.000000	1772311137.128347
-16876.755000	-13266.540000	-17877.015000	-12916.170000	0.000000	0.000000	0.000000	0.000000	-3.135367	5.483088	-3.712632	0.211430	0.000000	0.000000	-0.000000	-0.000000	2.334780	0.122080	-0.778260	0.008301	0.978025	-0.096008	-1.000000	-1.000000	-1.000000	-1.000000	-1.000000	-1.000000	-1.000000	146.620690	0.000000	-1.000000	-1.000000	239545.000000	1772311137.132156
-16895.520000	-13270.590000	-17878.005000	-12910.995000	0.000000	0.000000	0.000000	0.000000	-6.841392	-7.907013	-5.634548	-1.101599	0.000000	0.000000	-0.000000	-0.000000	2.334780	0.122080	-0.778260	0.008301	0.978025	-0.096008	-1.000000	-1.000000	-1.000000	-1.000000	-1.000000	-1.000000	-1.000000	146.620690	0.000000	-1.000000	-1.000000	239546.000000	1772311137.132159
-16885.980000	-13287.690000	-17870.625000	-12898.755000	0.000000	0.000000	0.000000	0.000000	-8.601755	-16.059649	-4.778327	0.030529	0.000000	0.000000	-0.000000	-0.000000	2.334780	0.122080	-0.778260	0.008301	0.978025	-0.096008	-1.000000	-1.000000	-1.000000	-1.000000	-1.000000	-1.000000	-1.000000	146.620690	0.000000	-1.000000	-1.000000	239547.000000	1772311137.137667
-16845.120000	-13295.385000	-17853.885000	-12886.515000	0.000000	0.000000	0.000000	0.000000	-6.308628	-15.640092	-1.175766	2.445194	0.000000	0.000000	-0.000000	-0.000000	2.334780	0.122080	-0.778260	0.008301	0.978025	-0.096008	-1.000000	-1.000000	-1.000000	-1.000000	-1.000000	-1.000000	-1.000000	146.620690	0.000000	-1.000000	-1.000000	239548.000000	1772311137.137670
-16841.925000	-13296.645000	-17859.105000	-12896.145000	0.000000	0.000000	0.000000	0.000000	1.415260	-8.728216	3.718489	3.984721	0.000000	0.000000	-0.000000	-0.000000	2.334780	0.122080	-0.778260	0.008301	0.978025	-0.096008	-1.000000	-1.000000	-1.000000	-1.000000	-1.000000	-1.000000	-1.000000	146.620690	0.000000	-1.000000	-1.000000	239549.000000	1772311137.142067
-16869.645000	-13307.895000	-17885.250000	-12920.670000	0.000000	0.000000	0.000000	0.000000	10.303503	0.548542	6.467831	2.085052	0.000000	0.000000	-0.000000	-0.000000	2.334780	0.122080	-0.778260	0.008301	0.978025	-0.096008	-1.000000	-1.000000	-1.000000	-1.000000	-1.000000	-1.000000	-1.000000	146.620690	0.000000	-1.000000	-1.000000	239550.000000	1772311137.142070
-16850.745000	-13329.675000	-17865.765000	-12904.965000	0.000000	0.000000	0.000000	0.000000	12.838583	7.759052	4.334714	-3.695990	0.000000	0.000000	-0.000000	-0.000000	2.334780	0.122080	-0.778260	0.008301	0.978025	-0.096008	-1.000000	-1.000000	-1.000000	-1.000000	-1.000000	-1.000000	-1.000000	146.620690	0.000000	-1.000000	-1.000000	239551.000000	1772311137.144301
-16833.645000	-13375.620000	-17840.700000	-12881.700000	0.000000	0.000000	0.000000	0.000000	7.722584	9.140170	-0.113605	-8.921804	0.000000	0.000000	-0.000000	-0.000000	2.334780	0.122080	-0.778260	0.008301	0.978025	-0.096008	-1.000000	-1.000000	-1.000000	-1.000000	-1.000000	-1.000000	-1.000000	146.620690	0.000000	-1.000000	-1.000000	239552.000000	1772311137.144305
-16849.485000	-13395.510000	-17843.130000	-12885.480000	0.000000	0.000000	0.000000	0.000000	0.180001	3.873934	-1.765872	-8.345749	0.000000	0.000000	-0.000000	-0.000000	2.334780	0.122080	-0.778260	0.008301	0.978025	-0.096008	-1.000000	-1.000000	-1.000000	-1.000000	-1.000000	-1.000000	-1.000000	146.620690	0.000000	-1.000000	-1.000000	239553.000000	1772311137.150866
-16870.140000	-13394.160000	-17868.555000	-12910.815000	0.000000	0.000000	0.000000	0.000000	-6.269417	-3.630336	-0.559585	-3.081683	0.000000	0.000000	-0.000000	-0.000000	2.334780	0.122080	-0.778260	0.008301	0.978025	-0.096008	-1.000000	-1.000000	-1.000000	-1.000000	-1.000000	-1.000000	-1.000000	146.620690	0.000000	-1.000000	-1.000000	239554.000000	1772311137.150869
-16891.965000	-13402.080000	-17889.390000	-12928.230000	0.000000	0.000000	0.000000	0.000000	-11.602617	-6.426035	-1.171714	0.657104	0.000000	0.000000	-0.000000	-0.000000	2.289000	0.137340	-0.869820	0.008423	0.977231	-0.094909	-1.000000	-1.000000	-1.000000	-1.000000	-1.000000	-1.000000	-1.000000	146.620690	0.000000	-1.000000	-1.000000	239555.000000	1772311137.152267
-16884.855000	-13389.210000	-17884.800000	-12918.600000	0.000000	0.000000	0.000000	0.000000	-14.859326	-1.544780	-5.410858	-0.143496	0.000000	0.000000	-0.000000	-0.000000	2.289000	0.137340	-0.869820	0.008423	0.977231	-0.094909	-1.000000	-1.000000	-1.000000	-1.000000	-1.000000	-1.000000	-1.000000	146.620690	0.000000	-1.000000	-1.000000	239556.000000	1772311137.152270
-16862.850000	-13357.215000	-17866.305000	-12900.915000	0.000000	0.000000	0.000000	0.000000	-12.642609	8.469276	-8.865524	-1.848177	0.000000	0.000000	-0.000000	-0.000000	2.289000	0.137340	-0.869820	0.008423	0.977231	-0.094909	-1.000000	-1.000000	-1.000000	-1.000000	-1.000000	-1.000000	-1.000000	146.620690	0.000000	-1.000000	-1.000000	239557.000000	1772311137.156253
-16866.180000	-13357.845000	-17871.390000	-12908.340000	0.000000	0.000000	0.000000	0.000000	-3.289135	18.340310	-6.454811	0.059721	0.000000	0.000000	-0.000000	-0.000000	2.289000	0.137340	-0.869820	0.008423	0.977231	-0.094909	-1.000000	-1.000000	-1.000000	-1.000000	-1.000000	-1.000000	-1.000000	146.620690	0.000000	-1.000000	-1.000000	239558.000000	1772311137.156257
-16886.070000	-13366.530000	-17890.920000	-12926.340000	0.000000	0.000000	0.000000	0.000000	8.575267	21.681734	0.637187	4.460959	0.000000	0.000000	-0.000000	-0.000000	2.289000	0.137340	-0.869820	0.008423	0.977231	-0.094909	-1.000000	-1.000000	-1.000000	-1.000000	-1.000000	-1.000000	-1.000000	146.620690	0.000000	-1.000000	-1.000000	239559.000000	1772311137.160274
-16878.105000	-13384.980000	-17881.695000	-12918.510000	0.000000	0.000000	0.000000	0.000000	15.314742	14.195493	6.632542	6.756460	0.000000	0.000000	-0.000000	-0.000000	2.289000	0.137340	-0.869820	0.008423	0.977231	-0.094909	-1.000000	-1.000000	-1.000000	-1.000000	-1.000000	-1.000000	-1.000000	146.620690	0.000000	-1.000000	-1.000000	239560.000000	1772311137.160277
-16869.735000	-13415.940000	-17872.470000	-12911.535000	0.000000	0.000000	0.000000	0.000000	14.263441	-2.382345	8.532300	5.529849	0.000000	0.000000	-0.000000	-0.000000	2.289000	0.137340	-0.869820	0.008423	0.977231	-0.094909	-1.000000	-1.000000	-1.000000	-1.000000	-1.000000	-1.000000	-1.000000	146.620690	0.000000	-1.000000	-1.000000	239561.000000	1772311137.164410
-16867.305000	-13424.040000	-17868.780000	-12908.115000	0.000000	0.000000	0.000000	0.000000	8.780747	-20.589632	7.728663	3.149255	0.000000	0.000000	-0.000000	-0.000000	2.289000	0.137340	-0.869820	0.008423	0.977231	-0.094909	-1.000000	-1.000000	-1.000000	-1.000000	-1.000000	-1.000000	-1.000000	146.620690	0.000000	-1.000000	-1.000000	239562.000000	1772311137.164414
-16855.290000	-13406.040000	-17861.355000	-12904.875000	0.000000	0.000000	0.000000	0.000000	3.050226	-30.716452	6.009939	1.552570	0.000000	0.000000	-0.000000	-0.000000	2.289000	0.137340	-0.869820	0.008423	0.977231	-0.094909	-1.000000	-1.000000	-1.000000	-1.000000	-1.000000	-1.000000	-1.000000	146.620690	0.000000	-1.000000	-1.000000	239563.000000	1772311137.170852
-16877.655000	-13364.190000	-17883.540000	-12929.985000	0.000000	0.000000	0.000000	0.000000	-1.300955	-25.709164	3.354031	0.194720	0.000000	0.000000	-0.000000	-0.000000	2.289000	0.137340	-0.869820	0.008423	0.977231	-0.094909	-1.000000	-1.000000	-1.000000	-1.000000	-1.000000	-1.000000	-1.000000	146.620690	0.000000	-1.000000	-1.000000	239564.000000	1772311137.170855
-16889.310000	-13329.315000	-17895.015000	-12938.895000	0.000000	0.000000	0.000000	0.000000	-5.222184	-6.348234	-1.276845	-2.647064	0.000000	0.000000	-0.000000	-0.000000	2.105880	0.091560	-0.885080	0.008057	0.976743	-0.095520	-1.000000	-1.000000	-1.000000	-1.000000	-1.000000	-1.000000	-1.000000	146.620690	0.000000	-1.000000	-1.000000	239565.000000	1772311137.172359
-16882.740000	-13330.710000	-17884.395000	-12922.515000	0.000000	0.000000	0.000000	0.000000	-9.136869	17.099159	-7.019115	-6.352413	0.000000	0.000000	-0.000000	-0.000000	2.105880	0.091560	-0.885080	0.008057	0.976743	-0.095520	-1.000000	-1.000000	-1.000000	-1.000000	-1.000000	-1.000000	-1.000000	146.620690	0.000000	-1.000000	-1.000000	239566.000000	1772311137.172362
-16869.195000	-13332.735000	-17871.300000	-12907.260000	0.000000	0.000000	0.000000	0.000000	-10.461189	30.365952	-9.866408	-7.029668	0.000000	0.000000	-0.000000	-0.000000	2.105880	0.091560	-0.885080	0.008057	0.976743	-0.095520	-1.000000	-1.000000	-1.000000	-1.000000	-1.000000	-1.000000	-1.000000	146.620690	0.000000	-1.000000	-1.000000	239567.000000	1772311137.176608
-16882.605000	-13333.635000	-17886.465000	-12924.180000	0.000000	0.000000	0.000000	0.000000	-6.980222	25.688591	-7.154310	-2.762331	0.000000	0.000000	-0.000000	-0.000000	2.105880	0.091560	-0.885080	0.008057	0.976743	-0.095520	-1.000000	-1.000000	-1.000000	-1.000000	-1.000000	-1.000000	-1.000000	146.620690	0.000000	-1.000000	-1.000000	239568.000000	1772311137.176611
-16871.895000	-13363.785000	-17874.405000	-12923.595000	0.000000	0.000000	0.000000	0.000000	-0.601423	6.828514	-1.175679	2.896527	0.000000	0.000000	-0.000000	-0.000000	2.105880	0.091560	-0.885080	0.008057	0.976743	-0.095520	-1.000000	-1.000000	-1.000000	-1.000000	-1.000000	-1.000000	-1.000000	146.620690	0.000000	-1.000000	-1.000000	239569.000000	1772311137.180320
-16876.890000	-13368.780000	-17881.695000	-12936.240000	0.000000	0.000000	0.000000	0.000000	4.898438	-15.561329	3.960519	5.248979	0.000000	0.000000	-0.000000	-0.000000	2.105880	0.091560	-0.885080	0.008057	0.976743	-0.095520	-1.000000	-1.000000	-1.000000	-1.000000	-1.000000	-1.000000	-1.000000	146.620690	0.000000	-1.000000	-1.000000	239570.000000	1772311137.180323
-16868.115000	-13344.615000	-17872.020000	-12917.970000	0.000000	0.000000	0.000000	0.000000	7.361870	-29.867896	6.120971	3.613012	0.000000	0.000000	-0.000000	-0.000000	2.105880	0.091560	-0.885080	0.008057	0.976743	-0.095520	-1.000000	-1.000000	-1.000000	-1.000000	-1.000000	-1.000000	-1.000000	146.620690	0.000000	-1.000000	-1.000000	239571.000000	1772311137.184359
-16888.680000	-13340.970000	-17885.070000	-12902.940000	0.000000	0.000000	0.000000	0.000000	6.393517	-28.568319	5.234391	1.274857	0.000000	0.000000	-0.000000	-0.000000	2.105880	0.091560	-0.885080	0.008057	0.976743	-0.095520	-1.000000	-1.000000	-1.000000	-1.000000	-1.000000	-1.000000	-1.000000	146.620690	0.000000	-1.000000	-1.000000	239572.000000	1772311137.184362
-16886.880000	-13334.400000	-17886.555000	-12907.845000	0.000000	0.000000	0.000000	0.000000	2.531206	-13.512897	2.133642	1.128660	0.000000	0.000000	-0.000000	-0.000000	2.105880	0.091560	-0.885080	0.008057	0.976743	-0.095520	-1.000000	-1.000000	-1.000000	-1.000000	-1.000000	-1.000000	-1.000000	146.620690	0.000000	-1.000000	-1.000000	239573.000000	1772311137.189879
-16873.200000	-13360.095000	-17878.185000	-12917.655000	0.000000	0.000000	0.000000	0.000000	-2.014283	4.955080	-1.536643	1.979702	0.000000	0.000000	-0.000000	-0.000000	2.105880	0.091560	-0.885080	0.008057	0.976743	-0.095520	-1.000000	-1.000000	-1.000000	-1.000000	-1.000000	-1.000000	-1.000000	146.620690	0.000000	-1.000000	-1.000000	239574.000000	1772311137.189881
-16871.715000	-13356.675000	-17875.575000	-12913.740000	0.000000	0.000000	0.000000	0.000000	-3.921128	16.105140	-3.445802	0.940161	0.000000	0.000000	-0.000000	-0.000000	2.716280	0.183120	-0.518840	0.007874	0.977292	-0.094848	-1.000000	-1.000000	-1.000000	-1.000000	-1.000000	-1.000000	-1.000000	146.620690	0.000000	-1.000000	-1.000000	239575.000000	1772311137.195559
-16854.615000	-13350.465000	-17852.220000	-12887.280000	0.000000	0.000000	0.000000	0.000000	-1.958997	16.693563	-2.188205	-1.604765	0.000000	0.000000	-0.000000	-0.000000	2.716280	0.183120	-0.518840	0.007874	0.977292	-0.094848	-1.000000	-1.000000	-1.000000	-1.000000	-1.000000	-1.000000	-1.000000	146.620690	0.000000	-1.000000	-1.000000	239576.000000	1772311137.195562
-16867.035000	-13363.425000	-17861.265000	-12897.855000	0.000000	0.000000	0.000000	0.000000	1.783709	10.835651	1.359472	-2.739240	0.000000	0.000000	-0.000000	-0.000000	2.716280	0.183120	-0.518840	0.007874	0.977292	-0.094848	-1.000000	-1.000000	-1.000000	-1.000000	-1.000000	-1.000000	-1.000000	146.620690	0.000000	-1.000000	-1.000000	239577.000000	1772311137.199101
-16893.675000	-13335.030000	-17890.560000	-12930.255000	0.000000	0.000000	0.000000	0.000000	3.276642	4.168442	3.599042	-2.538975	0.000000	0.000000	-0.000000	-0.000000	2.716280	0.183120	-0.518840	0.007874	0.977292	-0.094848	-1.000000	-1.000000	-1.000000	-1.000000	-1.000000	-1.000000	-1.000000	146.620690	0.000000	-1.000000	-1.000000	239578.000000	1772311137.199104
-16893.675000	-13335.030000	-17890.560000	-12930.255000	0.000000	0.000000	0.000000	0.000000	-0.076196	0.543509	1.003222	-3.975102	0.000000	0.000000	-0.000000	-0.000000	2.716280	0.183120	-0.518840	0.007874	0.977292	-0.094848	-1.000000	-1.000000	-1.000000	-1.000000	-1.000000	-1.000000	-1.000000	146.620690	0.000000	-1.000000	-1.000000	239579.000000	1772311137.200918
-16893.675000	-13335.030000	-17890.560000	-12930.255000	0.000000	0.000000	0.000000	0.000000	-5.772245	0.383068	-4.853220	-6.787286	0.000000	0.000000	-0.000000	-0.000000	2.716280	0.183120	-0.518840	0.007874	0.977292	-0.094848	-1.000000	-1.000000	-1.000000	-1.000000	-1.000000	-1.000000	-1.000000	146.620690	0.000000	-1.000000	-1.000000	239580.000000	1772311137.200921
-16893.675000	-13335.030000	-17890.560000	-12930.255000	0.000000	0.000000	0.000000	0.000000	-8.466237	0.840464	-8.503783	-7.143184	0.000000	0.000000	-0.000000	-0.000000	2.716280	0.183120	-0.518840	0.007874	0.977292	-0.094848	-1.000000	-1.000000	-1.000000	-1.000000	-1.000000	-1.000000	-1.000000	146.620690	0.000000	-1.000000	-1.000000	239581.000000	1772311137.200923
-16880.580000	-13304.565000	-17888.490000	-12933.270000	0.000000	0.000000	0.000000	0.000000	-5.482477	0.085740	-6.715937	-3.153384	0.000000	0.000000	-0.000000	-0.000000	2.716280	0.183120	-0.518840	0.007874	0.977292	-0.094848	-1.000000	-1.000000	-1.000000	-1.000000	-1.000000	-1.000000	-1.000000	146.620690	0.000000	-1.000000	-1.000000	239583.000000	1772311137.208419
-16859.205000	-13321.260000	-17875.710000	-12935.385000	0.000000	0.000000	0.000000	0.000000	1.952537	-1.044749	-0.567227	3.115845	0.000000	0.000000	-0.000000	-0.000000	2.716280	0.183120	-0.518840	0.007874	0.977292	-0.094848	-1.000000	-1.000000	-1.000000	-1.000000	-1.000000	-1.000000	-1.000000	146.620690	0.000000	-1.000000	-1.000000	239584.000000	1772311137.208422
-16860.330000	-13370.805000	-17870.130000	-12923.640000	0.000000	0.000000	0.000000	0.000000	10.129146	-3.224696	6.653445	8.379182	0.000000	0.000000	-0.000000	-0.000000	3.036740	0.137340	-0.167860	0.008057	0.977109	-0.094421	-1.000000	-1.000000	-1.000000	-1.000000	-1.000000	-1.000000	-1.000000	146.620690	0.000000	-1.000000	-1.000000	239585.000000	1772311137.212559
-16860.465000	-13396.005000	-17853.840000	-12894.930000	0.000000	0.000000	0.000000	0.000000	14.177803	-8.977784	11.631820	11.323471	0.000000	0.000000	-0.000000	-0.000000	3.036740	0.137340	-0.167860	0.008057	0.977109	-0.094421	-1.000000	-1.000000	-1.000000	-1.000000	-1.000000	-1.000000	-1.000000	146.620690	0.000000	-1.000000	-1.000000	239586.000000	1772311137.212562
-16883.820000	-13378.995000	-17865.945000	-12894.120000	0.000000	0.000000	0.000000	0.000000	10.717765	-15.941690	12.121689	12.304114	0.000000	0.000000	-0.000000	-0.000000	3.036740	0.137340	-0.167860	0.008057	0.977109	-0.094421	-1.000000	-1.000000	-1.000000	-1.000000	-1.000000	-1.000000	-1.000000	146.620690	0.000000	-1.000000	-1.000000	239587.000000	1772311137.216368
-16901.055000	-13354.920000	-17899.065000	-12928.590000	0.000000	0.000000	0.000000	0.000000	0.398257	-15.928062	6.773497	9.938887	0.000000	0.000000	-0.000000	-0.000000	3.036740	0.137340	-0.167860	0.008057	0.977109	-0.094421	-1.000000	-1.000000	-1.000000	-1.000000	-1.000000	-1.000000	-1.000000	146.620690	0.000000	-1.000000	-1.000000	239588.000000	1772311137.216370
-16868.745000	-13342.320000	-17882.280000	-12918.375000	0.000000	0.000000	0.000000	0.000000	-11.096128	-4.341776	-3.331755	2.109796	0.000000	0.000000	-0.000000	-0.000000	3.036740	0.137340	-0.167860	0.008057	0.977109	-0.094421	-1.000000	-1.000000	-1.000000	-1.000000	-1.000000	-1.000000	-1.000000	146.620690	0.000000	-1.000000	-1.000000	239589.000000	1772311137.220470
-16850.880000	-13324.230000	-17860.590000	-12901.365000	0.000000	0.000000	0.000000	0.000000	-15.408072	13.435969	-12.056319	-8.131548	0.000000	0.000000	-0.000000	-0.000000	3.036740	0.137340	-0.167860	0.008057	0.977109	-0.094421	-1.000000	-1.000000	-1.000000	-1.000000	-1.000000	-1.000000	-1.000000	146.620690	0.000000	-1.000000	-1.000000	239590.000000	1772311137.220473
-16847.100000	-13324.140000	-17856.360000	-12898.215000	0.000000	0.000000	0.000000	0.000000	-9.112913	26.669763	-12.629092	-13.731976	0.000000	0.000000	-0.000000	-0.000000	3.036740	0.137340	-0.167860	0.008057	0.977109	-0.094421	-1.000000	-1.000000	-1.000000	-1.000000	-1.000000	-1.000000	-1.000000	146.620690	0.000000	-1.000000	-1.000000	239591.000000	1772311137.224471
-16876.845000	-13303.170000	-17886.690000	-12926.070000	0.000000	0.000000	0.000000	0.000000	1.657541	27.963761	-5.924836	-12.225661	0.000000	0.000000	-0.000000	-0.000000	3.036740	0.137340	-0.167860	0.008057	0.977109	-0.094421	-1.000000	-1.000000	-1.000000	-1.000000	-1.000000	-1.000000	-1.000000	146.620690	0.000000	-1.000000	-1.000000	239592.000000	1772311137.224474
-16879.590000	-13277.700000	-17887.365000	-12928.050000	0.000000	0.000000	0.000000	0.000000	7.372657	18.112019	0.666256	-7.684024	0.000000	0.000000	-0.000000	-0.000000	3.036740	0.137340	-0.167860	0.008057	0.977109	-0.094421	-1.000000	-1.000000	-1.000000	-1.000000	-1.000000	-1.000000	-1.000000	146.620690	0.000000	-1.000000	-1.000000	239593.000000	1772311137.228646
-16896.465000	-13274.730000	-17900.820000	-12946.140000	0.000000	0.000000	0.000000	0.000000	4.622082	3.702583	2.282111	-4.256392	0.000000	0.000000	-0.000000	-0.000000	3.036740	0.137340	-0.167860	0.008057	0.977109	-0.094421	-1.000000	-1.000000	-1.000000	-1.000000	-1.000000	-1.000000	-1.000000	146.620690	0.000000	-1.000000	-1.000000	239594.000000	1772311137.228649
-16918.830000	-13287.915000	-17919.270000	-12961.395000	0.000000	0.000000	0.000000	0.000000	-2.736414	-9.649976	-0.044181	-2.616443	0.000000	0.000000	-0.000000	-0.000000	2.716280	0.381500	-0.244160	0.008179	0.977720	-0.095093	-1.000000	-1.000000	-1.000000	-1.000000	-1.000000	-1.000000	-1.000000	146.620690	0.000000	-1.000000	-1.000000	239595.000000	1772311137.232608
-16896.150000	-13273.425000	-17896.995000	-12933.405000	0.000000	0.000000	0.000000	0.000000	-8.460093	-19.437973	-2.515623	-0.935834	0.000000	0.000000	-0.000000	-0.000000	2.716280	0.381500	-0.244160	0.008179	0.977720	-0.095093	-1.000000	-1.000000	-1.000000	-1.000000	-1.000000	-1.000000	-1.000000	146.620690	0.000000	-1.000000	-1.000000	239596.000000	1772311137.232611
-16885.170000	-13259.700000	-17887.950000	-12923.145000	0.000000	0.000000	0.000000	0.000000	-7.348367	-23.320612	-1.216265	3.562638	0.000000	0.000000	-0.000000	-0.000000	2.716280	0.381500	-0.244160	0.008179	0.977720	-0.095093	-1.000000	-1.000000	-1.000000	-1.000000	-1.000000	-1.000000	-1.000000	146.620690	0.000000	-1.000000	-1.000000	239597.000000	1772311137.236506
-16891.965000	-13242.375000	-17898.840000	-12928.635000	0.000000	0.000000	0.000000	0.000000	0.912587	-19.332882	4.324883	10.632196	0.000000	0.000000	-0.000000	-0.000000	2.716280	0.381500	-0.244160	0.008179	0.977720	-0.095093	-1.000000	-1.000000	-1.000000	-1.000000	-1.000000	-1.000000	-1.000000	146.620690	0.000000	-1.000000	-1.000000	239598.000000	1772311137.236509
-16892.370000	-13186.575000	-17900.280000	-12937.005000	0.000000	0.000000	0.000000	0.000000	10.301912	-8.212701	9.569795	15.254346	0.000000	0.000000	-0.000000	-0.000000	2.716280	0.381500	-0.244160	0.008179	0.977720	-0.095093	-1.000000	-1.000000	-1.000000	-1.000000	-1.000000	-1.000000	-1.000000	146.620690	0.000000	-1.000000	-1.000000	239599.000000	1772311137.240513
-16888.455000	-13161.690000	-17895.015000	-12945.645000	0.000000	0.000000	0.000000	0.000000	14.289498	6.541266	10.128960	12.823131	0.000000	0.000000	-0.000000	-0.000000	2.716280	0.381500	-0.244160	0.008179	0.977720	-0.095093	-1.000000	-1.000000	-1.000000	-1.000000	-1.000000	-1.000000	-1.000000	146.620690	0.000000	-1.000000	-1.000000	239600.000000	1772311137.240516
-16896.285000	-13167.720000	-17893.710000	-12941.775000	0.000000	0.000000	0.000000	0.000000	11.240981	18.270717	6.168639	4.197259	0.000000	0.000000	-0.000000	-0.000000	2.716280	0.381500	-0.244160	0.008179	0.977720	-0.095093	-1.000000	-1.000000	-1.000000	-1.000000	-1.000000	-1.000000	-1.000000	146.620690	0.000000	-1.000000	-1.000000	239601.000000	1772311137.247219
-16899.795000	-13182.255000	-17901.855000	-12928.680000	0.000000	0.000000	0.000000	0.000000	3.637236	19.136924	0.490868	-5.020404	0.000000	0.000000	-0.000000	-0.000000	2.716280	0.381500	-0.244160	0.008179	0.977720	-0.095093	-1.000000	-1.000000	-1.000000	-1.000000	-1.000000	-1.000000	-1.000000	146.620690	0.000000	-1.000000	-1.000000	239602.000000	1772311137.247221
-16880.445000	-13201.605000	-17898.570000	-12926.295000	0.000000	0.000000	0.000000	0.000000	-4.194243	6.920268	-4.529974	-9.350377	0.000000	0.000000	-0.000000	-0.000000	2.716280	0.381500	-0.244160	0.008179	0.977720	-0.095093	-1.000000	-1.000000	-1.000000	-1.000000	-1.000000	-1.000000	-1.000000	146.620690	0.000000	-1.000000	-1.000000	239603.000000	1772311137.248549
-16890.120000	-13204.080000	-17894.115000	-12931.290000	0.000000	0.000000	0.000000	0.000000	-8.212266	-11.528861	-7.248738	-7.931917	0.000000	0.000000	-0.000000	-0.000000	2.716280	0.381500	-0.244160	0.008179	0.977720	-0.095093	-1.000000	-1.000000	-1.000000	-1.000000	-1.000000	-1.000000	-1.000000	146.620690	0.000000	-1.000000	-1.000000	239604.000000	1772311137.248551
-16888.680000	-13191.840000	-17889.030000	-12921.165000	0.000000	0.000000	0.000000	0.000000	-7.707649	-24.629924	-6.717867	-3.917185	0.000000	0.000000	-0.000000	-0.000000	2.273740	0.152600	-0.457800	0.008911	0.978269	-0.094360	-1.000000	-1.000000	-1.000000	-1.000000	-1.000000	-1.000000	-1.000000	146.620690	0.000000	-1.000000	-1.000000	239605.000000	1772311137.252542
-16881.795000	-13174.695000	-17890.515000	-12920.130000	0.000000	0.000000	0.000000	0.000000	-4.893668	-23.979118	-3.619365	-0.339762	0.000000	0.000000	-0.000000	-0.000000	2.273740	0.152600	-0.457800	0.008911	0.978269	-0.094360	-1.000000	-1.000000	-1.000000	-1.000000	-1.000000	-1.000000	-1.000000	146.620690	0.000000	-1.000000	-1.000000	239606.000000	1772311137.252544
-16886.430000	-13156.965000	-17898.750000	-12930.030000	0.000000	0.000000	0.000000	0.000000	-1.802840	-9.887325	-0.260073	1.381128	0.000000	0.000000	-0.000000	-0.000000	2.273740	0.152600	-0.457800	0.008911	0.978269	-0.094360	-1.000000	-1.000000	-1.000000	-1.000000	-1.000000	-1.000000	-1.000000	146.620690	0.000000	-1.000000	-1.000000	239607.000000	1772311137.256597
-16890.705000	-13117.095000	-17897.175000	-12930.345000	0.000000	0.000000	0.000000	0.000000	0.282044	9.898054	1.219313	0.734308	0.000000	0.000000	-0.000000	-0.000000	2.273740	0.152600	-0.457800	0.008911	0.978269	-0.094360	-1.000000	-1.000000	-1.000000	-1.000000	-1.000000	-1.000000	-1.000000	146.620690	0.000000	-1.000000	-1.000000	239608.000000	1772311137.256600
-16880.220000	-13105.980000	-17888.490000	-12926.520000	0.000000	0.000000	0.000000	0.000000	0.881346	25.869196	0.891708	-1.308378	0.000000	0.000000	-0.000000	-0.000000	2.273740	0.152600	-0.457800	0.008911	0.978269	-0.094360	-1.000000	-1.000000	-1.000000	-1.000000	-1.000000	-1.000000	-1.000000	146.620690	0.000000	-1.000000	-1.000000	239609.000000	1772311137.260613
-16887.105000	-13109.445000	-17907.120000	-12949.920000	0.000000	0.000000	0.000000	0.000000	0.776695	30.621513	0.192851	-2.998914	0.000000	0.000000	-0.000000	-0.000000	2.273740	0.152600	-0.457800	0.008911	0.978269	-0.094360	-1.000000	-1.000000	-1.000000	-1.000000	-1.000000	-1.000000	-1.000000	146.620690	0.000000	-1.000000	-1.000000	239610.000000	1772311137.260616
-16910.820000	-13111.155000	-17915.175000	-12961.260000	0.000000	0.000000	0.000000	0.000000	0.233448	21.471073	-0.672631	-4.016464	0.000000	0.000000	-0.000000	-0.000000	2.273740	0.152600	-0.457800	0.008911	0.978269	-0.094360	-1.000000	-1.000000	-1.000000	-1.000000	-1.000000	-1.000000	-1.000000	146.620690	0.000000	-1.000000	-1.000000	239611.000000	1772311137.264720
-16907.355000	-13106.970000	-17906.580000	-12947.490000	0.000000	0.000000	0.000000	0.000000	-1.429220	2.952562	-1.837679	-4.245777	0.000000	0.000000	-0.000000	-0.000000	2.273740	0.152600	-0.457800	0.008911	0.978269	-0.094360	-1.000000	-1.000000	-1.000000	-1.000000	-1.000000	-1.000000	-1.000000	146.620690	0.000000	-1.000000	-1.000000	239612.000000	1772311137.264723
-16893.765000	-13108.050000	-17892.540000	-12922.425000	0.000000	0.000000	0.000000	0.000000	-2.954708	-15.359038	-1.637943	-1.650339	0.000000	0.000000	-0.000000	-0.000000	2.273740	0.152600	-0.457800	0.008911	0.978269	-0.094360	-1.000000	-1.000000	-1.000000	-1.000000	-1.000000	-1.000000	-1.000000	146.620690	0.000000	-1.000000	-1.000000	239613.000000	1772311137.268591
-16884.990000	-13095.540000	-17887.095000	-12918.915000	0.000000	0.000000	0.000000	0.000000	-1.485412	-25.053534	1.393513	4.845631	0.000000	0.000000	-0.000000	-0.000000	2.273740	0.152600	-0.457800	0.008911	0.978269	-0.094360	-1.000000	-1.000000	-1.000000	-1.000000	-1.000000	-1.000000	-1.000000	146.620690	0.000000	-1.000000	-1.000000	239614.000000	1772311137.268594
-16882.425000	-13065.750000	-17889.750000	-12927.645000	0.000000	0.000000	0.000000	0.000000	3.181470	-22.718132	5.597524	11.587960	0.000000	0.000000	-0.000000	-0.000000	1.815940	0.488320	-0.473060	0.008057	0.978086	-0.094177	-1.000000	-1.000000	-1.000000	-1.000000	-1.000000	-1.000000	-1.000000	146.620690	0.000000	-1.000000	-1.000000	239615.000000	1772311137.274523
-16901.055000	-13056.705000	-17915.355000	-12957.345000	0.000000	0.000000	0.000000	0.000000	7.309272	-10.543322	6.964886	12.364378	0.000000	0.000000	-0.000000	-0.000000	1.815940	0.488320	-0.473060	0.008057	0.978086	-0.094177	-1.000000	-1.000000	-1.000000	-1.000000	-1.000000	-1.000000	-1.000000	146.620690	0.000000	-1.000000	-1.000000	239616.000000	1772311137.274526
-16926.030000	-13033.305000	-17940.105000	-12981.015000	0.000000	0.000000	0.000000	0.000000	6.403630	4.667099	2.583342	4.355823	0.000000	0.000000	-0.000000	-0.000000	1.815940	0.488320	-0.473060	0.008057	0.978086	-0.094177	-1.000000	-1.000000	-1.000000	-1.000000	-1.000000	-1.000000	-1.000000	146.620690	0.000000	-1.000000	-1.000000	239617.000000	1772311137.277454
-16906.905000	-13021.245000	-17914.365000	-12947.265000	0.000000	0.000000	0.000000	0.000000	0.160785	15.417334	-5.406385	-7.675202	0.000000	0.000000	-0.000000	-0.000000	1.815940	0.488320	-0.473060	0.008057	0.978086	-0.094177	-1.000000	-1.000000	-1.000000	-1.000000	-1.000000	-1.000000	-1.000000	146.620690	0.000000	-1.000000	-1.000000	239618.000000	1772311137.277456
-16874.685000	-13026.960000	-17884.170000	-12916.845000	0.000000	0.000000	0.000000	0.000000	-5.457976	17.420863	-9.562893	-13.549218	0.000000	0.000000	-0.000000	-0.000000	1.815940	0.488320	-0.473060	0.008057	0.978086	-0.094177	-1.000000	-1.000000	-1.000000	-1.000000	-1.000000	-1.000000	-1.000000	146.620690	0.000000	-1.000000	-1.000000	239619.000000	1772311137.280584
-16857.945000	-13035.285000	-17866.170000	-12902.580000	0.000000	0.000000	0.000000	0.000000	-4.050190	10.391349	-4.412660	-7.424508	0.000000	0.000000	-0.000000	-0.000000	1.815940	0.488320	-0.473060	0.008057	0.978086	-0.094177	-1.000000	-1.000000	-1.000000	-1.000000	-1.000000	-1.000000	-1.000000	146.620690	0.000000	-1.000000	-1.000000	239620.000000	1772311137.280587
-16878.690000	-13055.445000	-17882.460000	-12918.645000	0.000000	0.000000	0.000000	0.000000	2.981664	-2.265692	6.288966	5.157025	0.000000	0.000000	-0.000000	-0.000000	1.815940	0.488320	-0.473060	0.008057	0.978086	-0.094177	-1.000000	-1.000000	-1.000000	-1.000000	-1.000000	-1.000000	-1.000000	146.620690	0.000000	-1.000000	-1.000000	239621.000000	1772311137.284868
-16903.215000	-13068.450000	-17910.315000	-12954.780000	0.000000	0.000000	0.000000	0.000000	7.208806	-14.721643	12.356731	12.264484	0.000000	0.000000	-0.000000	-0.000000	1.815940	0.488320	-0.473060	0.008057	0.978086	-0.094177	-1.000000	-1.000000	-1.000000	-1.000000	-1.000000	-1.000000	-1.000000	146.620690	0.000000	-1.000000	-1.000000	239622.000000	1772311137.284871
-16902.405000	-13053.330000	-17912.655000	-12957.435000	0.000000	0.000000	0.000000	0.000000	2.999589	-20.807173	7.523734	7.166792	0.000000	0.000000	-0.000000	-0.000000	1.815940	0.488320	-0.473060	0.008057	0.978086	-0.094177	-1.000000	-1.000000	-1.000000	-1.000000	-1.000000	-1.000000	-1.000000	146.620690	0.000000	-1.000000	-1.000000	239623.000000	1772311137.288510
-16890.255000	-13021.470000	-17902.035000	-12936.330000	0.000000	0.000000	0.000000	0.000000	-5.875418	-16.110950	-4.011751	-4.957454	0.000000	0.000000	-0.000000	-0.000000	1.815940	0.488320	-0.473060	0.008057	0.978086	-0.094177	-1.000000	-1.000000	-1.000000	-1.000000	-1.000000	-1.000000	-1.000000	146.620690	0.000000	-1.000000	-1.000000	239624.000000	1772311137.288513
-16887.510000	-12997.305000	-17898.975000	-12929.130000	0.000000	0.000000	0.000000	0.000000	-11.054151	-1.159843	-12.392091	-12.655713	0.000000	0.000000	-0.000000	-0.000000	1.648080	0.076300	-0.824040	0.007996	0.978147	-0.093933	-1.000000	-1.000000	-1.000000	-1.000000	-1.000000	-1.000000	-1.000000	146.620690	0.000000	-1.000000	-1.000000	239625.000000	1772311137.295264
-16880.895000	-12975.840000	-17888.040000	-12917.970000	0.000000	0.000000	0.000000	0.000000	-8.553667	16.937411	-11.835995	-9.981422	0.000000	0.000000	-0.000000	-0.000000	1.648080	0.076300	-0.824040	0.007996	0.978147	-0.093933	-1.000000	-1.000000	-1.000000	-1.000000	-1.000000	-1.000000	-1.000000	146.620690	0.000000	-1.000000	-1.000000	239626.000000	1772311137.295267
-16890.345000	-12981.555000	-17895.420000	-12931.245000	0.000000	0.000000	0.000000	0.000000	-1.235686	28.032028	-4.255352	-0.700285	0.000000	0.000000	-0.000000	-0.000000	1.648080	0.076300	-0.824040	0.007996	0.978147	-0.093933	-1.000000	-1.000000	-1.000000	-1.000000	-1.000000	-1.000000	-1.000000	146.620690	0.000000	-1.000000	-1.000000	239627.000000	1772311137.297212
-16881.840000	-12961.845000	-17881.200000	-12913.605000	0.000000	0.000000	0.000000	0.000000	5.344089	25.758403	4.357226	7.431519	0.000000	0.000000	-0.000000	-0.000000	1.648080	0.076300	-0.824040	0.007996	0.978147	-0.093933	-1.000000	-1.000000	-1.000000	-1.000000	-1.000000	-1.000000	-1.000000	146.620690	0.000000	-1.000000	-1.000000	239628.000000	1772311137.297215
-16881.255000	-12959.505000	-17874.990000	-12898.170000	0.000000	0.000000	0.000000	0.000000	7.910566	12.080680	9.429319	10.311948	0.000000	0.000000	-0.000000	-0.000000	1.648080	0.076300	-0.824040	0.007996	0.978147	-0.093933	-1.000000	-1.000000	-1.000000	-1.000000	-1.000000	-1.000000	-1.000000	146.620690	0.000000	-1.000000	-1.000000	239629.000000	1772311137.300719
-16909.830000	-12919.545000	-17914.320000	-12951.630000	0.000000	0.000000	0.000000	0.000000	6.128254	-4.495492	9.100808	7.831234	0.000000	0.000000	-0.000000	-0.000000	1.648080	0.076300	-0.824040	0.007996	0.978147	-0.093933	-1.000000	-1.000000	-1.000000	-1.000000	-1.000000	-1.000000	-1.000000	146.620690	0.000000	-1.000000	-1.000000	239630.000000	1772311137.300722
-16921.080000	-12886.695000	-17940.465000	-12992.805000	0.000000	0.000000	0.000000	0.000000	0.680788	-14.796344	2.559614	-0.485997	0.000000	0.000000	-0.000000	-0.000000	1.648080	0.076300	-0.824040	0.007996	0.978147	-0.093933	-1.000000	-1.000000	-1.000000	-1.000000	-1.000000	-1.000000	-1.000000	146.620690	0.000000	-1.000000	-1.000000	239631.000000	1772311137.304468
-16889.400000	-12862.665000	-17904.735000	-12951.855000	0.000000	0.000000	0.000000	0.000000	-5.333458	-14.865068	-7.081630	-11.939207	0.000000	0.000000	-0.000000	-0.000000	1.648080	0.076300	-0.824040	0.007996	0.978147	-0.093933	-1.000000	-1.000000	-1.000000	-1.000000	-1.000000	-1.000000	-1.000000	146.620690	0.000000	-1.000000	-1.000000	239632.000000	1772311137.304471
-16887.420000	-12856.770000	-17904.330000	-12955.770000	0.000000	0.000000	0.000000	0.000000	-6.503866	-8.404849	-11.729457	-17.255283	0.000000	0.000000	-0.000000	-0.000000	1.648080	0.076300	-0.824040	0.007996	0.978147	-0.093933	-1.000000	-1.000000	-1.000000	-1.000000	-1.000000	-1.000000	-1.000000	146.620690	0.000000	-1.000000	-1.000000	239633.000000	1772311137.308797
-16899.030000	-12870.495000	-17916.570000	-12963.555000	0.000000	0.000000	0.000000	0.000000	-1.577780	-3.116758	-7.191864	-10.745067	0.000000	0.000000	-0.000000	-0.000000	1.648080	0.076300	-0.824040	0.007996	0.978147	-0.093933	-1.000000	-1.000000	-1.000000	-1.000000	-1.000000	-1.000000	-1.000000	146.620690	0.000000	-1.000000	-1.000000	239634.000000	1772311137.308799
-16920.630000	-12867.615000	-17925.390000	-12954.735000	0.000000	0.000000	0.000000	0.000000	3.968353	-3.934625	1.551816	2.499759	0.000000	0.000000	-0.000000	-0.000000	2.334780	0.366240	-0.457800	0.007629	0.977231	-0.093506	-1.000000	-1.000000	-1.000000	-1.000000	-1.000000	-1.000000	-1.000000	146.620690	0.000000	-1.000000	-1.000000	239635.000000	1772311137.313436
-16936.245000	-12865.230000	-17927.280000	-12963.330000	0.000000	0.000000	0.000000	0.000000	4.381799	-9.043503	7.336653	13.615186	0.000000	0.000000	-0.000000	-0.000000	2.334780	0.366240	-0.457800	0.007629	0.977231	-0.093506	-1.000000	-1.000000	-1.000000	-1.000000	-1.000000	-1.000000	-1.000000	146.620690	0.000000	-1.000000	-1.000000	239636.000000	1772311137.313439
-16919.595000	-12881.790000	-17914.590000	-12967.740000	0.000000	0.000000	0.000000	0.000000	0.045842	-12.843553	8.062041	17.178113	0.000000	0.000000	-0.000000	-0.000000	2.334780	0.366240	-0.457800	0.007629	0.977231	-0.093506	-1.000000	-1.000000	-1.000000	-1.000000	-1.000000	-1.000000	-1.000000	146.620690	0.000000	-1.000000	-1.000000	239637.000000	1772311137.316689
-16890.930000	-12893.670000	-17899.425000	-12943.755000	0.000000	0.000000	0.000000	0.000000	-3.011264	-12.095662	6.394308	13.231837	0.000000	0.000000	-0.000000	-0.000000	2.334780	0.366240	-0.457800	0.007629	0.977231	-0.093506	-1.000000	-1.000000	-1.000000	-1.000000	-1.000000	-1.000000	-1.000000	146.620690	0.000000	-1.000000	-1.000000	239638.000000	1772311137.316691
-16896.105000	-12899.790000	-17913.330000	-12943.080000	0.000000	0.000000	0.000000	0.000000	-0.214923	-7.229808	4.897265	6.266853	0.000000	0.000000	-0.000000	-0.000000	2.334780	0.366240	-0.457800	0.007629	0.977231	-0.093506	-1.000000	-1.000000	-1.000000	-1.000000	-1.000000	-1.000000	-1.000000	146.620690	0.000000	-1.000000	-1.000000	239639.000000	1772311137.321378
-16902.630000	-12879.270000	-17919.090000	-12944.115000	0.000000	0.000000	0.000000	0.000000	5.655518	0.501628	2.864212	0.300535	0.000000	0.000000	-0.000000	-0.000000	2.334780	0.366240	-0.457800	0.007629	0.977231	-0.093506	-1.000000	-1.000000	-1.000000	-1.000000	-1.000000	-1.000000	-1.000000	146.758621	0.000000	-1.000000	-1.000000	239640.000000	1772311137.321382
-16895.250000	-12860.190000	-17907.435000	-12935.700000	0.000000	0.000000	0.000000	0.000000	8.283922	10.247044	-0.846322	-3.871751	0.000000	0.000000	-0.000000	-0.000000	2.334780	0.366240	-0.457800	0.007629	0.977231	-0.093506	-1.000000	-1.000000	-1.000000	-1.000000	-1.000000	-1.000000	-1.000000	146.758621	0.000000	-1.000000	-1.000000	239641.000000	1772311137.326116
-16885.620000	-12869.730000	-17888.805000	-12916.890000	0.000000	0.000000	0.000000	0.000000	5.564845	19.423519	-4.222430	-6.166456	0.000000	0.000000	-0.000000	-0.000000	2.334780	0.366240	-0.457800	0.007629	0.977231	-0.093506	-1.000000	-1.000000	-1.000000	-1.000000	-1.000000	-1.000000	-1.000000	146.758621	0.000000	-1.000000	-1.000000	239642.000000	1772311137.326119
-16888.230000	-12916.440000	-17893.530000	-12923.550000	0.000000	0.000000	0.000000	0.000000	0.237263	22.158079	-4.570600	-6.205070	0.000000	0.000000	-0.000000	-0.000000	2.334780	0.366240	-0.457800	0.007629	0.977231	-0.093506	-1.000000	-1.000000	-1.000000	-1.000000	-1.000000	-1.000000	-1.000000	146.758621	0.000000	-1.000000	-1.000000	239643.000000	1772311137.330201
-16889.085000	-12963.510000	-17899.425000	-12936.735000	0.000000	0.000000	0.000000	0.000000	-4.618389	13.283606	-2.710681	-5.314738	0.000000	0.000000	-0.000000	-0.000000	2.334780	0.366240	-0.457800	0.007629	0.977231	-0.093506	-1.000000	-1.000000	-1.000000	-1.000000	-1.000000	-1.000000	-1.000000	146.758621	0.000000	-1.000000	-1.000000	239644.000000	1772311137.330203
-16889.490000	-12986.955000	-17899.920000	-12942.675000	0.000000	0.000000	0.000000	0.000000	-7.582818	-4.704736	-1.629354	-5.713602	0.000000	0.000000	-0.000000	-0.000000	3.555580	0.152600	-0.335720	0.007263	0.976316	-0.093200	-1.000000	-1.000000	-1.000000	-1.000000	-1.000000	-1.000000	-1.000000	146.758621	0.000000	-1.000000	-1.000000	239645.000000	1772311137.332722
-16883.460000	-13011.750000	-17892.495000	-12929.310000	0.000000	0.000000	0.000000	0.000000	-8.074610	-21.176241	-2.232315	-6.976323	0.000000	0.000000	-0.000000	-0.000000	3.555580	0.152600	-0.335720	0.007263	0.976316	-0.093200	-1.000000	-1.000000	-1.000000	-1.000000	-1.000000	-1.000000	-1.000000	146.758621	0.000000	-1.000000	-1.000000	239646.000000	1772311137.332725
-16881.660000	-13017.240000	-17890.830000	-12924.315000	0.000000	0.000000	0.000000	0.000000	-5.986377	-25.631398	-2.844625	-6.078649	0.000000	0.000000	-0.000000	-0.000000	3.555580	0.152600	-0.335720	0.007263	0.976316	-0.093200	-1.000000	-1.000000	-1.000000	-1.000000	-1.000000	-1.000000	-1.000000	146.758621	0.000000	-1.000000	-1.000000	239647.000000	1772311137.336738
-16886.115000	-12983.760000	-17897.805000	-12935.025000	0.000000	0.000000	0.000000	0.000000	-2.316483	-14.700320	-2.200631	-1.835591	0.000000	0.000000	-0.000000	-0.000000	3.555580	0.152600	-0.335720	0.007263	0.976316	-0.093200	-1.000000	-1.000000	-1.000000	-1.000000	-1.000000	-1.000000	-1.000000	146.758621	0.000000	-1.000000	-1.000000	239648.000000	1772311137.336741
-16873.560000	-12949.470000	-17883.720000	-12929.490000	0.000000	0.000000	0.000000	0.000000	1.234490	7.470095	-0.658851	3.225937	0.000000	0.000000	-0.000000	-0.000000	3.555580	0.152600	-0.335720	0.007263	0.976316	-0.093200	-1.000000	-1.000000	-1.000000	-1.000000	-1.000000	-1.000000	-1.000000	146.758621	0.000000	-1.000000	-1.000000	239649.000000	1772311137.340742
-16854.525000	-12947.535000	-17866.890000	-12919.545000	0.000000	0.000000	0.000000	0.000000	4.052093	30.600534	1.536535	6.432905	0.000000	0.000000	-0.000000	-0.000000	3.555580	0.152600	-0.335720	0.007263	0.976316	-0.093200	-1.000000	-1.000000	-1.000000	-1.000000	-1.000000	-1.000000	-1.000000	146.758621	0.000000	-1.000000	-1.000000	239650.000000	1772311137.340746
-16855.830000	-12954.015000	-17868.870000	-12914.190000	0.000000	0.000000	0.000000	0.000000	6.311222	41.721433	4.268604	7.491268	0.000000	0.000000	-0.000000	-0.000000	3.555580	0.152600	-0.335720	0.007263	0.976316	-0.093200	-1.000000	-1.000000	-1.000000	-1.000000	-1.000000	-1.000000	-1.000000	146.758621	0.000000	-1.000000	-1.000000	239651.000000	1772311137.347673
-16951.050000	-12952.845000	-17959.860000	-12997.080000	0.000000	0.000000	0.000000	0.000000	5.235931	33.566988	4.235777	5.415098	0.000000	0.000000	-0.000000	-0.000000	3.555580	0.152600	-0.335720	0.007263	0.976316	-0.093200	-1.000000	-1.000000	-1.000000	-1.000000	-1.000000	-1.000000	-1.000000	146.758621	0.000000	-1.000000	-1.000000	239652.000000	1772311137.347676
-16962.480000	-12942.630000	-17971.020000	-13015.170000	0.000000	0.000000	0.000000	0.000000	-3.475409	10.773450	-3.205704	-2.452259	0.000000	0.000000	-0.000000	-0.000000	3.555580	0.152600	-0.335720	0.007263	0.976316	-0.093200	-1.000000	-1.000000	-1.000000	-1.000000	-1.000000	-1.000000	-1.000000	146.758621	0.000000	-1.000000	-1.000000	239653.000000	1772311137.348935
-16902.540000	-12928.680000	-17897.580000	-12943.710000	0.000000	0.000000	0.000000	0.000000	-14.958468	-13.789168	-13.343274	-12.059527	0.000000	0.000000	-0.000000	-0.000000	3.555580	0.152600	-0.335720	0.007263	0.976316	-0.093200	-1.000000	-1.000000	-1.000000	-1.000000	-1.000000	-1.000000	-1.000000	146.758621	0.000000	-1.000000	-1.000000	239654.000000	1772311137.348938
-16902.855000	-12928.185000	-17896.275000	-12928.275000	0.000000	0.000000	0.000000	0.000000	-15.818165	-28.730133	-12.921178	-11.611249	0.000000	0.000000	-0.000000	-0.000000	4.410140	0.412020	0.305200	0.007507	0.976987	-0.092407	-1.000000	-1.000000	-1.000000	-1.000000	-1.000000	-1.000000	-1.000000	146.758621	0.000000	-1.000000	-1.000000	239655.000000	1772311137.352706
-16899.030000	-12936.600000	-17893.890000	-12926.565000	0.000000	0.000000	0.000000	0.000000	-1.990604	-30.842958	1.456030	2.385212	0.000000	0.000000	-0.000000	-0.000000	4.410140	0.412020	0.305200	0.007507	0.976987	-0.092407	-1.000000	-1.000000	-1.000000	-1.000000	-1.000000	-1.000000	-1.000000	146.758621	0.000000	-1.000000	-1.000000	239656.000000	1772311137.352708
-16894.125000	-12949.605000	-17890.830000	-12914.910000	0.000000	0.000000	0.000000	0.000000	15.774232	-24.268633	18.012305	18.724937	0.000000	0.000000	-0.000000	-0.000000	4.410140	0.412020	0.305200	0.007507	0.976987	-0.092407	-1.000000	-1.000000	-1.000000	-1.000000	-1.000000	-1.000000	-1.000000	146.758621	0.000000	-1.000000	-1.000000	239657.000000	1772311137.356986
-16894.395000	-12950.235000	-17889.165000	-12903.570000	0.000000	0.000000	0.000000	0.000000	25.014865	-14.810201	24.360173	24.993898	0.000000	0.000000	-0.000000	-0.000000	4.410140	0.412020	0.305200	0.007507	0.976987	-0.092407	-1.000000	-1.000000	-1.000000	-1.000000	-1.000000	-1.000000	-1.000000	146.758621	0.000000	-1.000000	-1.000000	239658.000000	1772311137.356988
-16886.970000	-12935.475000	-17878.815000	-12892.140000	0.000000	0.000000	0.000000	0.000000	21.493908	-5.344026	17.889545	18.369310	0.000000	0.000000	-0.000000	-0.000000	4.410140	0.412020	0.305200	0.007507	0.976987	-0.092407	-1.000000	-1.000000	-1.000000	-1.000000	-1.000000	-1.000000	-1.000000	146.758621	0.000000	-1.000000	-1.000000	239659.000000	1772311137.360762
-16886.880000	-12940.155000	-17874.135000	-12883.770000	0.000000	0.000000	0.000000	0.000000	9.145896	3.728096	4.365475	4.188915	0.000000	0.000000	-0.000000	-0.000000	4.410140	0.412020	0.305200	0.007507	0.976987	-0.092407	-1.000000	-1.000000	-1.000000	-1.000000	-1.000000	-1.000000	-1.000000	146.758621	0.000000	-1.000000	-1.000000	239660.000000	1772311137.360765
-16888.950000	-12924.720000	-17893.845000	-12958.785000	0.000000	0.000000	0.000000	0.000000	-4.847134	11.403186	-8.806913	-11.406800	0.000000	0.000000	-0.000000	-0.000000	4.410140	0.412020	0.305200	0.007507	0.976987	-0.092407	-1.000000	-1.000000	-1.000000	-1.000000	-1.000000	-1.000000	-1.000000	146.758621	0.000000	-1.000000	-1.000000	239661.000000	1772311137.366337
-16884.630000	-12897.630000	-17899.335000	-12980.655000	0.000000	0.000000	0.000000	0.000000	-14.704630	16.247711	-17.567888	-25.762654	0.000000	0.000000	-0.000000	-0.000000	4.410140	0.412020	0.305200	0.007507	0.976987	-0.092407	-1.000000	-1.000000	-1.000000	-1.000000	-1.000000	-1.000000	-1.000000	146.758621	0.000000	-1.000000	-1.000000	239662.000000	1772311137.366340
-16892.730000	-12880.305000	-17904.780000	-12965.490000	0.000000	0.000000	0.000000	0.000000	-17.895230	17.954817	-20.560504	-34.743536	0.000000	0.000000	-0.000000	-0.000000	4.410140	0.412020	0.305200	0.007507	0.976987	-0.092407	-1.000000	-1.000000	-1.000000	-1.000000	-1.000000	-1.000000	-1.000000	146.758621	0.000000	-1.000000	-1.000000	239663.000000	1772311137.368761
-16931.835000	-12884.130000	-17939.655000	-12985.515000	0.000000	0.000000	0.000000	0.000000	-15.856042	15.958711	-17.956085	-31.244042	0.000000	0.000000	-0.000000	-0.000000	4.410140	0.412020	0.305200	0.007507	0.976987	-0.092407	-1.000000	-1.000000	-1.000000	-1.000000	-1.000000	-1.000000	-1.000000	146.758621	0.000000	-1.000000	-1.000000	239664.000000	1772311137.368764
-16881.300000	-12899.880000	-17895.465000	-12945.510000	0.000000	0.000000	0.000000	0.000000	-11.306273	8.703096	-11.012931	-13.603026	0.000000	0.000000	-0.000000	-0.000000	3.189340	0.259420	-0.137340	0.008240	0.977170	-0.095703	-1.000000	-1.000000	-1.000000	-1.000000	-1.000000	-1.000000	-1.000000	146.758621	0.000000	-1.000000	-1.000000	239665.000000	1772311137.372856
-16821.855000	-12891.915000	-17844.705000	-12894.705000	0.000000	0.000000	0.000000	0.000000	-2.868239	-3.203856	0.617075	12.187202	0.000000	0.000000	-0.000000	-0.000000	3.189340	0.259420	-0.137340	0.008240	0.977170	-0.095703	-1.000000	-1.000000	-1.000000	-1.000000	-1.000000	-1.000000	-1.000000	146.758621	0.000000	-1.000000	-1.000000	239666.000000	1772311137.372860
-16865.280000	-12881.565000	-17885.340000	-12914.685000	0.000000	0.000000	0.000000	0.000000	10.150595	-14.526410	15.405738	35.880529	0.000000	0.000000	-0.000000	-0.000000	3.189340	0.259420	-0.137340	0.008240	0.977170	-0.095703	-1.000000	-1.000000	-1.000000	-1.000000	-1.000000	-1.000000	-1.000000	146.758621	0.000000	-1.000000	-1.000000	239667.000000	1772311137.376882
-16933.230000	-12869.955000	-17943.210000	-12972.690000	0.000000	0.000000	0.000000	0.000000	18.339484	-18.865467	23.505932	44.181630	0.000000	0.000000	-0.000000	-0.000000	3.189340	0.259420	-0.137340	0.008240	0.977170	-0.095703	-1.000000	-1.000000	-1.000000	-1.000000	-1.000000	-1.000000	-1.000000	146.758621	0.000000	-1.000000	-1.000000	239668.000000	1772311137.376885
-16916.310000	-12860.910000	-17920.440000	-12962.340000	0.000000	0.000000	0.000000	0.000000	11.617188	-14.327837	16.198361	29.616152	0.000000	0.000000	-0.000000	-0.000000	3.189340	0.259420	-0.137340	0.008240	0.977170	-0.095703	-1.000000	-1.000000	-1.000000	-1.000000	-1.000000	-1.000000	-1.000000	146.758621	0.000000	-1.000000	-1.000000	239669.000000	1772311137.380889
-16906.275000	-12861.045000	-17911.350000	-12954.915000	0.000000	0.000000	0.000000	0.000000	-4.419741	-4.680909	-0.256174	1.395594	0.000000	0.000000	-0.000000	-0.000000	3.189340	0.259420	-0.137340	0.008240	0.977170	-0.095703	-1.000000	-1.000000	-1.000000	-1.000000	-1.000000	-1.000000	-1.000000	146.758621	0.000000	-1.000000	-1.000000	239670.000000	1772311137.380892
-16905.375000	-12849.615000	-17913.555000	-12954.780000	0.000000	0.000000	0.000000	0.000000	-14.715342	4.220400	-11.741444	-21.773480	0.000000	0.000000	-0.000000	-0.000000	3.189340	0.259420	-0.137340	0.008240	0.977170	-0.095703	-1.000000	-1.000000	-1.000000	-1.000000	-1.000000	-1.000000	-1.000000	146.758621	0.000000	-1.000000	-1.000000	239671.000000	1772311137.384865
-16906.095000	-12838.905000	-17915.130000	-12953.790000	0.000000	0.000000	0.000000	0.000000	-12.274660	8.820689	-12.112250	-28.694081	0.000000	0.000000	-0.000000	-0.000000	3.189340	0.259420	-0.137340	0.008240	0.977170	-0.095703	-1.000000	-1.000000	-1.000000	-1.000000	-1.000000	-1.000000	-1.000000	146.758621	0.000000	-1.000000	-1.000000	239672.000000	1772311137.384869
-16900.380000	-12829.140000	-17911.485000	-12957.030000	0.000000	0.000000	0.000000	0.000000	-1.590398	9.079248	-5.126297	-21.026928	0.000000	0.000000	-0.000000	-0.000000	3.189340	0.259420	-0.137340	0.008240	0.977170	-0.095703	-1.000000	-1.000000	-1.000000	-1.000000	-1.000000	-1.000000	-1.000000	146.758621	0.000000	-1.000000	-1.000000	239673.000000	1772311137.388883
-16892.820000	-12864.870000	-17896.455000	-12949.065000	0.000000	0.000000	0.000000	0.000000	9.239363	5.812526	3.032511	-7.106471	0.000000	0.000000	-0.000000	-0.000000	3.189340	0.259420	-0.137340	0.008240	0.977170	-0.095703	-1.000000	-1.000000	-1.000000	-1.000000	-1.000000	-1.000000	-1.000000	146.758621	0.000000	-1.000000	-1.000000	239674.000000	1772311137.388886
-16871.940000	-12905.235000	-17869.410000	-12922.515000	0.000000	0.000000	0.000000	0.000000	15.047481	-1.456058	8.901015	5.689441	0.000000	0.000000	-0.000000	-0.000000	2.136400	1.113980	-0.350980	0.009277	0.978147	-0.097351	-1.000000	-1.000000	-1.000000	-1.000000	-1.000000	-1.000000	-1.000000	146.758621	0.000000	-1.000000	-1.000000	239675.000000	1772311137.393348
-16841.880000	-12911.490000	-17840.115000	-12885.930000	0.000000	0.000000	0.000000	0.000000	15.352707	-11.479936	12.025560	14.483142	0.000000	0.000000	-0.000000	-0.000000	2.136400	1.113980	-0.350980	0.009277	0.978147	-0.097351	-1.000000	-1.000000	-1.000000	-1.000000	-1.000000	-1.000000	-1.000000	146.758621	0.000000	-1.000000	-1.000000	239676.000000	1772311137.393351
-16872.660000	-12901.365000	-17883.405000	-12930.210000	0.000000	0.000000	0.000000	0.000000	11.391087	-17.910560	11.449292	17.845023	0.000000	0.000000	-0.000000	-0.000000	2.136400	1.113980	-0.350980	0.009277	0.978147	-0.097351	-1.000000	-1.000000	-1.000000	-1.000000	-1.000000	-1.000000	-1.000000	146.758621	0.000000	-1.000000	-1.000000	239677.000000	1772311137.396937
-16922.655000	-12924.090000	-17935.155000	-12984.705000	0.000000	0.000000	0.000000	0.000000	2.096897	-14.495883	3.484124	11.815390	0.000000	0.000000	-0.000000	-0.000000	2.136400	1.113980	-0.350980	0.009277	0.978147	-0.097351	-1.000000	-1.000000	-1.000000	-1.000000	-1.000000	-1.000000	-1.000000	146.758621	0.000000	-1.000000	-1.000000	239678.000000	1772311137.396939
-16896.735000	-12929.850000	-17903.745000	-12966.525000	0.000000	0.000000	0.000000	0.000000	-12.061480	-2.731923	-11.619419	-4.134460	0.000000	0.000000	-0.000000	-0.000000	2.136400	1.113980	-0.350980	0.009277	0.978147	-0.097351	-1.000000	-1.000000	-1.000000	-1.000000	-1.000000	-1.000000	-1.000000	146.758621	0.000000	-1.000000	-1.000000	239679.000000	1772311137.400874
-16878.690000	-12923.730000	-17897.940000	-12951.900000	0.000000	0.000000	0.000000	0.000000	-22.855049	10.325263	-23.686788	-19.720542	0.000000	0.000000	-0.000000	-0.000000	2.136400	1.113980	-0.350980	0.009277	0.978147	-0.097351	-1.000000	-1.000000	-1.000000	-1.000000	-1.000000	-1.000000	-1.000000	146.758621	0.000000	-1.000000	-1.000000	239680.000000	1772311137.400876
-16854.345000	-12904.830000	-17881.515000	-12915.405000	0.000000	0.000000	0.000000	0.000000	-20.833266	19.442133	-22.157475	-21.898820	0.000000	0.000000	-0.000000	-0.000000	2.136400	1.113980	-0.350980	0.009277	0.978147	-0.097351	-1.000000	-1.000000	-1.000000	-1.000000	-1.000000	-1.000000	-1.000000	146.758621	0.000000	-1.000000	-1.000000	239681.000000	1772311137.407754
-16893.810000	-12897.045000	-17898.615000	-12929.715000	0.000000	0.000000	0.000000	0.000000	-7.262276	23.060987	-8.120721	-8.762054	0.000000	0.000000	-0.000000	-0.000000	2.136400	1.113980	-0.350980	0.009277	0.978147	-0.097351	-1.000000	-1.000000	-1.000000	-1.000000	-1.000000	-1.000000	-1.000000	146.758621	0.000000	-1.000000	-1.000000	239682.000000	1772311137.407757
-16914.600000	-12895.830000	-17928.450000	-12963.870000	0.000000	0.000000	0.000000	0.000000	6.218827	20.818991	7.376232	8.290027	0.000000	0.000000	-0.000000	-0.000000	2.136400	1.113980	-0.350980	0.009277	0.978147	-0.097351	-1.000000	-1.000000	-1.000000	-1.000000	-1.000000	-1.000000	-1.000000	146.758621	0.000000	-1.000000	-1.000000	239683.000000	1772311137.409005
-16892.595000	-12897.495000	-17899.560000	-12932.190000	0.000000	0.000000	0.000000	0.000000	10.578232	12.760020	14.647762	16.388497	0.000000	0.000000	-0.000000	-0.000000	2.136400	1.113980	-0.350980	0.009277	0.978147	-0.097351	-1.000000	-1.000000	-1.000000	-1.000000	-1.000000	-1.000000	-1.000000	146.758621	0.000000	-1.000000	-1.000000	239684.000000	1772311137.409008
-16889.805000	-12914.820000	-17893.845000	-12921.345000	0.000000	0.000000	0.000000	0.000000	7.937757	0.498279	13.736723	13.893264	0.000000	0.000000	-0.000000	-0.000000	3.769220	0.412020	-0.045780	0.008301	0.976865	-0.094116	-1.000000	-1.000000	-1.000000	-1.000000	-1.000000	-1.000000	-1.000000	146.758621	0.000000	-1.000000	-1.000000	239685.000000	1772311137.413092
-16900.020000	-12926.070000	-17903.430000	-12940.560000	0.000000	0.000000	0.000000	0.000000	4.722599	-12.540535	9.931255	7.140815	0.000000	0.000000	-0.000000	-0.000000	3.769220	0.412020	-0.045780	0.008301	0.976865	-0.094116	-1.000000	-1.000000	-1.000000	-1.000000	-1.000000	-1.000000	-1.000000	146.758621	0.000000	-1.000000	-1.000000	239686.000000	1772311137.413095
-16901.820000	-12899.115000	-17912.115000	-12945.690000	0.000000	0.000000	0.000000	0.000000	3.019916	-21.323630	5.481573	0.054703	0.000000	0.000000	-0.000000	-0.000000	3.769220	0.412020	-0.045780	0.008301	0.976865	-0.094116	-1.000000	-1.000000	-1.000000	-1.000000	-1.000000	-1.000000	-1.000000	146.758621	0.000000	-1.000000	-1.000000	239687.000000	1772311137.417053
-16893.270000	-12874.500000	-17901.045000	-12933.405000	0.000000	0.000000	0.000000	0.000000	1.955152	-20.612742	0.446988	-5.968956	0.000000	0.000000	-0.000000	-0.000000	3.769220	0.412020	-0.045780	0.008301	0.976865	-0.094116	-1.000000	-1.000000	-1.000000	-1.000000	-1.000000	-1.000000	-1.000000	146.758621	0.000000	-1.000000	-1.000000	239688.000000	1772311137.417056
-16913.880000	-12854.790000	-17920.035000	-12953.565000	0.000000	0.000000	0.000000	0.000000	0.925750	-9.652882	-3.990098	-9.031234	0.000000	0.000000	-0.000000	-0.000000	3.769220	0.412020	-0.045780	0.008301	0.976865	-0.094116	-1.000000	-1.000000	-1.000000	-1.000000	-1.000000	-1.000000	-1.000000	146.758621	0.000000	-1.000000	-1.000000	239689.000000	1772311137.420972
-16915.140000	-12837.195000	-17923.005000	-12957.930000	0.000000	0.000000	0.000000	0.000000	-0.674998	5.400325	-6.752839	-8.727635	0.000000	0.000000	-0.000000	-0.000000	3.769220	0.412020	-0.045780	0.008301	0.976865	-0.094116	-1.000000	-1.000000	-1.000000	-1.000000	-1.000000	-1.000000	-1.000000	146.758621	0.000000	-1.000000	-1.000000	239690.000000	1772311137.420974
-16907.805000	-12825.045000	-17919.090000	-12954.465000	0.000000	0.000000	0.000000	0.000000	-2.604245	15.925294	-7.469687	-6.272002	0.000000	0.000000	-0.000000	-0.000000	3.769220	0.412020	-0.045780	0.008301	0.976865	-0.094116	-1.000000	-1.000000	-1.000000	-1.000000	-1.000000	-1.000000	-1.000000	146.758621	0.000000	-1.000000	-1.000000	239691.000000	1772311137.424950
-16895.205000	-12813.570000	-17907.030000	-12946.725000	0.000000	0.000000	0.000000	0.000000	-2.867579	16.910899	-5.365981	-2.172559	0.000000	0.000000	-0.000000	-0.000000	3.769220	0.412020	-0.045780	0.008301	0.976865	-0.094116	-1.000000	-1.000000	-1.000000	-1.000000	-1.000000	-1.000000	-1.000000	146.758621	0.000000	-1.000000	-1.000000	239692.000000	1772311137.424953
-16895.970000	-12828.600000	-17906.625000	-12947.040000	0.000000	0.000000	0.000000	0.000000	-0.339613	8.787891	-0.478638	3.076777	0.000000	0.000000	-0.000000	-0.000000	3.769220	0.412020	-0.045780	0.008301	0.976865	-0.094116	-1.000000	-1.000000	-1.000000	-1.000000	-1.000000	-1.000000	-1.000000	146.758621	0.000000	-1.000000	-1.000000	239693.000000	1772311137.429259
-16896.330000	-12835.710000	-17901.945000	-12943.305000	0.000000	0.000000	0.000000	0.000000	3.084672	-4.411105	4.891777	7.589784	0.000000	0.000000	-0.000000	-0.000000	3.769220	0.412020	-0.045780	0.008301	0.976865	-0.094116	-1.000000	-1.000000	-1.000000	-1.000000	-1.000000	-1.000000	-1.000000	146.758621	0.000000	-1.000000	-1.000000	239694.000000	1772311137.429262
-16891.155000	-12812.715000	-17893.935000	-12938.535000	0.000000	0.000000	0.000000	0.000000	4.518908	-16.354635	7.846792	9.314161	0.000000	0.000000	-0.000000	-0.000000	4.288060	0.167860	-0.106820	0.008423	0.977109	-0.093933	-1.000000	-1.000000	-1.000000	-1.000000	-1.000000	-1.000000	-1.000000	146.758621	0.000000	-1.000000	-1.000000	239695.000000	1772311137.433007
-16880.850000	-12794.220000	-17885.520000	-12933.180000	0.000000	0.000000	0.000000	0.000000	3.263105	-20.126225	7.379073	7.796337	0.000000	0.000000	-0.000000	-0.000000	4.288060	0.167860	-0.106820	0.008423	0.977109	-0.093933	-1.000000	-1.000000	-1.000000	-1.000000	-1.000000	-1.000000	-1.000000	146.758621	0.000000	-1.000000	-1.000000	239696.000000	1772311137.433010
-16881.480000	-12780.360000	-17887.095000	-12931.425000	0.000000	0.000000	0.000000	0.000000	0.765700	-13.249518	4.317358	4.104838	0.000000	0.000000	-0.000000	-0.000000	4.288060	0.167860	-0.106820	0.008423	0.977109	-0.093933	-1.000000	-1.000000	-1.000000	-1.000000	-1.000000	-1.000000	-1.000000	146.758621	0.000000	-1.000000	-1.000000	239697.000000	1772311137.437061
-16883.775000	-12784.095000	-17892.945000	-12936.780000	0.000000	0.000000	0.000000	0.000000	-1.730889	-0.653049	-0.230626	-0.396123	0.000000	0.000000	-0.000000	-0.000000	4.288060	0.167860	-0.106820	0.008423	0.977109	-0.093933	-1.000000	-1.000000	-1.000000	-1.000000	-1.000000	-1.000000	-1.000000	146.758621	0.000000	-1.000000	-1.000000	239698.000000	1772311137.437064
-16880.220000	-12786.615000	-17892.000000	-12943.665000	0.000000	0.000000	0.000000	0.000000	-3.850858	9.256819	-5.118896	-4.758568	0.000000	0.000000	-0.000000	-0.000000	4.288060	0.167860	-0.106820	0.008423	0.977109	-0.093933	-1.000000	-1.000000	-1.000000	-1.000000	-1.000000	-1.000000	-1.000000	146.758621	0.000000	-1.000000	-1.000000	239699.000000	1772311137.441046
-16884.090000	-12779.235000	-17897.670000	-12955.365000	0.000000	0.000000	0.000000	0.000000	-5.156862	11.464197	-8.670256	-8.246819	0.000000	0.000000	-0.000000	-0.000000	4.288060	0.167860	-0.106820	0.008423	0.977109	-0.093933	-1.000000	-1.000000	-1.000000	-1.000000	-1.000000	-1.000000	-1.000000	146.758621	0.000000	-1.000000	-1.000000	239700.000000	1772311137.441049
-16888.140000	-12783.240000	-17899.065000	-12949.425000	0.000000	0.000000	0.000000	0.000000	-5.279268	7.185923	-9.438183	-9.777997	0.000000	0.000000	-0.000000	-0.000000	4.288060	0.167860	-0.106820	0.008423	0.977109	-0.093933	-1.000000	-1.000000	-1.000000	-1.000000	-1.000000	-1.000000	-1.000000	146.758621	0.000000	-1.000000	-1.000000	239701.000000	1772311137.446477
-16942.095000	-12784.005000	-17949.960000	-12988.215000	0.000000	0.000000	0.000000	0.000000	-5.266590	0.784188	-8.060858	-8.718343	0.000000	0.000000	-0.000000	-0.000000	4.288060	0.167860	-0.106820	0.008423	0.977109	-0.093933	-1.000000	-1.000000	-1.000000	-1.000000	-1.000000	-1.000000	-1.000000	146.758621	0.000000	-1.000000	-1.000000	239702.000000	1772311137.446480
-16921.215000	-12796.155000	-17927.955000	-12963.555000	0.000000	0.000000	0.000000	0.000000	-6.413580	-4.268024	-6.447430	-5.706224	0.000000	0.000000	-0.000000	-0.000000	4.288060	0.167860	-0.106820	0.008423	0.977109	-0.093933	-1.000000	-1.000000	-1.000000	-1.000000	-1.000000	-1.000000	-1.000000	146.758621	0.000000	-1.000000	-1.000000	239703.000000	1772311137.454643
-16900.020000	-12818.880000	-17908.650000	-12952.665000	0.000000	0.000000	0.000000	0.000000	-6.057293	-6.930083	-3.445957	-0.655746	0.000000	0.000000	-0.000000	-0.000000	4.288060	0.167860	-0.106820	0.008423	0.977109	-0.093933	-1.000000	-1.000000	-1.000000	-1.000000	-1.000000	-1.000000	-1.000000	146.758621	0.000000	-1.000000	-1.000000	239704.000000	1772311137.454647
-16885.845000	-12834.045000	-17895.645000	-12939.120000	0.000000	0.000000	0.000000	0.000000	0.186100	-7.819369	3.837802	6.828383	0.000000	0.000000	-0.000000	-0.000000	3.158820	-0.228900	-0.122080	0.009460	0.976499	-0.096679	-1.000000	-1.000000	-1.000000	-1.000000	-1.000000	-1.000000	-1.000000	146.758621	0.000000	-1.000000	-1.000000	239705.000000	1772311137.454652
-16879.590000	-12831.840000	-17893.125000	-12928.275000	0.000000	0.000000	0.000000	0.000000	10.842225	-6.899512	13.485265	14.237275	0.000000	0.000000	-0.000000	-0.000000	3.158820	-0.228900	-0.122080	0.009460	0.976499	-0.096679	-1.000000	-1.000000	-1.000000	-1.000000	-1.000000	-1.000000	-1.000000	146.758621	0.000000	-1.000000	-1.000000	239706.000000	1772311137.454654
-16906.995000	-12835.395000	-17913.150000	-12955.590000	0.000000	0.000000	0.000000	0.000000	18.290423	-2.991173	18.796164	16.745448	0.000000	0.000000	-0.000000	-0.000000	3.158820	-0.228900	-0.122080	0.009460	0.976499	-0.096679	-1.000000	-1.000000	-1.000000	-1.000000	-1.000000	-1.000000	-1.000000	146.758621	0.000000	-1.000000	-1.000000	239707.000000	1772311137.463859
-16916.805000	-12889.170000	-17907.570000	-12958.830000	0.000000	0.000000	0.000000	0.000000	15.781588	2.771049	14.928705	10.981870	0.000000	0.000000	-0.000000	-0.000000	3.158820	-0.228900	-0.122080	0.009460	0.976499	-0.096679	-1.000000	-1.000000	-1.000000	-1.000000	-1.000000	-1.000000	-1.000000	146.758621	0.000000	-1.000000	-1.000000	239708.000000	1772311137.463864
-16909.470000	-12920.220000	-17908.605000	-12942.405000	0.000000	0.000000	0.000000	0.000000	4.221959	5.667164	3.939170	-0.612841	0.000000	0.000000	-0.000000	-0.000000	3.158820	-0.228900	-0.122080	0.009460	0.976499	-0.096679	-1.000000	-1.000000	-1.000000	-1.000000	-1.000000	-1.000000	-1.000000	146.758621	0.000000	-1.000000	-1.000000	239709.000000	1772311137.463870
-16870.365000	-12917.430000	-17888.265000	-12920.580000	0.000000	0.000000	0.000000	0.000000	-7.531223	3.638771	-6.961425	-10.090003	0.000000	0.000000	-0.000000	-0.000000	3.158820	-0.228900	-0.122080	0.009460	0.976499	-0.096679	-1.000000	-1.000000	-1.000000	-1.000000	-1.000000	-1.000000	-1.000000	146.758621	0.000000	-1.000000	-1.000000	239710.000000	1772311137.463872
-16863.615000	-12901.680000	-17887.455000	-12927.060000	0.000000	0.000000	0.000000	0.000000	-10.744756	1.544070	-11.691472	-11.640759	0.000000	0.000000	-0.000000	-0.000000	3.158820	-0.228900	-0.122080	0.009460	0.976499	-0.096679	-1.000000	-1.000000	-1.000000	-1.000000	-1.000000	-1.000000	-1.000000	146.758621	0.000000	-1.000000	-1.000000	239711.000000	1772311137.465131
-16869.735000	-12909.240000	-17883.270000	-12916.530000	0.000000	0.000000	0.000000	0.000000	-5.418046	4.663520	-9.618888	-6.861876	0.000000	0.000000	-0.000000	-0.000000	3.158820	-0.228900	-0.122080	0.009460	0.976499	-0.096679	-1.000000	-1.000000	-1.000000	-1.000000	-1.000000	-1.000000	-1.000000	146.758621	0.000000	-1.000000	-1.000000	239712.000000	1772311137.465134
-16852.725000	-12952.215000	-17861.445000	-12905.280000	0.000000	0.000000	0.000000	0.000000	1.272705	10.618057	-4.168017	-0.915902	0.000000	0.000000	-0.000000	-0.000000	3.158820	-0.228900	-0.122080	0.009460	0.976499	-0.096679	-1.000000	-1.000000	-1.000000	-1.000000	-1.000000	-1.000000	-1.000000	146.758621	0.000000	-1.000000	-1.000000	239713.000000	1772311137.472388
-16831.620000	-12962.745000	-17840.790000	-12890.340000	0.000000	0.000000	0.000000	0.000000	4.178698	11.993387	1.574183	3.064721	0.000000	0.000000	-0.000000	-0.000000	3.158820	-0.228900	-0.122080	0.009460	0.976499	-0.096679	-1.000000	-1.000000	-1.000000	-1.000000	-1.000000	-1.000000	-1.000000	146.758621	0.000000	-1.000000	-1.000000	239714.000000	1772311137.472392
-16858.845000	-12953.115000	-17865.180000	-12900.285000	0.000000	0.000000	0.000000	0.000000	2.940775	6.471865	5.301638	4.202023	0.000000	0.000000	-0.000000	-0.000000	2.746800	-0.442540	-0.595140	0.009521	0.976987	-0.097839	-1.000000	-1.000000	-1.000000	-1.000000	-1.000000	-1.000000	-1.000000	146.758621	0.000000	-1.000000	-1.000000	239715.000000	1772311137.473126
-16908.705000	-12944.205000	-17920.665000	-12949.065000	0.000000	0.000000	0.000000	0.000000	-2.679941	-0.389576	3.264368	1.273206	0.000000	0.000000	-0.000000	-0.000000	2.746800	-0.442540	-0.595140	0.009521	0.976987	-0.097839	-1.000000	-1.000000	-1.000000	-1.000000	-1.000000	-1.000000	-1.000000	146.758621	0.000000	-1.000000	-1.000000	239716.000000	1772311137.473131
-16912.755000	-12930.210000	-17923.680000	-12957.840000	0.000000	0.000000	0.000000	0.000000	-12.234799	-2.675652	-6.158490	-6.365675	0.000000	0.000000	-0.000000	-0.000000	2.746800	-0.442540	-0.595140	0.009521	0.976987	-0.097839	-1.000000	-1.000000	-1.000000	-1.000000	-1.000000	-1.000000	-1.000000	146.758621	0.000000	-1.000000	-1.000000	239717.000000	1772311137.478419
-16897.545000	-12921.570000	-17893.395000	-12928.635000	0.000000	0.000000	0.000000	0.000000	-19.616261	0.055387	-16.121257	-13.992068	0.000000	0.000000	-0.000000	-0.000000	2.746800	-0.442540	-0.595140	0.009521	0.976987	-0.097839	-1.000000	-1.000000	-1.000000	-1.000000	-1.000000	-1.000000	-1.000000	146.758621	0.000000	-1.000000	-1.000000	239718.000000	1772311137.478422
-16885.620000	-12927.600000	-17870.625000	-12905.775000	0.000000	0.000000	0.000000	0.000000	-16.608831	3.689625	-15.641123	-13.066605	0.000000	0.000000	-0.000000	-0.000000	2.746800	-0.442540	-0.595140	0.009521	0.976987	-0.097839	-1.000000	-1.000000	-1.000000	-1.000000	-1.000000	-1.000000	-1.000000	146.758621	0.000000	-1.000000	-1.000000	239719.000000	1772311137.481227
-16890.570000	-12927.465000	-17888.355000	-12920.040000	0.000000	0.000000	0.000000	0.000000	-2.558314	3.655156	-2.566795	-1.516751	0.000000	0.000000	-0.000000	-0.000000	2.746800	-0.442540	-0.595140	0.009521	0.976987	-0.097839	-1.000000	-1.000000	-1.000000	-1.000000	-1.000000	-1.000000	-1.000000	146.758621	0.000000	-1.000000	-1.000000	239720.000000	1772311137.481230
-16878.915000	-12952.845000	-17886.015000	-12916.620000	0.000000	0.000000	0.000000	0.000000	14.219245	-1.550226	13.215581	12.375260	0.000000	0.000000	-0.000000	-0.000000	2.746800	-0.442540	-0.595140	0.009521	0.976987	-0.097839	-1.000000	-1.000000	-1.000000	-1.000000	-1.000000	-1.000000	-1.000000	146.758621	0.000000	-1.000000	-1.000000	239721.000000	1772311137.486976
-16878.285000	-12992.715000	-17892.405000	-12936.060000	0.000000	0.000000	0.000000	0.000000	24.393764	-10.351506	20.661065	18.630861	0.000000	0.000000	-0.000000	-0.000000	2.746800	-0.442540	-0.595140	0.009521	0.976987	-0.097839	-1.000000	-1.000000	-1.000000	-1.000000	-1.000000	-1.000000	-1.000000	146.758621	0.000000	-1.000000	-1.000000	239722.000000	1772311137.486979
-16882.965000	-13013.730000	-17893.530000	-12945.600000	0.000000	0.000000	0.000000	0.000000	23.844371	-19.350079	16.896137	13.989673	0.000000	0.000000	-0.000000	-0.000000	2.746800	-0.442540	-0.595140	0.009521	0.976987	-0.097839	-1.000000	-1.000000	-1.000000	-1.000000	-1.000000	-1.000000	-1.000000	146.758621	0.000000	-1.000000	-1.000000	239723.000000	1772311137.489085
-16874.955000	-13009.995000	-17883.630000	-12933.405000	0.000000	0.000000	0.000000	0.000000	14.272067	-23.203357	6.626323	2.890994	0.000000	0.000000	-0.000000	-0.000000	2.746800	-0.442540	-0.595140	0.009521	0.976987	-0.097839	-1.000000	-1.000000	-1.000000	-1.000000	-1.000000	-1.000000	-1.000000	146.758621	0.000000	-1.000000	-1.000000	239724.000000	1772311137.489089
-16864.335000	-13010.715000	-17873.055000	-12922.245000	0.000000	0.000000	0.000000	0.000000	1.497470	-17.096603	-2.953171	-6.380966	0.000000	0.000000	-0.000000	-0.000000	3.036740	-0.305200	-0.534100	0.009705	0.978147	-0.097534	-1.000000	-1.000000	-1.000000	-1.000000	-1.000000	-1.000000	-1.000000	146.758621	0.000000	-1.000000	-1.000000	239725.000000	1772311137.493260
-16871.985000	-13027.140000	-17877.555000	-12917.655000	0.000000	0.000000	0.000000	0.000000	-8.427362	-2.183246	-7.381564	-8.314791	0.000000	0.000000	-0.000000	-0.000000	3.036740	-0.305200	-0.534100	0.009705	0.978147	-0.097534	-1.000000	-1.000000	-1.000000	-1.000000	-1.000000	-1.000000	-1.000000	146.758621	0.000000	-1.000000	-1.000000	239726.000000	1772311137.493263
-16910.415000	-13049.955000	-17922.780000	-12973.545000	0.000000	0.000000	0.000000	0.000000	-13.791659	13.511979	-7.992516	-5.054165	0.000000	0.000000	-0.000000	-0.000000	3.036740	-0.305200	-0.534100	0.009705	0.978147	-0.097534	-1.000000	-1.000000	-1.000000	-1.000000	-1.000000	-1.000000	-1.000000	146.758621	0.000000	-1.000000	-1.000000	239727.000000	1772311137.506384
-16869.150000	-13051.800000	-17869.860000	-12917.115000	0.000000	0.000000	0.000000	0.000000	-15.694532	21.725190	-8.046729	-2.300346	0.000000	0.000000	-0.000000	-0.000000	3.036740	-0.305200	-0.534100	0.009705	0.978147	-0.097534	-1.000000	-1.000000	-1.000000	-1.000000	-1.000000	-1.000000	-1.000000	146.758621	0.000000	-1.000000	-1.000000	239728.000000	1772311137.506387
-16806.465000	-13032.180000	-17820.180000	-12887.280000	0.000000	0.000000	0.000000	0.000000	-11.880447	21.003915	-5.456492	-0.000928	0.000000	0.000000	-0.000000	-0.000000	3.036740	-0.305200	-0.534100	0.009705	0.978147	-0.097534	-1.000000	-1.000000	-1.000000	-1.000000	-1.000000	-1.000000	-1.000000	146.758621	0.000000	-1.000000	-1.000000	239729.000000	1772311137.506391
-16864.380000	-13025.025000	-17877.600000	-12943.305000	0.000000	0.000000	0.000000	0.000000	-0.935010	15.966532	2.128602	4.165926	0.000000	0.000000	-0.000000	-0.000000	3.036740	-0.305200	-0.534100	0.009705	0.978147	-0.097534	-1.000000	-1.000000	-1.000000	-1.000000	-1.000000	-1.000000	-1.000000	146.758621	0.000000	-1.000000	-1.000000	239730.000000	1772311137.506394
-16878.465000	-13021.830000	-17886.870000	-12949.515000	0.000000	0.000000	0.000000	0.000000	8.873433	10.664114	7.957042	5.775113	0.000000	0.000000	-0.000000	-0.000000	3.036740	-0.305200	-0.534100	0.009705	0.978147	-0.097534	-1.000000	-1.000000	-1.000000	-1.000000	-1.000000	-1.000000	-1.000000	146.758621	0.000000	-1.000000	-1.000000	239731.000000	1772311137.506398
-16897.275000	-12987.180000	-17906.625000	-12963.915000	0.000000	0.000000	0.000000	0.000000	8.013150	5.967768	4.517879	0.527658	0.000000	0.000000	-0.000000	-0.000000	3.036740	-0.305200	-0.534100	0.009705	0.978147	-0.097534	-1.000000	-1.000000	-1.000000	-1.000000	-1.000000	-1.000000	-1.000000	146.758621	0.000000	-1.000000	-1.000000	239732.000000	1772311137.506400
-16922.880000	-12980.745000	-17928.720000	-12976.695000	0.000000	0.000000	0.000000	0.000000	-2.072437	1.963728	-5.731079	-7.818659	0.000000	0.000000	-0.000000	-0.000000	3.036740	-0.305200	-0.534100	0.009705	0.978147	-0.097534	-1.000000	-1.000000	-1.000000	-1.000000	-1.000000	-1.000000	-1.000000	146.758621	0.000000	-1.000000	-1.000000	239733.000000	1772311137.509241
-16906.680000	-12967.290000	-17907.840000	-12964.455000	0.000000	0.000000	0.000000	0.000000	-12.075299	-1.666276	-14.071108	-12.283005	0.000000	0.000000	-0.000000	-0.000000	3.036740	-0.305200	-0.534100	0.009705	0.978147	-0.097534	-1.000000	-1.000000	-1.000000	-1.000000	-1.000000	-1.000000	-1.000000	146.758621	0.000000	-1.000000	-1.000000	239734.000000	1772311137.509246
-16904.790000	-12931.200000	-17891.460000	-12943.800000	0.000000	0.000000	0.000000	0.000000	-13.411671	-5.325096	-12.937282	-8.554861	0.000000	0.000000	-0.000000	-0.000000	1.815940	0.366240	-0.579880	0.009766	0.976987	-0.099609	-1.000000	-1.000000	-1.000000	-1.000000	-1.000000	-1.000000	-1.000000	146.758621	0.000000	-1.000000	-1.000000	239735.000000	1772311137.514982
-16904.835000	-12895.065000	-17874.495000	-12920.040000	0.000000	0.000000	0.000000	0.000000	-4.429728	-7.563506	-1.300541	2.687441	0.000000	0.000000	-0.000000	-0.000000	1.815940	0.366240	-0.579880	0.009766	0.976987	-0.099609	-1.000000	-1.000000	-1.000000	-1.000000	-1.000000	-1.000000	-1.000000	146.758621	0.000000	-1.000000	-1.000000	239736.000000	1772311137.514984
-16922.340000	-12901.545000	-17880.750000	-12895.965000	0.000000	0.000000	0.000000	0.000000	8.336013	-7.373445	13.693162	15.853051	0.000000	0.000000	-0.000000	-0.000000	1.815940	0.366240	-0.579880	0.009766	0.976987	-0.099609	-1.000000	-1.000000	-1.000000	-1.000000	-1.000000	-1.000000	-1.000000	146.758621	0.000000	-1.000000	-1.000000	239737.000000	1772311137.520283
-16924.050000	-12925.215000	-17882.415000	-12872.160000	0.000000	0.000000	0.000000	0.000000	16.226197	-7.742494	22.041154	23.914025	0.000000	0.000000	-0.000000	-0.000000	1.815940	0.366240	-0.579880	0.009766	0.976987	-0.099609	-1.000000	-1.000000	-1.000000	-1.000000	-1.000000	-1.000000	-1.000000	146.758621	0.000000	-1.000000	-1.000000	239738.000000	1772311137.520285
-16890.750000	-12947.040000	-17895.330000	-12923.415000	0.000000	0.000000	0.000000	0.000000	16.255675	-12.403703	18.531447	21.457689	0.000000	0.000000	-0.000000	-0.000000	1.815940	0.366240	-0.579880	0.009766	0.976987	-0.099609	-1.000000	-1.000000	-1.000000	-1.000000	-1.000000	-1.000000	-1.000000	146.758621	0.000000	-1.000000	-1.000000	239739.000000	1772311137.521107
-16867.035000	-12954.735000	-17899.020000	-12947.490000	0.000000	0.000000	0.000000	0.000000	12.437289	-19.712266	5.775679	6.333780	0.000000	0.000000	-0.000000	-0.000000	1.815940	0.366240	-0.579880	0.009766	0.976987	-0.099609	-1.000000	-1.000000	-1.000000	-1.000000	-1.000000	-1.000000	-1.000000	146.758621	0.000000	-1.000000	-1.000000	239740.000000	1772311137.521109
-16867.620000	-12950.820000	-17897.760000	-12941.370000	0.000000	0.000000	0.000000	0.000000	8.954794	-22.876781	-8.518578	-15.893112	0.000000	0.000000	-0.000000	-0.000000	1.815940	0.366240	-0.579880	0.009766	0.976987	-0.099609	-1.000000	-1.000000	-1.000000	-1.000000	-1.000000	-1.000000	-1.000000	146.758621	0.000000	-1.000000	-1.000000	239741.000000	1772311137.525268
-16870.005000	-12949.920000	-17888.940000	-12940.290000	0.000000	0.000000	0.000000	0.000000	4.988134	-16.432648	-16.689934	-32.061347	0.000000	0.000000	-0.000000	-0.000000	1.815940	0.366240	-0.579880	0.009766	0.976987	-0.099609	-1.000000	-1.000000	-1.000000	-1.000000	-1.000000	-1.000000	-1.000000	146.758621	0.000000	-1.000000	-1.000000	239742.000000	1772311137.525271
-16887.960000	-12935.115000	-17892.270000	-12945.690000	0.000000	0.000000	0.000000	0.000000	-2.130897	-1.330824	-15.643037	-32.272795	0.000000	0.000000	-0.000000	-0.000000	1.815940	0.366240	-0.579880	0.009766	0.976987	-0.099609	-1.000000	-1.000000	-1.000000	-1.000000	-1.000000	-1.000000	-1.000000	146.758621	0.000000	-1.000000	-1.000000	239743.000000	1772311137.529152
-16899.390000	-12940.830000	-17918.100000	-12971.745000	0.000000	0.000000	0.000000	0.000000	-12.035398	15.775773	-8.557759	-18.451702	0.000000	0.000000	-0.000000	-0.000000	1.815940	0.366240	-0.579880	0.009766	0.976987	-0.099609	-1.000000	-1.000000	-1.000000	-1.000000	-1.000000	-1.000000	-1.000000	146.758621	0.000000	-1.000000	-1.000000	239744.000000	1772311137.529155
-16903.935000	-12920.130000	-17941.545000	-12976.155000	0.000000	0.000000	0.000000	0.000000	-20.563221	27.179346	-2.022470	-0.617231	0.000000	0.000000	-0.000000	-0.000000	0.747740	1.464960	-0.488320	0.009827	0.977414	-0.100342	-1.000000	-1.000000	-1.000000	-1.000000	-1.000000	-1.000000	-1.000000	146.758621	0.000000	-1.000000	-1.000000	239745.000000	1772311137.533287
-16882.380000	-12898.485000	-17910.540000	-12946.995000	0.000000	0.000000	0.000000	0.000000	-22.207187	29.234122	0.737240	13.216475	0.000000	0.000000	-0.000000	-0.000000	0.747740	1.464960	-0.488320	0.009827	0.977414	-0.100342	-1.000000	-1.000000	-1.000000	-1.000000	-1.000000	-1.000000	-1.000000	146.758621	0.000000	-1.000000	-1.000000	239746.000000	1772311137.533291
-16840.260000	-12911.400000	-17870.805000	-12915.270000	0.000000	0.000000	0.000000	0.000000	-13.563501	22.949848	3.371974	21.931261	0.000000	0.000000	-0.000000	-0.000000	0.747740	1.464960	-0.488320	0.009827	0.977414	-0.100342	-1.000000	-1.000000	-1.000000	-1.000000	-1.000000	-1.000000	-1.000000	146.758621	0.000000	-1.000000	-1.000000	239747.000000	1772311137.537296
-16839.180000	-12918.420000	-17875.575000	-12908.790000	0.000000	0.000000	0.000000	0.000000	3.022625	10.540540	9.702807	26.604536	0.000000	0.000000	-0.000000	-0.000000	0.747740	1.464960	-0.488320	0.009827	0.977414	-0.100342	-1.000000	-1.000000	-1.000000	-1.000000	-1.000000	-1.000000	-1.000000	146.758621	0.000000	-1.000000	-1.000000	239748.000000	1772311137.537299
-16866.180000	-12931.020000	-17906.850000	-12940.605000	0.000000	0.000000	0.000000	0.000000	17.966884	-4.960910	15.496150	24.773493	0.000000	0.000000	-0.000000	-0.000000	0.747740	1.464960	-0.488320	0.009827	0.977414	-0.100342	-1.000000	-1.000000	-1.000000	-1.000000	-1.000000	-1.000000	-1.000000	146.758621	0.000000	-1.000000	-1.000000	239749.000000	1772311137.541384
-16901.910000	-12935.880000	-17918.235000	-12963.195000	0.000000	0.000000	0.000000	0.000000	20.343237	-18.446779	12.804582	12.800208	0.000000	0.000000	-0.000000	-0.000000	0.747740	1.464960	-0.488320	0.009827	0.977414	-0.100342	-1.000000	-1.000000	-1.000000	-1.000000	-1.000000	-1.000000	-1.000000	146.758621	0.000000	-1.000000	-1.000000	239750.000000	1772311137.541387
-16921.710000	-12919.770000	-17934.840000	-12984.165000	0.000000	0.000000	0.000000	0.000000	7.923629	-24.352635	0.764591	-7.014629	0.000000	0.000000	-0.000000	-0.000000	0.747740	1.464960	-0.488320	0.009827	0.977414	-0.100342	-1.000000	-1.000000	-1.000000	-1.000000	-1.000000	-1.000000	-1.000000	146.758621	0.000000	-1.000000	-1.000000	239751.000000	1772311137.545309
-16878.105000	-12918.330000	-17899.470000	-12952.710000	0.000000	0.000000	0.000000	0.000000	-9.214557	-19.925187	-12.300927	-24.562151	0.000000	0.000000	-0.000000	-0.000000	0.747740	1.464960	-0.488320	0.009827	0.977414	-0.100342	-1.000000	-1.000000	-1.000000	-1.000000	-1.000000	-1.000000	-1.000000	146.758621	0.000000	-1.000000	-1.000000	239752.000000	1772311137.545311
