Channel1	Channel2	Channel3	Channel4	Channel5	Channel6	Channel7	Channel8	FilteredChannel1	FilteredChannel2	FilteredChannel3	FilteredChannel4	FilteredChannel5	FilteredChannel6	FilteredChannel7	FilteredChannel8	GyroX	GyroY	GyroZ	AccX	AccY	AccZ	PPG1	PPG2	rawPPG1	rawPPG2	rawPPG3	Hr	Hrv	Battery	Trigger	PhysicalTrigger	AutoTrigger	NumMeasurements	Timestamp
-15989.940000	-9158.850000	-15757.425000	-12791.745000	0.000000	0.000000	0.000000	0.000000	-6.977053	12.850288	-7.566550	-7.865898	-0.000000	-0.000000	-0.000000	-0.000000	2.441600	0.198380	-0.366240	-0.007996	0.982480	-0.048950	-1.000000	-1.000000	-1.000000	-1.000000	-1.000000	-1.000000	-1.000000	146.482759	0.000000	-1.000000	-1.000000	191578.000000	1772311040.968712
-15990.795000	-9170.235000	-15759.045000	-12795.300000	0.000000	0.000000	0.000000	0.000000	-9.938333	20.619049	-8.412964	-7.834349	-0.000000	-0.000000	-0.000000	-0.000000	2.441600	0.198380	-0.366240	-0.007996	0.982480	-0.048950	-1.000000	-1.000000	-1.000000	-1.000000	-1.000000	-1.000000	-1.000000	146.482759	0.000000	-1.000000	-1.000000	191579.000000	1772311040.968715
-15998.850000	-9173.205000	-15768.720000	-12804.345000	0.000000	0.000000	0.000000	0.000000	-5.625304	14.526514	-3.169110	-2.349620	-0.000000	-0.000000	-0.000000	-0.000000	2.441600	0.198380	-0.366240	-0.007996	0.982480	-0.048950	-1.000000	-1.000000	-1.000000	-1.000000	-1.000000	-1.000000	-1.000000	146.482759	0.000000	-1.000000	-1.000000	191580.000000	1772311040.973738
-16018.290000	-9130.815000	-15790.365000	-12823.020000	0.000000	0.000000	0.000000	0.000000	0.155037	-0.122041	2.033027	2.695682	-0.000000	-0.000000	-0.000000	-0.000000	2.441600	0.198380	-0.366240	-0.007996	0.982480	-0.048950	-1.000000	-1.000000	-1.000000	-1.000000	-1.000000	-1.000000	-1.000000	146.482759	0.000000	-1.000000	-1.000000	191581.000000	1772311040.973741
-16024.995000	-9097.695000	-15799.905000	-12832.200000	0.000000	0.000000	0.000000	0.000000	2.179172	-11.142158	2.549755	3.199890	-0.000000	-0.000000	-0.000000	-0.000000	2.441600	0.198380	-0.366240	-0.007996	0.982480	-0.048950	-1.000000	-1.000000	-1.000000	-1.000000	-1.000000	-1.000000	-1.000000	146.482759	0.000000	-1.000000	-1.000000	191582.000000	1772311040.974887
-16020.135000	-9092.610000	-15796.035000	-12826.530000	0.000000	0.000000	0.000000	0.000000	0.376827	-11.119469	-0.760406	0.144666	-0.000000	-0.000000	-0.000000	-0.000000	2.441600	0.198380	-0.366240	-0.007996	0.982480	-0.048950	-1.000000	-1.000000	-1.000000	-1.000000	-1.000000	-1.000000	-1.000000	146.482759	0.000000	-1.000000	-1.000000	191583.000000	1772311040.974889
-16012.890000	-9092.475000	-15789.645000	-12818.655000	0.000000	0.000000	0.000000	0.000000	-1.339996	-3.830037	-3.190586	-2.077887	-0.000000	-0.000000	-0.000000	-0.000000	2.441600	0.198380	-0.366240	-0.007996	0.982480	-0.048950	-1.000000	-1.000000	-1.000000	-1.000000	-1.000000	-1.000000	-1.000000	146.482759	0.000000	-1.000000	-1.000000	191584.000000	1772311040.980692
-16013.655000	-9078.120000	-15790.005000	-12820.725000	0.000000	0.000000	0.000000	0.000000	-0.031003	2.243931	-1.488498	-0.556993	-0.000000	-0.000000	-0.000000	-0.000000	2.441600	0.198380	-0.366240	-0.007996	0.982480	-0.048950	-1.000000	-1.000000	-1.000000	-1.000000	-1.000000	-1.000000	-1.000000	146.482759	0.000000	-1.000000	-1.000000	191585.000000	1772311040.980696
-16013.880000	-9044.685000	-15786.540000	-12814.785000	0.000000	0.000000	0.000000	0.000000	3.359369	3.628937	3.182440	3.438629	-0.000000	-0.000000	-0.000000	-0.000000	1.693860	0.106820	-0.610400	-0.008179	0.982908	-0.049621	-1.000000	-1.000000	-1.000000	-1.000000	-1.000000	-1.000000	-1.000000	146.482759	0.000000	-1.000000	-1.000000	191586.000000	1772311040.984430
-16028.550000	-9029.205000	-15801.030000	-12828.105000	0.000000	0.000000	0.000000	0.000000	5.555928	2.816608	6.977137	6.378680	-0.000000	-0.000000	-0.000000	-0.000000	1.693860	0.106820	-0.610400	-0.008179	0.982908	-0.049621	-1.000000	-1.000000	-1.000000	-1.000000	-1.000000	-1.000000	-1.000000	146.482759	0.000000	-1.000000	-1.000000	191587.000000	1772311040.984435
-16018.695000	-8979.120000	-15795.450000	-12824.280000	0.000000	0.000000	0.000000	0.000000	4.450037	2.996363	6.909664	5.730938	-0.000000	-0.000000	-0.000000	-0.000000	1.693860	0.106820	-0.610400	-0.008179	0.982908	-0.049621	-1.000000	-1.000000	-1.000000	-1.000000	-1.000000	-1.000000	-1.000000	146.482759	0.000000	-1.000000	-1.000000	191588.000000	1772311040.987896
-16011.765000	-8946.405000	-15790.860000	-12817.980000	0.000000	0.000000	0.000000	0.000000	1.313953	5.192739	3.428214	2.072855	-0.000000	-0.000000	-0.000000	-0.000000	1.693860	0.106820	-0.610400	-0.008179	0.982908	-0.049621	-1.000000	-1.000000	-1.000000	-1.000000	-1.000000	-1.000000	-1.000000	146.482759	0.000000	-1.000000	-1.000000	191589.000000	1772311040.987899
-15988.095000	-8910.405000	-15771.330000	-12799.080000	0.000000	0.000000	0.000000	0.000000	-0.586405	8.012836	-0.178353	-1.374365	-0.000000	-0.000000	-0.000000	-0.000000	1.693860	0.106820	-0.610400	-0.008179	0.982908	-0.049621	-1.000000	-1.000000	-1.000000	-1.000000	-1.000000	-1.000000	-1.000000	146.482759	0.000000	-1.000000	-1.000000	191590.000000	1772311040.991318
-15980.445000	-8907.345000	-15763.500000	-12789.900000	0.000000	0.000000	0.000000	0.000000	0.486941	8.069761	-1.149317	-1.915520	-0.000000	-0.000000	-0.000000	-0.000000	1.693860	0.106820	-0.610400	-0.008179	0.982908	-0.049621	-1.000000	-1.000000	-1.000000	-1.000000	-1.000000	-1.000000	-1.000000	146.482759	0.000000	-1.000000	-1.000000	191591.000000	1772311040.991321
-16013.565000	-8951.355000	-15793.740000	-12814.830000	0.000000	0.000000	0.000000	0.000000	2.245287	1.508200	-0.428718	-0.522480	-0.000000	-0.000000	-0.000000	-0.000000	1.693860	0.106820	-0.610400	-0.008179	0.982908	-0.049621	-1.000000	-1.000000	-1.000000	-1.000000	-1.000000	-1.000000	-1.000000	146.482759	0.000000	-1.000000	-1.000000	191592.000000	1772311040.997126
-16007.490000	-8998.740000	-15785.820000	-12803.220000	0.000000	0.000000	0.000000	0.000000	0.422114	-13.151167	-1.527575	-0.686744	-0.000000	-0.000000	-0.000000	-0.000000	1.693860	0.106820	-0.610400	-0.008179	0.982908	-0.049621	-1.000000	-1.000000	-1.000000	-1.000000	-1.000000	-1.000000	-1.000000	146.482759	0.000000	-1.000000	-1.000000	191593.000000	1772311040.997128
-15987.555000	-9005.895000	-15765.615000	-12783.555000	0.000000	0.000000	0.000000	0.000000	-4.721589	-30.585127	-4.660646	-2.918462	-0.000000	-0.000000	-0.000000	-0.000000	1.693860	0.106820	-0.610400	-0.008179	0.982908	-0.049621	-1.000000	-1.000000	-1.000000	-1.000000	-1.000000	-1.000000	-1.000000	146.482759	0.000000	-1.000000	-1.000000	191594.000000	1772311040.999038
-16015.050000	-9021.780000	-15793.110000	-12815.145000	0.000000	0.000000	0.000000	0.000000	-8.395150	-39.234164	-6.413211	-4.581274	-0.000000	-0.000000	-0.000000	-0.000000	1.693860	0.106820	-0.610400	-0.008179	0.982908	-0.049621	-1.000000	-1.000000	-1.000000	-1.000000	-1.000000	-1.000000	-1.000000	146.482759	0.000000	-1.000000	-1.000000	191595.000000	1772311040.999041
-16017.795000	-9049.815000	-15799.365000	-12823.470000	0.000000	0.000000	0.000000	0.000000	-8.511412	-31.240604	-5.922186	-5.340706	-0.000000	-0.000000	-0.000000	-0.000000	1.434440	0.213640	-0.549360	-0.008179	0.983335	-0.048401	-1.000000	-1.000000	-1.000000	-1.000000	-1.000000	-1.000000	-1.000000	146.482759	0.000000	-1.000000	-1.000000	191596.000000	1772311041.003167
-16012.305000	-9051.255000	-15793.155000	-12811.275000	0.000000	0.000000	0.000000	0.000000	-6.271328	-9.692608	-4.665938	-6.009606	-0.000000	-0.000000	-0.000000	-0.000000	1.434440	0.213640	-0.549360	-0.008179	0.983335	-0.048401	-1.000000	-1.000000	-1.000000	-1.000000	-1.000000	-1.000000	-1.000000	146.482759	0.000000	-1.000000	-1.000000	191597.000000	1772311041.003170
-16008.255000	-9038.880000	-15790.995000	-12810.510000	0.000000	0.000000	0.000000	0.000000	-2.207411	15.910613	-2.412722	-4.858760	-0.000000	-0.000000	-0.000000	-0.000000	1.434440	0.213640	-0.549360	-0.008179	0.983335	-0.048401	-1.000000	-1.000000	-1.000000	-1.000000	-1.000000	-1.000000	-1.000000	146.482759	0.000000	-1.000000	-1.000000	191598.000000	1772311041.006938
-15999.390000	-9026.415000	-15785.910000	-12807.720000	0.000000	0.000000	0.000000	0.000000	3.273956	36.763015	1.499869	-0.559643	-0.000000	-0.000000	-0.000000	-0.000000	1.434440	0.213640	-0.549360	-0.008179	0.983335	-0.048401	-1.000000	-1.000000	-1.000000	-1.000000	-1.000000	-1.000000	-1.000000	146.482759	0.000000	-1.000000	-1.000000	191599.000000	1772311041.006941
-15995.295000	-9045.405000	-15780.780000	-12800.970000	0.000000	0.000000	0.000000	0.000000	8.418514	46.355409	5.945354	5.089151	-0.000000	-0.000000	-0.000000	-0.000000	1.434440	0.213640	-0.549360	-0.008179	0.983335	-0.048401	-1.000000	-1.000000	-1.000000	-1.000000	-1.000000	-1.000000	-1.000000	146.482759	0.000000	-1.000000	-1.000000	191600.000000	1772311041.010924
-15988.770000	-9075.645000	-15774.795000	-12795.795000	0.000000	0.000000	0.000000	0.000000	10.990583	40.567245	8.891481	9.205015	-0.000000	-0.000000	-0.000000	-0.000000	1.434440	0.213640	-0.549360	-0.008179	0.983335	-0.048401	-1.000000	-1.000000	-1.000000	-1.000000	-1.000000	-1.000000	-1.000000	146.482759	0.000000	-1.000000	-1.000000	191601.000000	1772311041.010926
-15983.820000	-9072.720000	-15773.490000	-12796.695000	0.000000	0.000000	0.000000	0.000000	9.808955	21.037659	8.912967	9.932902	-0.000000	-0.000000	-0.000000	-0.000000	1.434440	0.213640	-0.549360	-0.008179	0.983335	-0.048401	-1.000000	-1.000000	-1.000000	-1.000000	-1.000000	-1.000000	-1.000000	146.482759	0.000000	-1.000000	-1.000000	191602.000000	1772311041.014984
-15997.095000	-9086.130000	-15781.185000	-12798.990000	0.000000	0.000000	0.000000	0.000000	5.172819	-2.960971	5.688582	6.891454	-0.000000	-0.000000	-0.000000	-0.000000	1.434440	0.213640	-0.549360	-0.008179	0.983335	-0.048401	-1.000000	-1.000000	-1.000000	-1.000000	-1.000000	-1.000000	-1.000000	146.482759	0.000000	-1.000000	-1.000000	191603.000000	1772311041.014987
-16004.610000	-9118.755000	-15786.495000	-12802.545000	0.000000	0.000000	0.000000	0.000000	-1.747615	-20.938180	0.013517	1.244072	-0.000000	-0.000000	-0.000000	-0.000000	1.434440	0.213640	-0.549360	-0.008179	0.983335	-0.048401	-1.000000	-1.000000	-1.000000	-1.000000	-1.000000	-1.000000	-1.000000	146.482759	0.000000	-1.000000	-1.000000	191604.000000	1772311041.018985
-16003.530000	-9145.530000	-15788.340000	-12805.245000	0.000000	0.000000	0.000000	0.000000	-8.613706	-28.599690	-6.018108	-4.666362	-0.000000	-0.000000	-0.000000	-0.000000	1.434440	0.213640	-0.549360	-0.008179	0.983335	-0.048401	-1.000000	-1.000000	-1.000000	-1.000000	-1.000000	-1.000000	-1.000000	146.482759	0.000000	-1.000000	-1.000000	191605.000000	1772311041.018987
-15983.415000	-9157.185000	-15770.520000	-12785.355000	0.000000	0.000000	0.000000	0.000000	-11.744500	-26.863000	-9.303826	-8.041561	-0.000000	-0.000000	-0.000000	-0.000000	2.258480	0.457800	-0.656180	-0.008850	0.983396	-0.047180	-1.000000	-1.000000	-1.000000	-1.000000	-1.000000	-1.000000	-1.000000	146.482759	0.000000	-1.000000	-1.000000	191606.000000	1772311041.022999
-15976.665000	-9178.020000	-15768.540000	-12782.295000	0.000000	0.000000	0.000000	0.000000	-8.577973	-18.021284	-7.606165	-6.898537	-0.000000	-0.000000	-0.000000	-0.000000	2.258480	0.457800	-0.656180	-0.008850	0.983396	-0.047180	-1.000000	-1.000000	-1.000000	-1.000000	-1.000000	-1.000000	-1.000000	146.482759	0.000000	-1.000000	-1.000000	191607.000000	1772311041.023002
-15986.115000	-9178.605000	-15780.870000	-12800.565000	0.000000	0.000000	0.000000	0.000000	-1.045279	-5.156841	-2.296307	-2.529181	-0.000000	-0.000000	-0.000000	-0.000000	2.258480	0.457800	-0.656180	-0.008850	0.983396	-0.047180	-1.000000	-1.000000	-1.000000	-1.000000	-1.000000	-1.000000	-1.000000	146.482759	0.000000	-1.000000	-1.000000	191608.000000	1772311041.027031
-15988.905000	-9191.835000	-15781.680000	-12796.470000	0.000000	0.000000	0.000000	0.000000	5.278180	7.843362	2.280084	0.948312	-0.000000	-0.000000	-0.000000	-0.000000	2.258480	0.457800	-0.656180	-0.008850	0.983396	-0.047180	-1.000000	-1.000000	-1.000000	-1.000000	-1.000000	-1.000000	-1.000000	146.482759	0.000000	-1.000000	-1.000000	191609.000000	1772311041.027035
-15980.490000	-9214.920000	-15768.450000	-12782.970000	0.000000	0.000000	0.000000	0.000000	6.673552	16.804091	3.627933	1.626189	-0.000000	-0.000000	-0.000000	-0.000000	2.258480	0.457800	-0.656180	-0.008850	0.983396	-0.047180	-1.000000	-1.000000	-1.000000	-1.000000	-1.000000	-1.000000	-1.000000	146.482759	0.000000	-1.000000	-1.000000	191610.000000	1772311041.030899
-15997.455000	-9198.315000	-15783.570000	-12803.940000	0.000000	0.000000	0.000000	0.000000	3.901674	19.093704	2.785382	0.974071	-0.000000	-0.000000	-0.000000	-0.000000	2.258480	0.457800	-0.656180	-0.008850	0.983396	-0.047180	-1.000000	-1.000000	-1.000000	-1.000000	-1.000000	-1.000000	-1.000000	146.482759	0.000000	-1.000000	-1.000000	191611.000000	1772311041.030903
-16000.605000	-9192.420000	-15786.900000	-12803.940000	0.000000	0.000000	0.000000	0.000000	-0.563444	16.194209	1.058841	-0.060163	-0.000000	-0.000000	-0.000000	-0.000000	2.258480	0.457800	-0.656180	-0.008850	0.983396	-0.047180	-1.000000	-1.000000	-1.000000	-1.000000	-1.000000	-1.000000	-1.000000	146.482759	0.000000	-1.000000	-1.000000	191612.000000	1772311041.039462
-15992.865000	-9171.855000	-15783.255000	-12795.975000	0.000000	0.000000	0.000000	0.000000	-4.244761	11.890279	-0.944380	-1.188179	-0.000000	-0.000000	-0.000000	-0.000000	2.258480	0.457800	-0.656180	-0.008850	0.983396	-0.047180	-1.000000	-1.000000	-1.000000	-1.000000	-1.000000	-1.000000	-1.000000	146.482759	0.000000	-1.000000	-1.000000	191613.000000	1772311041.039465
-16010.145000	-9143.145000	-15801.255000	-12809.565000	0.000000	0.000000	0.000000	0.000000	-5.125598	8.526701	-2.317621	-1.353199	-0.000000	-0.000000	-0.000000	-0.000000	2.258480	0.457800	-0.656180	-0.008850	0.983396	-0.047180	-1.000000	-1.000000	-1.000000	-1.000000	-1.000000	-1.000000	-1.000000	146.482759	0.000000	-1.000000	-1.000000	191614.000000	1772311041.040047
-15990.120000	-9106.155000	-15783.975000	-12793.545000	0.000000	0.000000	0.000000	0.000000	-3.036840	6.534331	-2.420628	-0.173358	-0.000000	-0.000000	-0.000000	-0.000000	2.258480	0.457800	-0.656180	-0.008850	0.983396	-0.047180	-1.000000	-1.000000	-1.000000	-1.000000	-1.000000	-1.000000	-1.000000	146.482759	0.000000	-1.000000	-1.000000	191615.000000	1772311041.040049
-15974.415000	-9130.140000	-15766.515000	-12777.930000	0.000000	0.000000	0.000000	0.000000	1.247094	4.128431	-0.489922	2.185715	-0.000000	-0.000000	-0.000000	-0.000000	3.006220	-0.015260	-0.457800	-0.008911	0.982847	-0.046265	-1.000000	-1.000000	-1.000000	-1.000000	-1.000000	-1.000000	-1.000000	146.482759	0.000000	-1.000000	-1.000000	191616.000000	1772311041.043097
-16000.740000	-9136.440000	-15792.435000	-12801.555000	0.000000	0.000000	0.000000	0.000000	6.026477	-2.494917	3.205813	4.880264	-0.000000	-0.000000	-0.000000	-0.000000	3.006220	-0.015260	-0.457800	-0.008911	0.982847	-0.046265	-1.000000	-1.000000	-1.000000	-1.000000	-1.000000	-1.000000	-1.000000	146.482759	0.000000	-1.000000	-1.000000	191617.000000	1772311041.043100
-16019.865000	-9094.590000	-15811.695000	-12821.265000	0.000000	0.000000	0.000000	0.000000	7.244395	-13.286237	5.033315	4.857802	-0.000000	-0.000000	-0.000000	-0.000000	3.006220	-0.015260	-0.457800	-0.008911	0.982847	-0.046265	-1.000000	-1.000000	-1.000000	-1.000000	-1.000000	-1.000000	-1.000000	146.482759	0.000000	-1.000000	-1.000000	191618.000000	1772311041.047028
-16007.445000	-9107.145000	-15797.610000	-12811.455000	0.000000	0.000000	0.000000	0.000000	2.796630	-21.592897	2.225509	0.388243	-0.000000	-0.000000	-0.000000	-0.000000	3.006220	-0.015260	-0.457800	-0.008911	0.982847	-0.046265	-1.000000	-1.000000	-1.000000	-1.000000	-1.000000	-1.000000	-1.000000	146.482759	0.000000	-1.000000	-1.000000	191619.000000	1772311041.047031
-16004.745000	-9135.270000	-15794.280000	-12811.770000	0.000000	0.000000	0.000000	0.000000	-3.287356	-22.859219	-2.213328	-5.036599	-0.000000	-0.000000	-0.000000	-0.000000	3.006220	-0.015260	-0.457800	-0.008911	0.982847	-0.046265	-1.000000	-1.000000	-1.000000	-1.000000	-1.000000	-1.000000	-1.000000	146.482759	0.000000	-1.000000	-1.000000	191620.000000	1772311041.058196
-16002.225000	-9133.515000	-15792.390000	-12808.845000	0.000000	0.000000	0.000000	0.000000	-5.571334	-19.225932	-3.603294	-6.619494	-0.000000	-0.000000	-0.000000	-0.000000	3.006220	-0.015260	-0.457800	-0.008911	0.982847	-0.046265	-1.000000	-1.000000	-1.000000	-1.000000	-1.000000	-1.000000	-1.000000	146.482759	0.000000	-1.000000	-1.000000	191621.000000	1772311041.058199
-16003.890000	-9126.405000	-15790.365000	-12800.520000	0.000000	0.000000	0.000000	0.000000	-3.147175	-13.009041	-1.264991	-3.365068	-0.000000	-0.000000	-0.000000	-0.000000	3.006220	-0.015260	-0.457800	-0.008911	0.982847	-0.046265	-1.000000	-1.000000	-1.000000	-1.000000	-1.000000	-1.000000	-1.000000	146.482759	0.000000	-1.000000	-1.000000	191622.000000	1772311041.058202
-16019.505000	-9134.550000	-15811.290000	-12821.445000	0.000000	0.000000	0.000000	0.000000	0.723820	-4.217017	1.788105	1.824710	-0.000000	-0.000000	-0.000000	-0.000000	3.006220	-0.015260	-0.457800	-0.008911	0.982847	-0.046265	-1.000000	-1.000000	-1.000000	-1.000000	-1.000000	-1.000000	-1.000000	146.482759	0.000000	-1.000000	-1.000000	191623.000000	1772311041.058204
-16002.765000	-9162.990000	-15798.240000	-12811.500000	0.000000	0.000000	0.000000	0.000000	2.734101	5.129250	2.502784	4.932658	-0.000000	-0.000000	-0.000000	-0.000000	3.006220	-0.015260	-0.457800	-0.008911	0.982847	-0.046265	-1.000000	-1.000000	-1.000000	-1.000000	-1.000000	-1.000000	-1.000000	146.482759	0.000000	-1.000000	-1.000000	191624.000000	1772311041.067200
-15982.470000	-9166.050000	-15773.895000	-12784.680000	0.000000	0.000000	0.000000	0.000000	3.091415	10.920726	1.467720	5.041066	-0.000000	-0.000000	-0.000000	-0.000000	3.006220	-0.015260	-0.457800	-0.008911	0.982847	-0.046265	-1.000000	-1.000000	-1.000000	-1.000000	-1.000000	-1.000000	-1.000000	146.482759	0.000000	-1.000000	-1.000000	191625.000000	1772311041.067203
-15976.260000	-9192.780000	-15763.275000	-12769.470000	0.000000	0.000000	0.000000	0.000000	3.996036	11.409439	1.833613	4.880599	-0.000000	-0.000000	-0.000000	-0.000000	3.479280	0.320460	-0.396760	-0.009338	0.983091	-0.045410	-1.000000	-1.000000	-1.000000	-1.000000	-1.000000	-1.000000	-1.000000	146.482759	0.000000	-1.000000	-1.000000	191626.000000	1772311041.067210
-15998.040000	-9221.985000	-15783.795000	-12785.400000	0.000000	0.000000	0.000000	0.000000	4.841197	7.870168	3.659695	5.428055	-0.000000	-0.000000	-0.000000	-0.000000	3.479280	0.320460	-0.396760	-0.009338	0.983091	-0.045410	-1.000000	-1.000000	-1.000000	-1.000000	-1.000000	-1.000000	-1.000000	146.482759	0.000000	-1.000000	-1.000000	191627.000000	1772311041.067212
-16003.305000	-9249.615000	-15790.995000	-12802.365000	0.000000	0.000000	0.000000	0.000000	2.452678	2.393932	3.072854	3.554230	-0.000000	-0.000000	-0.000000	-0.000000	3.479280	0.320460	-0.396760	-0.009338	0.983091	-0.045410	-1.000000	-1.000000	-1.000000	-1.000000	-1.000000	-1.000000	-1.000000	146.482759	0.000000	-1.000000	-1.000000	191628.000000	1772311041.068679
-15985.440000	-9286.785000	-15771.555000	-12785.400000	0.000000	0.000000	0.000000	0.000000	-3.226051	-2.749931	-1.415456	-2.489206	-0.000000	-0.000000	-0.000000	-0.000000	3.479280	0.320460	-0.396760	-0.009338	0.983091	-0.045410	-1.000000	-1.000000	-1.000000	-1.000000	-1.000000	-1.000000	-1.000000	146.482759	0.000000	-1.000000	-1.000000	191629.000000	1772311041.068683
-15997.185000	-9312.795000	-15782.895000	-12794.040000	0.000000	0.000000	0.000000	0.000000	-7.893032	-5.571201	-6.198597	-9.072979	-0.000000	-0.000000	-0.000000	-0.000000	3.479280	0.320460	-0.396760	-0.009338	0.983091	-0.045410	-1.000000	-1.000000	-1.000000	-1.000000	-1.000000	-1.000000	-1.000000	146.482759	0.000000	-1.000000	-1.000000	191630.000000	1772311041.071165
-15992.145000	-9336.870000	-15779.655000	-12789.990000	0.000000	0.000000	0.000000	0.000000	-8.398582	-4.896960	-7.769612	-11.533454	-0.000000	-0.000000	-0.000000	-0.000000	3.479280	0.320460	-0.396760	-0.009338	0.983091	-0.045410	-1.000000	-1.000000	-1.000000	-1.000000	-1.000000	-1.000000	-1.000000	146.482759	0.000000	-1.000000	-1.000000	191631.000000	1772311041.071167
-15984.540000	-9340.605000	-15775.065000	-12786.075000	0.000000	0.000000	0.000000	0.000000	-5.182563	-0.424133	-5.914758	-8.783766	-0.000000	-0.000000	-0.000000	-0.000000	3.479280	0.320460	-0.396760	-0.009338	0.983091	-0.045410	-1.000000	-1.000000	-1.000000	-1.000000	-1.000000	-1.000000	-1.000000	146.482759	0.000000	-1.000000	-1.000000	191632.000000	1772311041.076602
-15985.665000	-9305.505000	-15777.000000	-12788.280000	0.000000	0.000000	0.000000	0.000000	-0.204368	7.665333	-2.061860	-2.803532	-0.000000	-0.000000	-0.000000	-0.000000	3.479280	0.320460	-0.396760	-0.009338	0.983091	-0.045410	-1.000000	-1.000000	-1.000000	-1.000000	-1.000000	-1.000000	-1.000000	146.482759	0.000000	-1.000000	-1.000000	191633.000000	1772311041.076606
-15985.620000	-9265.320000	-15773.040000	-12786.030000	0.000000	0.000000	0.000000	0.000000	4.088620	18.652649	1.890215	3.203143	-0.000000	-0.000000	-0.000000	-0.000000	3.479280	0.320460	-0.396760	-0.009338	0.983091	-0.045410	-1.000000	-1.000000	-1.000000	-1.000000	-1.000000	-1.000000	-1.000000	146.482759	0.000000	-1.000000	-1.000000	191634.000000	1772311041.080495
-16000.020000	-9219.870000	-15788.070000	-12800.025000	0.000000	0.000000	0.000000	0.000000	5.462998	29.471610	4.082734	6.436025	-0.000000	-0.000000	-0.000000	-0.000000	3.479280	0.320460	-0.396760	-0.009338	0.983091	-0.045410	-1.000000	-1.000000	-1.000000	-1.000000	-1.000000	-1.000000	-1.000000	146.482759	0.000000	-1.000000	-1.000000	191635.000000	1772311041.080498
-15993.675000	-9204.975000	-15779.970000	-12793.185000	0.000000	0.000000	0.000000	0.000000	3.428193	33.996495	3.669635	5.932057	-0.000000	-0.000000	-0.000000	-0.000000	3.296160	0.259420	-0.305200	-0.008972	0.983396	-0.046570	-1.000000	-1.000000	-1.000000	-1.000000	-1.000000	-1.000000	-1.000000	146.482759	0.000000	-1.000000	-1.000000	191636.000000	1772311041.084846
-15985.215000	-9218.520000	-15770.655000	-12786.705000	0.000000	0.000000	0.000000	0.000000	0.157933	25.895353	1.900374	3.317933	-0.000000	-0.000000	-0.000000	-0.000000	3.296160	0.259420	-0.305200	-0.008972	0.983396	-0.046570	-1.000000	-1.000000	-1.000000	-1.000000	-1.000000	-1.000000	-1.000000	146.482759	0.000000	-1.000000	-1.000000	191637.000000	1772311041.084849
-16009.245000	-9226.575000	-15795.225000	-12806.595000	0.000000	0.000000	0.000000	0.000000	-1.779510	3.910583	0.588524	0.938057	-0.000000	-0.000000	-0.000000	-0.000000	3.296160	0.259420	-0.305200	-0.008972	0.983396	-0.046570	-1.000000	-1.000000	-1.000000	-1.000000	-1.000000	-1.000000	-1.000000	146.482759	0.000000	-1.000000	-1.000000	191638.000000	1772311041.087254
-16011.720000	-9238.005000	-15799.860000	-12806.730000	0.000000	0.000000	0.000000	0.000000	-2.487316	-24.494082	-0.628848	-0.848158	-0.000000	-0.000000	-0.000000	-0.000000	3.296160	0.259420	-0.305200	-0.008972	0.983396	-0.046570	-1.000000	-1.000000	-1.000000	-1.000000	-1.000000	-1.000000	-1.000000	146.482759	0.000000	-1.000000	-1.000000	191639.000000	1772311041.087257
-15987.330000	-9245.340000	-15774.840000	-12784.320000	0.000000	0.000000	0.000000	0.000000	-2.472375	-46.537427	-1.972980	-1.918018	-0.000000	-0.000000	-0.000000	-0.000000	3.296160	0.259420	-0.305200	-0.008972	0.983396	-0.046570	-1.000000	-1.000000	-1.000000	-1.000000	-1.000000	-1.000000	-1.000000	146.482759	0.000000	-1.000000	-1.000000	191640.000000	1772311041.092607
-15991.605000	-9234.855000	-15784.155000	-12795.345000	0.000000	0.000000	0.000000	0.000000	-0.446928	-52.076855	-1.475991	-0.982718	-0.000000	-0.000000	-0.000000	-0.000000	3.296160	0.259420	-0.305200	-0.008972	0.983396	-0.046570	-1.000000	-1.000000	-1.000000	-1.000000	-1.000000	-1.000000	-1.000000	146.482759	0.000000	-1.000000	-1.000000	191641.000000	1772311041.092610
-15998.490000	-9216.225000	-15789.555000	-12802.995000	0.000000	0.000000	0.000000	0.000000	3.129096	-38.731557	1.051361	1.236111	-0.000000	-0.000000	-0.000000	-0.000000	3.296160	0.259420	-0.305200	-0.008972	0.983396	-0.046570	-1.000000	-1.000000	-1.000000	-1.000000	-1.000000	-1.000000	-1.000000	146.482759	0.000000	-1.000000	-1.000000	191642.000000	1772311041.098946
-15994.215000	-9221.220000	-15784.290000	-12795.525000	0.000000	0.000000	0.000000	0.000000	5.180092	-12.881907	3.001507	2.172197	-0.000000	-0.000000	-0.000000	-0.000000	3.296160	0.259420	-0.305200	-0.008972	0.983396	-0.046570	-1.000000	-1.000000	-1.000000	-1.000000	-1.000000	-1.000000	-1.000000	146.482759	0.000000	-1.000000	-1.000000	191643.000000	1772311041.098949
-15995.655000	-9242.955000	-15784.695000	-12798.540000	0.000000	0.000000	0.000000	0.000000	4.134623	12.811356	2.954316	1.255239	-0.000000	-0.000000	-0.000000	-0.000000	3.296160	0.259420	-0.305200	-0.008972	0.983396	-0.046570	-1.000000	-1.000000	-1.000000	-1.000000	-1.000000	-1.000000	-1.000000	146.482759	0.000000	-1.000000	-1.000000	191644.000000	1772311041.098954
-16000.785000	-9250.065000	-15789.645000	-12806.415000	0.000000	0.000000	0.000000	0.000000	1.065809	26.717064	1.498663	-0.354045	-0.000000	-0.000000	-0.000000	-0.000000	3.296160	0.259420	-0.305200	-0.008972	0.983396	-0.046570	-1.000000	-1.000000	-1.000000	-1.000000	-1.000000	-1.000000	-1.000000	146.482759	0.000000	-1.000000	-1.000000	191645.000000	1772311041.098956
-15991.920000	-9261.000000	-15779.835000	-12793.635000	0.000000	0.000000	0.000000	0.000000	-2.108468	25.830272	-0.325400	-1.670396	-0.000000	-0.000000	-0.000000	-0.000000	2.853620	-0.244160	-0.763000	-0.008667	0.982786	-0.047790	-1.000000	-1.000000	-1.000000	-1.000000	-1.000000	-1.000000	-1.000000	146.482759	0.000000	-1.000000	-1.000000	191646.000000	1772311041.103164
-15961.005000	-9264.780000	-15744.870000	-12755.430000	0.000000	0.000000	0.000000	0.000000	-3.086681	15.775423	-0.775052	-1.056917	-0.000000	-0.000000	-0.000000	-0.000000	2.853620	-0.244160	-0.763000	-0.008667	0.982786	-0.047790	-1.000000	-1.000000	-1.000000	-1.000000	-1.000000	-1.000000	-1.000000	146.482759	0.000000	-1.000000	-1.000000	191647.000000	1772311041.103167
-15954.795000	-9277.740000	-15743.565000	-12755.295000	0.000000	0.000000	0.000000	0.000000	-0.372200	4.544053	1.590117	2.729513	-0.000000	-0.000000	-0.000000	-0.000000	2.853620	-0.244160	-0.763000	-0.008667	0.982786	-0.047790	-1.000000	-1.000000	-1.000000	-1.000000	-1.000000	-1.000000	-1.000000	146.482759	0.000000	-1.000000	-1.000000	191648.000000	1772311041.107133
-15988.275000	-9305.145000	-15776.955000	-12785.805000	0.000000	0.000000	0.000000	0.000000	3.388781	-3.133211	4.207598	6.473506	-0.000000	-0.000000	-0.000000	-0.000000	2.853620	-0.244160	-0.763000	-0.008667	0.982786	-0.047790	-1.000000	-1.000000	-1.000000	-1.000000	-1.000000	-1.000000	-1.000000	146.482759	0.000000	-1.000000	-1.000000	191649.000000	1772311041.107135
-16009.380000	-9308.070000	-15798.780000	-12804.390000	0.000000	0.000000	0.000000	0.000000	2.415258	-6.601588	1.647810	4.188711	-0.000000	-0.000000	-0.000000	-0.000000	2.853620	-0.244160	-0.763000	-0.008667	0.982786	-0.047790	-1.000000	-1.000000	-1.000000	-1.000000	-1.000000	-1.000000	-1.000000	146.482759	0.000000	-1.000000	-1.000000	191650.000000	1772311041.111186
-15987.465000	-9297.855000	-15776.280000	-12787.965000	0.000000	0.000000	0.000000	0.000000	-4.337337	-6.002895	-6.344797	-4.473028	-0.000000	-0.000000	-0.000000	-0.000000	2.853620	-0.244160	-0.763000	-0.008667	0.982786	-0.047790	-1.000000	-1.000000	-1.000000	-1.000000	-1.000000	-1.000000	-1.000000	146.482759	0.000000	-1.000000	-1.000000	191651.000000	1772311041.111189
-15984.495000	-9278.055000	-15770.835000	-12787.020000	0.000000	0.000000	0.000000	0.000000	-10.217133	-0.878682	-12.426064	-12.176039	-0.000000	-0.000000	-0.000000	-0.000000	2.853620	-0.244160	-0.763000	-0.008667	0.982786	-0.047790	-1.000000	-1.000000	-1.000000	-1.000000	-1.000000	-1.000000	-1.000000	146.482759	0.000000	-1.000000	-1.000000	191652.000000	1772311041.115228
-15993.360000	-9256.140000	-15775.785000	-12787.470000	0.000000	0.000000	0.000000	0.000000	-9.283880	7.597129	-10.515610	-12.373804	-0.000000	-0.000000	-0.000000	-0.000000	2.853620	-0.244160	-0.763000	-0.008667	0.982786	-0.047790	-1.000000	-1.000000	-1.000000	-1.000000	-1.000000	-1.000000	-1.000000	146.482759	0.000000	-1.000000	-1.000000	191653.000000	1772311041.115231
-16011.675000	-9243.630000	-15793.920000	-12805.290000	0.000000	0.000000	0.000000	0.000000	-3.238249	15.421613	-2.823271	-5.951056	-0.000000	-0.000000	-0.000000	-0.000000	2.853620	-0.244160	-0.763000	-0.008667	0.982786	-0.047790	-1.000000	-1.000000	-1.000000	-1.000000	-1.000000	-1.000000	-1.000000	146.482759	0.000000	-1.000000	-1.000000	191654.000000	1772311041.119246
-16008.705000	-9239.130000	-15794.820000	-12810.330000	0.000000	0.000000	0.000000	0.000000	2.448208	17.625117	4.113858	1.407939	-0.000000	-0.000000	-0.000000	-0.000000	2.853620	-0.244160	-0.763000	-0.008667	0.982786	-0.047790	-1.000000	-1.000000	-1.000000	-1.000000	-1.000000	-1.000000	-1.000000	146.482759	0.000000	-1.000000	-1.000000	191655.000000	1772311041.119250
-16019.505000	-9243.540000	-15807.240000	-12818.340000	0.000000	0.000000	0.000000	0.000000	5.008240	11.527763	6.574286	5.438734	-0.000000	-0.000000	-0.000000	-0.000000	2.807840	0.183120	-0.625660	-0.009094	0.983152	-0.048157	-1.000000	-1.000000	-1.000000	-1.000000	-1.000000	-1.000000	-1.000000	146.482759	0.000000	-1.000000	-1.000000	191656.000000	1772311041.123287
-16001.010000	-9250.290000	-15790.635000	-12797.505000	0.000000	0.000000	0.000000	0.000000	5.381867	-1.167697	5.562261	6.274096	-0.000000	-0.000000	-0.000000	-0.000000	2.807840	0.183120	-0.625660	-0.009094	0.983152	-0.048157	-1.000000	-1.000000	-1.000000	-1.000000	-1.000000	-1.000000	-1.000000	146.482759	0.000000	-1.000000	-1.000000	191657.000000	1772311041.123290
-15986.610000	-9275.490000	-15778.125000	-12788.460000	0.000000	0.000000	0.000000	0.000000	5.957576	-15.402140	4.499271	6.739816	-0.000000	-0.000000	-0.000000	-0.000000	2.807840	0.183120	-0.625660	-0.009094	0.983152	-0.048157	-1.000000	-1.000000	-1.000000	-1.000000	-1.000000	-1.000000	-1.000000	146.482759	0.000000	-1.000000	-1.000000	191658.000000	1772311041.127284
-16006.680000	-9284.715000	-15795.855000	-12809.115000	0.000000	0.000000	0.000000	0.000000	7.313577	-25.632469	5.082381	7.765061	-0.000000	-0.000000	-0.000000	-0.000000	2.807840	0.183120	-0.625660	-0.009094	0.983152	-0.048157	-1.000000	-1.000000	-1.000000	-1.000000	-1.000000	-1.000000	-1.000000	146.482759	0.000000	-1.000000	-1.000000	191659.000000	1772311041.127287
-16007.355000	-9275.625000	-15793.830000	-12806.145000	0.000000	0.000000	0.000000	0.000000	6.784987	-27.434881	5.214456	6.848304	-0.000000	-0.000000	-0.000000	-0.000000	2.807840	0.183120	-0.625660	-0.009094	0.983152	-0.048157	-1.000000	-1.000000	-1.000000	-1.000000	-1.000000	-1.000000	-1.000000	146.482759	0.000000	-1.000000	-1.000000	191660.000000	1772311041.131255
-16011.495000	-9261.900000	-15795.765000	-12800.520000	0.000000	0.000000	0.000000	0.000000	2.473158	-18.726353	2.729135	2.698540	-0.000000	-0.000000	-0.000000	-0.000000	2.807840	0.183120	-0.625660	-0.009094	0.983152	-0.048157	-1.000000	-1.000000	-1.000000	-1.000000	-1.000000	-1.000000	-1.000000	146.482759	0.000000	-1.000000	-1.000000	191661.000000	1772311041.131257
-15999.390000	-9241.155000	-15782.040000	-12791.475000	0.000000	0.000000	0.000000	0.000000	-3.348967	-1.929368	-1.121640	-2.086131	-0.000000	-0.000000	-0.000000	-0.000000	2.807840	0.183120	-0.625660	-0.009094	0.983152	-0.048157	-1.000000	-1.000000	-1.000000	-1.000000	-1.000000	-1.000000	-1.000000	146.482759	0.000000	-1.000000	-1.000000	191662.000000	1772311041.135285
-15998.895000	-9246.150000	-15783.210000	-12794.265000	0.000000	0.000000	0.000000	0.000000	-6.725022	15.742508	-3.548972	-4.544801	-0.000000	-0.000000	-0.000000	-0.000000	2.807840	0.183120	-0.625660	-0.009094	0.983152	-0.048157	-1.000000	-1.000000	-1.000000	-1.000000	-1.000000	-1.000000	-1.000000	146.482759	0.000000	-1.000000	-1.000000	191663.000000	1772311041.135289
-16000.740000	-9257.490000	-15787.440000	-12797.100000	0.000000	0.000000	0.000000	0.000000	-6.143900	25.493837	-3.672290	-4.536217	-0.000000	-0.000000	-0.000000	-0.000000	2.807840	0.183120	-0.625660	-0.009094	0.983152	-0.048157	-1.000000	-1.000000	-1.000000	-1.000000	-1.000000	-1.000000	-1.000000	146.482759	0.000000	-1.000000	-1.000000	191664.000000	1772311041.139324
-15997.050000	-9257.940000	-15787.215000	-12796.065000	0.000000	0.000000	0.000000	0.000000	-3.262593	22.629164	-2.884044	-3.696302	-0.000000	-0.000000	-0.000000	-0.000000	2.807840	0.183120	-0.625660	-0.009094	0.983152	-0.048157	-1.000000	-1.000000	-1.000000	-1.000000	-1.000000	-1.000000	-1.000000	146.482759	0.000000	-1.000000	-1.000000	191665.000000	1772311041.139327
-15991.920000	-9265.230000	-15781.815000	-12791.385000	0.000000	0.000000	0.000000	0.000000	-0.305621	10.154883	-2.326967	-2.919019	-0.000000	-0.000000	-0.000000	-0.000000	2.166920	0.122080	-0.686700	-0.008850	0.983091	-0.049316	-1.000000	-1.000000	-1.000000	-1.000000	-1.000000	-1.000000	-1.000000	146.482759	0.000000	-1.000000	-1.000000	191666.000000	1772311041.143286
-15988.680000	-9256.455000	-15774.885000	-12785.310000	0.000000	0.000000	0.000000	0.000000	1.690668	-3.952056	-1.639947	-1.835477	-0.000000	-0.000000	-0.000000	-0.000000	2.166920	0.122080	-0.686700	-0.008850	0.983091	-0.049316	-1.000000	-1.000000	-1.000000	-1.000000	-1.000000	-1.000000	-1.000000	146.482759	0.000000	-1.000000	-1.000000	191667.000000	1772311041.143289
-15992.730000	-9241.785000	-15778.215000	-12791.295000	0.000000	0.000000	0.000000	0.000000	2.357685	-12.240862	-0.360379	-0.263309	-0.000000	-0.000000	-0.000000	-0.000000	2.166920	0.122080	-0.686700	-0.008850	0.983091	-0.049316	-1.000000	-1.000000	-1.000000	-1.000000	-1.000000	-1.000000	-1.000000	146.482759	0.000000	-1.000000	-1.000000	191668.000000	1772311041.147940
-15996.555000	-9239.490000	-15784.695000	-12803.175000	0.000000	0.000000	0.000000	0.000000	1.434507	-11.807005	0.721868	0.723269	-0.000000	-0.000000	-0.000000	-0.000000	2.166920	0.122080	-0.686700	-0.008850	0.983091	-0.049316	-1.000000	-1.000000	-1.000000	-1.000000	-1.000000	-1.000000	-1.000000	146.482759	0.000000	-1.000000	-1.000000	191669.000000	1772311041.147943
-15993.765000	-9230.220000	-15781.320000	-12801.465000	0.000000	0.000000	0.000000	0.000000	-0.655786	-5.392340	0.549401	0.045274	-0.000000	-0.000000	-0.000000	-0.000000	2.166920	0.122080	-0.686700	-0.008850	0.983091	-0.049316	-1.000000	-1.000000	-1.000000	-1.000000	-1.000000	-1.000000	-1.000000	146.482759	0.000000	-1.000000	-1.000000	191670.000000	1772311041.151344
-15998.265000	-9216.090000	-15786.810000	-12801.015000	0.000000	0.000000	0.000000	0.000000	-2.567243	1.827850	-0.586953	-1.432604	-0.000000	-0.000000	-0.000000	-0.000000	2.166920	0.122080	-0.686700	-0.008850	0.983091	-0.049316	-1.000000	-1.000000	-1.000000	-1.000000	-1.000000	-1.000000	-1.000000	146.482759	0.000000	-1.000000	-1.000000	191671.000000	1772311041.151347
-15973.065000	-9221.355000	-15761.025000	-12769.830000	0.000000	0.000000	0.000000	0.000000	-2.728628	6.044396	-1.113406	-1.230241	-0.000000	-0.000000	-0.000000	-0.000000	2.166920	0.122080	-0.686700	-0.008850	0.983091	-0.049316	-1.000000	-1.000000	-1.000000	-1.000000	-1.000000	-1.000000	-1.000000	146.482759	0.000000	-1.000000	-1.000000	191672.000000	1772311041.155271
-16006.725000	-9247.680000	-15793.965000	-12798.855000	0.000000	0.000000	0.000000	0.000000	-0.874574	5.127159	-0.132457	1.660157	-0.000000	-0.000000	-0.000000	-0.000000	2.166920	0.122080	-0.686700	-0.008850	0.983091	-0.049316	-1.000000	-1.000000	-1.000000	-1.000000	-1.000000	-1.000000	-1.000000	146.482759	0.000000	-1.000000	-1.000000	191673.000000	1772311041.155274
-16021.935000	-9250.965000	-15809.265000	-12814.785000	0.000000	0.000000	0.000000	0.000000	0.387075	-1.015221	0.385434	4.036970	-0.000000	-0.000000	-0.000000	-0.000000	2.166920	0.122080	-0.686700	-0.008850	0.983091	-0.049316	-1.000000	-1.000000	-1.000000	-1.000000	-1.000000	-1.000000	-1.000000	146.482759	0.000000	-1.000000	-1.000000	191674.000000	1772311041.159389
-15997.680000	-9243.135000	-15784.065000	-12793.545000	0.000000	0.000000	0.000000	0.000000	-0.857818	-8.429650	-1.201064	2.603677	-0.000000	-0.000000	-0.000000	-0.000000	2.166920	0.122080	-0.686700	-0.008850	0.983091	-0.049316	-1.000000	-1.000000	-1.000000	-1.000000	-1.000000	-1.000000	-1.000000	146.482759	0.000000	-1.000000	-1.000000	191675.000000	1772311041.159394
-15985.980000	-9231.300000	-15772.095000	-12780.450000	0.000000	0.000000	0.000000	0.000000	-1.623740	-10.979752	-1.967441	-0.286072	-0.000000	-0.000000	-0.000000	-0.000000	1.922760	0.076300	-0.595140	-0.009155	0.982847	-0.048706	-1.000000	-1.000000	-1.000000	-1.000000	-1.000000	-1.000000	-1.000000	146.482759	0.000000	-1.000000	-1.000000	191676.000000	1772311041.163452
-15994.665000	-9230.445000	-15778.215000	-12781.710000	0.000000	0.000000	0.000000	0.000000	1.077898	-6.138749	0.921094	-0.529898	-0.000000	-0.000000	-0.000000	-0.000000	1.922760	0.076300	-0.595140	-0.009155	0.982847	-0.048706	-1.000000	-1.000000	-1.000000	-1.000000	-1.000000	-1.000000	-1.000000	146.482759	0.000000	-1.000000	-1.000000	191677.000000	1772311041.163455
-16001.010000	-9244.890000	-15783.120000	-12787.920000	0.000000	0.000000	0.000000	0.000000	4.864653	2.352647	4.979990	1.417230	-0.000000	-0.000000	-0.000000	-0.000000	1.922760	0.076300	-0.595140	-0.009155	0.982847	-0.048706	-1.000000	-1.000000	-1.000000	-1.000000	-1.000000	-1.000000	-1.000000	146.482759	0.000000	-1.000000	-1.000000	191678.000000	1772311041.168931
-15992.235000	-9245.115000	-15774.570000	-12790.170000	0.000000	0.000000	0.000000	0.000000	5.800641	8.194802	6.137789	2.182970	-0.000000	-0.000000	-0.000000	-0.000000	1.922760	0.076300	-0.595140	-0.009155	0.982847	-0.048706	-1.000000	-1.000000	-1.000000	-1.000000	-1.000000	-1.000000	-1.000000	146.482759	0.000000	-1.000000	-1.000000	191679.000000	1772311041.168935
-16002.045000	-9242.550000	-15790.590000	-12811.140000	0.000000	0.000000	0.000000	0.000000	3.356727	8.501460	3.526011	-0.057220	-0.000000	-0.000000	-0.000000	-0.000000	1.922760	0.076300	-0.595140	-0.009155	0.982847	-0.048706	-1.000000	-1.000000	-1.000000	-1.000000	-1.000000	-1.000000	-1.000000	146.482759	0.000000	-1.000000	-1.000000	191680.000000	1772311041.172837
-15978.105000	-9252.675000	-15769.845000	-12786.390000	0.000000	0.000000	0.000000	0.000000	-0.129000	5.011340	-0.830053	-3.903434	-0.000000	-0.000000	-0.000000	-0.000000	1.922760	0.076300	-0.595140	-0.009155	0.982847	-0.048706	-1.000000	-1.000000	-1.000000	-1.000000	-1.000000	-1.000000	-1.000000	146.482759	0.000000	-1.000000	-1.000000	191681.000000	1772311041.172840
-15970.815000	-9251.595000	-15761.790000	-12777.660000	0.000000	0.000000	0.000000	0.000000	-1.795216	0.680103	-3.693950	-5.458371	-0.000000	-0.000000	-0.000000	-0.000000	1.922760	0.076300	-0.595140	-0.009155	0.982847	-0.048706	-1.000000	-1.000000	-1.000000	-1.000000	-1.000000	-1.000000	-1.000000	146.482759	0.000000	-1.000000	-1.000000	191682.000000	1772311041.176914
-16015.005000	-9257.400000	-15804.540000	-12815.100000	0.000000	0.000000	0.000000	0.000000	-1.564723	-2.447580	-3.910770	-3.086788	-0.000000	-0.000000	-0.000000	-0.000000	1.922760	0.076300	-0.595140	-0.009155	0.982847	-0.048706	-1.000000	-1.000000	-1.000000	-1.000000	-1.000000	-1.000000	-1.000000	146.482759	0.000000	-1.000000	-1.000000	191683.000000	1772311041.176917
-16001.595000	-9267.750000	-15789.780000	-12800.025000	0.000000	0.000000	0.000000	0.000000	-2.619355	-3.640437	-3.951362	-0.090062	-0.000000	-0.000000	-0.000000	-0.000000	1.922760	0.076300	-0.595140	-0.009155	0.982847	-0.048706	-1.000000	-1.000000	-1.000000	-1.000000	-1.000000	-1.000000	-1.000000	146.482759	0.000000	-1.000000	-1.000000	191684.000000	1772311041.181988
-16005.060000	-9259.650000	-15790.230000	-12802.680000	0.000000	0.000000	0.000000	0.000000	-5.449736	-3.197887	-4.708519	0.999056	-0.000000	-0.000000	-0.000000	-0.000000	1.922760	0.076300	-0.595140	-0.009155	0.982847	-0.048706	-1.000000	-1.000000	-1.000000	-1.000000	-1.000000	-1.000000	-1.000000	146.482759	0.000000	-1.000000	-1.000000	191685.000000	1772311041.181991
-16004.700000	-9258.165000	-15788.115000	-12801.915000	0.000000	0.000000	0.000000	0.000000	-6.574745	-1.316326	-3.806478	1.324331	-0.000000	-0.000000	-0.000000	-0.000000	1.846460	0.213640	-0.625660	-0.009155	0.983091	-0.048950	-1.000000	-1.000000	-1.000000	-1.000000	-1.000000	-1.000000	-1.000000	146.482759	0.000000	-1.000000	-1.000000	191686.000000	1772311041.184836
-15992.820000	-9247.500000	-15773.490000	-12789.720000	0.000000	0.000000	0.000000	0.000000	-3.829357	1.783022	-0.084937	2.241191	-0.000000	-0.000000	-0.000000	-0.000000	1.846460	0.213640	-0.625660	-0.009155	0.983091	-0.048950	-1.000000	-1.000000	-1.000000	-1.000000	-1.000000	-1.000000	-1.000000	146.482759	0.000000	-1.000000	-1.000000	191687.000000	1772311041.184839
-16002.090000	-9238.410000	-15785.505000	-12798.540000	0.000000	0.000000	0.000000	0.000000	1.572110	5.092015	4.778459	3.633648	-0.000000	-0.000000	-0.000000	-0.000000	1.846460	0.213640	-0.625660	-0.009155	0.983091	-0.048950	-1.000000	-1.000000	-1.000000	-1.000000	-1.000000	-1.000000	-1.000000	146.482759	0.000000	-1.000000	-1.000000	191688.000000	1772311041.187615
-16014.690000	-9252.180000	-15801.030000	-12811.365000	0.000000	0.000000	0.000000	0.000000	6.057177	6.772644	7.310617	3.922131	-0.000000	-0.000000	-0.000000	-0.000000	1.846460	0.213640	-0.625660	-0.009155	0.983091	-0.048950	-1.000000	-1.000000	-1.000000	-1.000000	-1.000000	-1.000000	-1.000000	146.482759	0.000000	-1.000000	-1.000000	191689.000000	1772311041.187618
-16001.865000	-9283.680000	-15787.755000	-12799.035000	0.000000	0.000000	0.000000	0.000000	6.719581	4.368077	5.330772	1.840247	-0.000000	-0.000000	-0.000000	-0.000000	1.846460	0.213640	-0.625660	-0.009155	0.983091	-0.048950	-1.000000	-1.000000	-1.000000	-1.000000	-1.000000	-1.000000	-1.000000	146.482759	0.000000	-1.000000	-1.000000	191690.000000	1772311041.192764
-15987.465000	-9279.720000	-15775.200000	-12784.860000	0.000000	0.000000	0.000000	0.000000	4.671774	-2.622707	1.195031	-0.862401	-0.000000	-0.000000	-0.000000	-0.000000	1.846460	0.213640	-0.625660	-0.009155	0.983091	-0.048950	-1.000000	-1.000000	-1.000000	-1.000000	-1.000000	-1.000000	-1.000000	146.482759	0.000000	-1.000000	-1.000000	191691.000000	1772311041.192767
-15984.045000	-9246.105000	-15772.545000	-12784.230000	0.000000	0.000000	0.000000	0.000000	3.050443	-9.304983	-0.994950	-1.388365	-0.000000	-0.000000	-0.000000	-0.000000	1.846460	0.213640	-0.625660	-0.009155	0.983091	-0.048950	-1.000000	-1.000000	-1.000000	-1.000000	-1.000000	-1.000000	-1.000000	146.482759	0.000000	-1.000000	-1.000000	191692.000000	1772311041.195437
-15997.230000	-9234.675000	-15780.555000	-12792.735000	0.000000	0.000000	0.000000	0.000000	2.342463	-8.797720	-0.591458	-0.050453	-0.000000	-0.000000	-0.000000	-0.000000	1.846460	0.213640	-0.625660	-0.009155	0.983091	-0.048950	-1.000000	-1.000000	-1.000000	-1.000000	-1.000000	-1.000000	-1.000000	146.482759	0.000000	-1.000000	-1.000000	191693.000000	1772311041.195440
-16011.495000	-9222.570000	-15794.460000	-12808.035000	0.000000	0.000000	0.000000	0.000000	0.257025	-0.473961	-0.360208	0.169091	-0.000000	-0.000000	-0.000000	-0.000000	1.846460	0.213640	-0.625660	-0.009155	0.983091	-0.048950	-1.000000	-1.000000	-1.000000	-1.000000	-1.000000	-1.000000	-1.000000	146.482759	0.000000	-1.000000	-1.000000	191694.000000	1772311041.199497
-16008.255000	-9203.130000	-15790.725000	-12807.540000	0.000000	0.000000	0.000000	0.000000	-4.098134	9.317442	-2.241320	-2.302727	-0.000000	-0.000000	-0.000000	-0.000000	1.846460	0.213640	-0.625660	-0.009155	0.983091	-0.048950	-1.000000	-1.000000	-1.000000	-1.000000	-1.000000	-1.000000	-1.000000	146.482759	0.000000	-1.000000	-1.000000	191695.000000	1772311041.199500
-16003.395000	-9207.315000	-15788.655000	-12803.040000	0.000000	0.000000	0.000000	0.000000	-7.949354	13.857433	-4.746891	-5.398977	-0.000000	-0.000000	-0.000000	-0.000000	2.670500	0.076300	-0.427280	-0.008972	0.982419	-0.047241	-1.000000	-1.000000	-1.000000	-1.000000	-1.000000	-1.000000	-1.000000	146.482759	0.000000	-1.000000	-1.000000	191696.000000	1772311041.203388
-15997.905000	-9210.690000	-15780.510000	-12792.195000	0.000000	0.000000	0.000000	0.000000	-7.764373	10.227972	-4.938018	-5.573877	-0.000000	-0.000000	-0.000000	-0.000000	2.670500	0.076300	-0.427280	-0.008972	0.982419	-0.047241	-1.000000	-1.000000	-1.000000	-1.000000	-1.000000	-1.000000	-1.000000	146.482759	0.000000	-1.000000	-1.000000	191697.000000	1772311041.203390
-15985.890000	-9211.095000	-15772.095000	-12786.570000	0.000000	0.000000	0.000000	0.000000	-3.003873	0.184599	-1.762445	-1.596954	-0.000000	-0.000000	-0.000000	-0.000000	2.670500	0.076300	-0.427280	-0.008972	0.982419	-0.047241	-1.000000	-1.000000	-1.000000	-1.000000	-1.000000	-1.000000	-1.000000	146.482759	0.000000	-1.000000	-1.000000	191698.000000	1772311041.207537
-15987.060000	-9207.720000	-15774.615000	-12788.370000	0.000000	0.000000	0.000000	0.000000	3.601663	-10.692371	3.003906	4.127281	-0.000000	-0.000000	-0.000000	-0.000000	2.670500	0.076300	-0.427280	-0.008972	0.982419	-0.047241	-1.000000	-1.000000	-1.000000	-1.000000	-1.000000	-1.000000	-1.000000	146.482759	0.000000	-1.000000	-1.000000	191699.000000	1772311041.207540
-15994.395000	-9206.370000	-15780.105000	-12795.750000	0.000000	0.000000	0.000000	0.000000	7.943963	-16.583086	6.049847	7.509721	-0.000000	-0.000000	-0.000000	-0.000000	2.670500	0.076300	-0.427280	-0.008972	0.982419	-0.047241	-1.000000	-1.000000	-1.000000	-1.000000	-1.000000	-1.000000	-1.000000	146.482759	0.000000	-1.000000	-1.000000	191700.000000	1772311041.215264
-15994.620000	-9228.330000	-15776.460000	-12791.700000	0.000000	0.000000	0.000000	0.000000	7.290891	-15.586210	5.260429	6.268796	-0.000000	-0.000000	-0.000000	-0.000000	2.670500	0.076300	-0.427280	-0.008972	0.982419	-0.047241	-1.000000	-1.000000	-1.000000	-1.000000	-1.000000	-1.000000	-1.000000	146.482759	0.000000	-1.000000	-1.000000	191701.000000	1772311041.215268
-15986.520000	-9225.180000	-15768.765000	-12785.940000	0.000000	0.000000	0.000000	0.000000	2.674888	-10.145322	1.755191	1.900407	-0.000000	-0.000000	-0.000000	-0.000000	2.670500	0.076300	-0.427280	-0.008972	0.982419	-0.047241	-1.000000	-1.000000	-1.000000	-1.000000	-1.000000	-1.000000	-1.000000	146.482759	0.000000	-1.000000	-1.000000	191702.000000	1772311041.216997
-16004.880000	-9222.120000	-15787.800000	-12806.640000	0.000000	0.000000	0.000000	0.000000	-2.497529	-3.226013	-1.875874	-2.539505	-0.000000	-0.000000	-0.000000	-0.000000	2.670500	0.076300	-0.427280	-0.008972	0.982419	-0.047241	-1.000000	-1.000000	-1.000000	-1.000000	-1.000000	-1.000000	-1.000000	146.482759	0.000000	-1.000000	-1.000000	191703.000000	1772311041.217000
-16016.175000	-9227.160000	-15796.530000	-12813.615000	0.000000	0.000000	0.000000	0.000000	-6.204396	3.689515	-4.668683	-5.754150	-0.000000	-0.000000	-0.000000	-0.000000	2.670500	0.076300	-0.427280	-0.008972	0.982419	-0.047241	-1.000000	-1.000000	-1.000000	-1.000000	-1.000000	-1.000000	-1.000000	146.482759	0.000000	-1.000000	-1.000000	191704.000000	1772311041.219410
-15996.420000	-9201.240000	-15775.875000	-12794.355000	0.000000	0.000000	0.000000	0.000000	-7.659176	9.555141	-6.165608	-7.092589	-0.000000	-0.000000	-0.000000	-0.000000	2.670500	0.076300	-0.427280	-0.008972	0.982419	-0.047241	-1.000000	-1.000000	-1.000000	-1.000000	-1.000000	-1.000000	-1.000000	146.482759	0.000000	-1.000000	-1.000000	191705.000000	1772311041.219412
-16007.490000	-9192.420000	-15790.095000	-12804.930000	0.000000	0.000000	0.000000	0.000000	-5.668981	13.715629	-4.892775	-5.137781	-0.000000	-0.000000	-0.000000	-0.000000	3.082520	0.061040	-0.213640	-0.009155	0.981687	-0.046814	-1.000000	-1.000000	-1.000000	-1.000000	-1.000000	-1.000000	-1.000000	146.482759	0.000000	-1.000000	-1.000000	191706.000000	1772311041.224702
-16013.790000	-9195.165000	-15798.105000	-12814.830000	0.000000	0.000000	0.000000	0.000000	-0.950672	15.155593	-1.281808	-0.655607	-0.000000	-0.000000	-0.000000	-0.000000	3.082520	0.061040	-0.213640	-0.009155	0.981687	-0.046814	-1.000000	-1.000000	-1.000000	-1.000000	-1.000000	-1.000000	-1.000000	146.482759	0.000000	-1.000000	-1.000000	191707.000000	1772311041.224705
-16014.465000	-9205.785000	-15799.770000	-12819.870000	0.000000	0.000000	0.000000	0.000000	3.354419	11.841103	1.875684	2.998933	-0.000000	-0.000000	-0.000000	-0.000000	3.082520	0.061040	-0.213640	-0.009155	0.981687	-0.046814	-1.000000	-1.000000	-1.000000	-1.000000	-1.000000	-1.000000	-1.000000	146.482759	0.000000	-1.000000	-1.000000	191708.000000	1772311041.227527
-16014.465000	-9216.855000	-15796.080000	-12818.970000	0.000000	0.000000	0.000000	0.000000	5.238224	3.239424	3.204427	3.946463	-0.000000	-0.000000	-0.000000	-0.000000	3.082520	0.061040	-0.213640	-0.009155	0.981687	-0.046814	-1.000000	-1.000000	-1.000000	-1.000000	-1.000000	-1.000000	-1.000000	146.482759	0.000000	-1.000000	-1.000000	191709.000000	1772311041.227530
-16016.895000	-9214.065000	-15796.305000	-12810.420000	0.000000	0.000000	0.000000	0.000000	4.971610	-7.406234	3.528725	3.342565	-0.000000	-0.000000	-0.000000	-0.000000	3.082520	0.061040	-0.213640	-0.009155	0.981687	-0.046814	-1.000000	-1.000000	-1.000000	-1.000000	-1.000000	-1.000000	-1.000000	146.482759	0.000000	-1.000000	-1.000000	191710.000000	1772311041.231254
-16019.595000	-9177.390000	-15796.935000	-12815.865000	0.000000	0.000000	0.000000	0.000000	3.506915	-13.946972	3.642200	3.004760	-0.000000	-0.000000	-0.000000	-0.000000	3.082520	0.061040	-0.213640	-0.009155	0.981687	-0.046814	-1.000000	-1.000000	-1.000000	-1.000000	-1.000000	-1.000000	-1.000000	146.482759	0.000000	-1.000000	-1.000000	191711.000000	1772311041.231257
-16004.025000	-9140.940000	-15783.345000	-12807.540000	0.000000	0.000000	0.000000	0.000000	1.897185	-11.132213	3.622065	3.196148	-0.000000	-0.000000	-0.000000	-0.000000	3.082520	0.061040	-0.213640	-0.009155	0.981687	-0.046814	-1.000000	-1.000000	-1.000000	-1.000000	-1.000000	-1.000000	-1.000000	146.482759	0.000000	-1.000000	-1.000000	191712.000000	1772311041.235668
-15955.380000	-9124.740000	-15734.610000	-12754.530000	0.000000	0.000000	0.000000	0.000000	2.103544	0.142864	4.353916	4.075070	-0.000000	-0.000000	-0.000000	-0.000000	3.082520	0.061040	-0.213640	-0.009155	0.981687	-0.046814	-1.000000	-1.000000	-1.000000	-1.000000	-1.000000	-1.000000	-1.000000	146.482759	0.000000	-1.000000	-1.000000	191713.000000	1772311041.235670
-15985.665000	-9151.785000	-15763.455000	-12777.165000	0.000000	0.000000	0.000000	0.000000	4.845750	11.240432	6.313257	6.118780	-0.000000	-0.000000	-0.000000	-0.000000	3.082520	0.061040	-0.213640	-0.009155	0.981687	-0.046814	-1.000000	-1.000000	-1.000000	-1.000000	-1.000000	-1.000000	-1.000000	146.482759	0.000000	-1.000000	-1.000000	191714.000000	1772311041.239932
-16014.195000	-9186.480000	-15793.875000	-12804.930000	0.000000	0.000000	0.000000	0.000000	5.596785	11.789921	5.650176	6.128066	-0.000000	-0.000000	-0.000000	-0.000000	3.082520	0.061040	-0.213640	-0.009155	0.981687	-0.046814	-1.000000	-1.000000	-1.000000	-1.000000	-1.000000	-1.000000	-1.000000	146.482759	0.000000	-1.000000	-1.000000	191715.000000	1772311041.239934
-16023.690000	-9164.295000	-15804.270000	-12820.095000	0.000000	0.000000	0.000000	0.000000	-0.774878	0.016009	-1.969765	-0.502563	-0.000000	-0.000000	-0.000000	-0.000000	2.701020	-0.045780	-0.274680	-0.008972	0.982358	-0.048340	-1.000000	-1.000000	-1.000000	-1.000000	-1.000000	-1.000000	-1.000000	146.482759	0.000000	-1.000000	-1.000000	191716.000000	1772311041.243544
-16018.650000	-9097.470000	-15801.120000	-12821.895000	0.000000	0.000000	0.000000	0.000000	-11.330750	-12.949000	-13.204499	-11.693653	-0.000000	-0.000000	-0.000000	-0.000000	2.701020	-0.045780	-0.274680	-0.008972	0.982358	-0.048340	-1.000000	-1.000000	-1.000000	-1.000000	-1.000000	-1.000000	-1.000000	146.482759	0.000000	-1.000000	-1.000000	191717.000000	1772311041.243546
-16004.880000	-9091.440000	-15783.255000	-12804.300000	0.000000	0.000000	0.000000	0.000000	-17.188568	-13.862607	-18.990187	-18.988791	-0.000000	-0.000000	-0.000000	-0.000000	2.701020	-0.045780	-0.274680	-0.008972	0.982358	-0.048340	-1.000000	-1.000000	-1.000000	-1.000000	-1.000000	-1.000000	-1.000000	146.482759	0.000000	-1.000000	-1.000000	191718.000000	1772311041.251208
-15995.430000	-9105.390000	-15773.355000	-12798.000000	0.000000	0.000000	0.000000	0.000000	-12.849894	-3.001091	-13.748121	-15.851220	-0.000000	-0.000000	-0.000000	-0.000000	2.701020	-0.045780	-0.274680	-0.008972	0.982358	-0.048340	-1.000000	-1.000000	-1.000000	-1.000000	-1.000000	-1.000000	-1.000000	146.482759	0.000000	-1.000000	-1.000000	191719.000000	1772311041.251211
-16005.420000	-9090.450000	-15781.230000	-12803.445000	0.000000	0.000000	0.000000	0.000000	-1.130616	7.647851	-0.602369	-3.864911	-0.000000	-0.000000	-0.000000	-0.000000	2.701020	-0.045780	-0.274680	-0.008972	0.982358	-0.048340	-1.000000	-1.000000	-1.000000	-1.000000	-1.000000	-1.000000	-1.000000	146.482759	0.000000	-1.000000	-1.000000	191720.000000	1772311041.251216
-16022.385000	-9094.320000	-15799.230000	-12814.245000	0.000000	0.000000	0.000000	0.000000	9.531645	9.592986	11.257755	8.748442	-0.000000	-0.000000	-0.000000	-0.000000	2.701020	-0.045780	-0.274680	-0.008972	0.982358	-0.048340	-1.000000	-1.000000	-1.000000	-1.000000	-1.000000	-1.000000	-1.000000	146.482759	0.000000	-1.000000	-1.000000	191721.000000	1772311041.251219
-16030.620000	-9085.860000	-15809.265000	-12820.995000	0.000000	0.000000	0.000000	0.000000	12.366554	3.870527	14.341453	14.409333	-0.000000	-0.000000	-0.000000	-0.000000	2.701020	-0.045780	-0.274680	-0.008972	0.982358	-0.048340	-1.000000	-1.000000	-1.000000	-1.000000	-1.000000	-1.000000	-1.000000	146.482759	0.000000	-1.000000	-1.000000	191722.000000	1772311041.255561
-16018.515000	-9061.245000	-15798.105000	-12810.195000	0.000000	0.000000	0.000000	0.000000	7.744064	-3.402468	8.844658	11.911793	-0.000000	-0.000000	-0.000000	-0.000000	2.701020	-0.045780	-0.274680	-0.008972	0.982358	-0.048340	-1.000000	-1.000000	-1.000000	-1.000000	-1.000000	-1.000000	-1.000000	146.482759	0.000000	-1.000000	-1.000000	191723.000000	1772311041.255564
-16012.440000	-9036.180000	-15794.775000	-12818.745000	0.000000	0.000000	0.000000	0.000000	1.622775	-6.200580	1.235834	5.548566	-0.000000	-0.000000	-0.000000	-0.000000	2.701020	-0.045780	-0.274680	-0.008972	0.982358	-0.048340	-1.000000	-1.000000	-1.000000	-1.000000	-1.000000	-1.000000	-1.000000	146.482759	0.000000	-1.000000	-1.000000	191724.000000	1772311041.259586
-16010.415000	-9021.555000	-15793.470000	-12820.275000	0.000000	0.000000	0.000000	0.000000	-1.030230	-2.811085	-2.703477	-0.205010	-0.000000	-0.000000	-0.000000	-0.000000	2.701020	-0.045780	-0.274680	-0.008972	0.982358	-0.048340	-1.000000	-1.000000	-1.000000	-1.000000	-1.000000	-1.000000	-1.000000	146.482759	0.000000	-1.000000	-1.000000	191725.000000	1772311041.259589
-16008.660000	-9009.585000	-15788.835000	-12815.730000	0.000000	0.000000	0.000000	0.000000	-0.111081	3.144410	-2.169889	-3.441766	-0.000000	-0.000000	-0.000000	-0.000000	2.136400	0.091560	-0.534100	-0.007812	0.983396	-0.048828	-1.000000	-1.000000	-1.000000	-1.000000	-1.000000	-1.000000	-1.000000	146.482759	0.000000	-1.000000	-1.000000	191726.000000	1772311041.263606
-16028.685000	-9024.480000	-15803.820000	-12830.985000	0.000000	0.000000	0.000000	0.000000	1.207316	6.070580	0.041501	-4.152078	-0.000000	-0.000000	-0.000000	-0.000000	2.136400	0.091560	-0.534100	-0.007812	0.983396	-0.048828	-1.000000	-1.000000	-1.000000	-1.000000	-1.000000	-1.000000	-1.000000	146.482759	0.000000	-1.000000	-1.000000	191727.000000	1772311041.263610
-16027.425000	-9053.190000	-15802.020000	-12830.670000	0.000000	0.000000	0.000000	0.000000	0.093204	2.268357	0.794225	-3.569349	-0.000000	-0.000000	-0.000000	-0.000000	2.136400	0.091560	-0.534100	-0.007812	0.983396	-0.048828	-1.000000	-1.000000	-1.000000	-1.000000	-1.000000	-1.000000	-1.000000	146.482759	0.000000	-1.000000	-1.000000	191728.000000	1772311041.267674
-16004.205000	-9062.730000	-15781.230000	-12811.185000	0.000000	0.000000	0.000000	0.000000	-2.615729	-7.315257	-0.245407	-2.367755	-0.000000	-0.000000	-0.000000	-0.000000	2.136400	0.091560	-0.534100	-0.007812	0.983396	-0.048828	-1.000000	-1.000000	-1.000000	-1.000000	-1.000000	-1.000000	-1.000000	146.482759	0.000000	-1.000000	-1.000000	191729.000000	1772311041.267677
-15999.525000	-9052.695000	-15775.740000	-12802.095000	0.000000	0.000000	0.000000	0.000000	-3.213129	-16.218436	-0.596780	0.319818	-0.000000	-0.000000	-0.000000	-0.000000	2.136400	0.091560	-0.534100	-0.007812	0.983396	-0.048828	-1.000000	-1.000000	-1.000000	-1.000000	-1.000000	-1.000000	-1.000000	146.482759	0.000000	-1.000000	-1.000000	191730.000000	1772311041.271656
-16009.740000	-9035.775000	-15788.790000	-12812.985000	0.000000	0.000000	0.000000	0.000000	-0.656658	-16.604317	0.623487	3.983866	-0.000000	-0.000000	-0.000000	-0.000000	2.136400	0.091560	-0.534100	-0.007812	0.983396	-0.048828	-1.000000	-1.000000	-1.000000	-1.000000	-1.000000	-1.000000	-1.000000	146.482759	0.000000	-1.000000	-1.000000	191731.000000	1772311041.271659
-16023.870000	-9025.830000	-15802.560000	-12824.505000	0.000000	0.000000	0.000000	0.000000	1.591330	-6.238810	0.855526	5.359753	-0.000000	-0.000000	-0.000000	-0.000000	2.136400	0.091560	-0.534100	-0.007812	0.983396	-0.048828	-1.000000	-1.000000	-1.000000	-1.000000	-1.000000	-1.000000	-1.000000	146.482759	0.000000	-1.000000	-1.000000	191732.000000	1772311041.275638
-16007.085000	-9011.340000	-15783.255000	-12805.605000	0.000000	0.000000	0.000000	0.000000	0.742550	9.300629	-1.471462	2.629699	-0.000000	-0.000000	-0.000000	-0.000000	2.136400	0.091560	-0.534100	-0.007812	0.983396	-0.048828	-1.000000	-1.000000	-1.000000	-1.000000	-1.000000	-1.000000	-1.000000	146.482759	0.000000	-1.000000	-1.000000	191733.000000	1772311041.275641
-15999.165000	-8992.935000	-15775.605000	-12796.245000	0.000000	0.000000	0.000000	0.000000	-1.388212	21.499214	-3.734156	-1.395109	-0.000000	-0.000000	-0.000000	-0.000000	2.136400	0.091560	-0.534100	-0.007812	0.983396	-0.048828	-1.000000	-1.000000	-1.000000	-1.000000	-1.000000	-1.000000	-1.000000	146.482759	0.000000	-1.000000	-1.000000	191734.000000	1772311041.279671
-16020.405000	-8987.220000	-15796.260000	-12819.825000	0.000000	0.000000	0.000000	0.000000	-2.038094	24.796835	-3.313367	-3.441487	-0.000000	-0.000000	-0.000000	-0.000000	2.136400	0.091560	-0.534100	-0.007812	0.983396	-0.048828	-1.000000	-1.000000	-1.000000	-1.000000	-1.000000	-1.000000	-1.000000	146.482759	0.000000	-1.000000	-1.000000	191735.000000	1772311041.279674
-16033.230000	-8992.395000	-15809.040000	-12837.690000	0.000000	0.000000	0.000000	0.000000	-1.996509	18.251929	-1.858397	-4.405442	-0.000000	-0.000000	-0.000000	-0.000000	2.060100	0.137340	-0.549360	-0.008972	0.983701	-0.048645	-1.000000	-1.000000	-1.000000	-1.000000	-1.000000	-1.000000	-1.000000	146.482759	0.000000	-1.000000	-1.000000	191736.000000	1772311041.283576
-16022.205000	-9014.355000	-15799.365000	-12825.855000	0.000000	0.000000	0.000000	0.000000	-2.788856	4.402580	-1.719088	-5.970633	-0.000000	-0.000000	-0.000000	-0.000000	2.060100	0.137340	-0.549360	-0.008972	0.983701	-0.048645	-1.000000	-1.000000	-1.000000	-1.000000	-1.000000	-1.000000	-1.000000	146.482759	0.000000	-1.000000	-1.000000	191737.000000	1772311041.283578
-16015.410000	-9046.125000	-15791.940000	-12810.870000	0.000000	0.000000	0.000000	0.000000	-2.859381	-12.118050	-1.676973	-6.059538	-0.000000	-0.000000	-0.000000	-0.000000	2.060100	0.137340	-0.549360	-0.008972	0.983701	-0.048645	-1.000000	-1.000000	-1.000000	-1.000000	-1.000000	-1.000000	-1.000000	146.482759	0.000000	-1.000000	-1.000000	191738.000000	1772311041.288604
-15998.490000	-9037.530000	-15775.335000	-12796.155000	0.000000	0.000000	0.000000	0.000000	0.036749	-25.106812	0.731034	-1.747860	-0.000000	-0.000000	-0.000000	-0.000000	2.060100	0.137340	-0.549360	-0.008972	0.983701	-0.048645	-1.000000	-1.000000	-1.000000	-1.000000	-1.000000	-1.000000	-1.000000	146.482759	0.000000	-1.000000	-1.000000	191739.000000	1772311041.288607
-15985.395000	-9016.335000	-15760.980000	-12782.655000	0.000000	0.000000	0.000000	0.000000	5.393024	-27.598810	5.500110	5.912382	-0.000000	-0.000000	-0.000000	-0.000000	2.060100	0.137340	-0.549360	-0.008972	0.983701	-0.048645	-1.000000	-1.000000	-1.000000	-1.000000	-1.000000	-1.000000	-1.000000	146.482759	0.000000	-1.000000	-1.000000	191740.000000	1772311041.291628
-16006.680000	-9018.855000	-15786.990000	-12807.270000	0.000000	0.000000	0.000000	0.000000	9.635758	-16.722746	9.352842	11.813020	-0.000000	-0.000000	-0.000000	-0.000000	2.060100	0.137340	-0.549360	-0.008972	0.983701	-0.048645	-1.000000	-1.000000	-1.000000	-1.000000	-1.000000	-1.000000	-1.000000	146.482759	0.000000	-1.000000	-1.000000	191741.000000	1772311041.291630
-16018.830000	-9042.615000	-15799.500000	-12821.850000	0.000000	0.000000	0.000000	0.000000	8.312521	1.227518	7.744452	10.513265	-0.000000	-0.000000	-0.000000	-0.000000	2.060100	0.137340	-0.549360	-0.008972	0.983701	-0.048645	-1.000000	-1.000000	-1.000000	-1.000000	-1.000000	-1.000000	-1.000000	146.482759	0.000000	-1.000000	-1.000000	191742.000000	1772311041.295684
-16005.870000	-9052.515000	-15783.255000	-12810.555000	0.000000	0.000000	0.000000	0.000000	0.984308	14.895221	0.250007	1.832636	-0.000000	-0.000000	-0.000000	-0.000000	2.060100	0.137340	-0.549360	-0.008972	0.983701	-0.048645	-1.000000	-1.000000	-1.000000	-1.000000	-1.000000	-1.000000	-1.000000	146.482759	0.000000	-1.000000	-1.000000	191743.000000	1772311041.295686
-16006.635000	-9054.945000	-15782.850000	-12809.880000	0.000000	0.000000	0.000000	0.000000	-7.003269	17.969726	-7.418692	-7.732022	-0.000000	-0.000000	-0.000000	-0.000000	2.060100	0.137340	-0.549360	-0.008972	0.983701	-0.048645	-1.000000	-1.000000	-1.000000	-1.000000	-1.000000	-1.000000	-1.000000	146.482759	0.000000	-1.000000	-1.000000	191744.000000	1772311041.303046
-16011.045000	-9063.810000	-15787.575000	-12810.555000	0.000000	0.000000	0.000000	0.000000	-10.254250	12.714709	-9.827247	-11.566558	-0.000000	-0.000000	-0.000000	-0.000000	2.060100	0.137340	-0.549360	-0.008972	0.983701	-0.048645	-1.000000	-1.000000	-1.000000	-1.000000	-1.000000	-1.000000	-1.000000	146.482759	0.000000	-1.000000	-1.000000	191745.000000	1772311041.303048
-16014.690000	-9057.420000	-15788.970000	-12813.345000	0.000000	0.000000	0.000000	0.000000	-8.244185	5.182605	-7.012144	-8.729735	-0.000000	-0.000000	-0.000000	-0.000000	1.693860	0.183120	-0.717220	-0.008972	0.983945	-0.049133	-1.000000	-1.000000	-1.000000	-1.000000	-1.000000	-1.000000	-1.000000	146.482759	0.000000	-1.000000	-1.000000	191746.000000	1772311041.303688
-16016.940000	-9052.920000	-15791.175000	-12813.525000	0.000000	0.000000	0.000000	0.000000	-3.710475	0.240361	-2.233126	-2.647492	-0.000000	-0.000000	-0.000000	-0.000000	1.693860	0.183120	-0.717220	-0.008972	0.983945	-0.049133	-1.000000	-1.000000	-1.000000	-1.000000	-1.000000	-1.000000	-1.000000	146.482759	0.000000	-1.000000	-1.000000	191747.000000	1772311041.303691
-16013.520000	-9072.855000	-15789.555000	-12809.385000	0.000000	0.000000	0.000000	0.000000	0.758431	-0.954223	1.777225	2.937601	-0.000000	-0.000000	-0.000000	-0.000000	1.693860	0.183120	-0.717220	-0.008972	0.983945	-0.049133	-1.000000	-1.000000	-1.000000	-1.000000	-1.000000	-1.000000	-1.000000	146.482759	0.000000	-1.000000	-1.000000	191748.000000	1772311041.307660
-15988.275000	-9105.570000	-15767.055000	-12792.600000	0.000000	0.000000	0.000000	0.000000	4.415610	-1.361101	4.372568	6.406152	-0.000000	-0.000000	-0.000000	-0.000000	1.693860	0.183120	-0.717220	-0.008972	0.983945	-0.049133	-1.000000	-1.000000	-1.000000	-1.000000	-1.000000	-1.000000	-1.000000	146.482759	0.000000	-1.000000	-1.000000	191749.000000	1772311041.307663
-15982.740000	-9129.645000	-15760.350000	-12786.120000	0.000000	0.000000	0.000000	0.000000	7.695450	-4.391607	6.397432	8.011551	-0.000000	-0.000000	-0.000000	-0.000000	1.693860	0.183120	-0.717220	-0.008972	0.983945	-0.049133	-1.000000	-1.000000	-1.000000	-1.000000	-1.000000	-1.000000	-1.000000	146.482759	0.000000	-1.000000	-1.000000	191750.000000	1772311041.311756
-15992.280000	-9133.965000	-15770.250000	-12795.570000	0.000000	0.000000	0.000000	0.000000	9.546659	-9.097295	7.510284	7.671038	-0.000000	-0.000000	-0.000000	-0.000000	1.693860	0.183120	-0.717220	-0.008972	0.983945	-0.049133	-1.000000	-1.000000	-1.000000	-1.000000	-1.000000	-1.000000	-1.000000	146.482759	0.000000	-1.000000	-1.000000	191751.000000	1772311041.311759
-15994.125000	-9099.765000	-15767.820000	-12796.605000	0.000000	0.000000	0.000000	0.000000	7.412821	-9.990944	5.697613	4.398204	-0.000000	-0.000000	-0.000000	-0.000000	1.693860	0.183120	-0.717220	-0.008972	0.983945	-0.049133	-1.000000	-1.000000	-1.000000	-1.000000	-1.000000	-1.000000	-1.000000	146.482759	0.000000	-1.000000	-1.000000	191752.000000	1772311041.315638
-16008.885000	-9055.980000	-15780.960000	-12812.805000	0.000000	0.000000	0.000000	0.000000	0.813934	-1.999655	0.429969	-1.603391	-0.000000	-0.000000	-0.000000	-0.000000	1.693860	0.183120	-0.717220	-0.008972	0.983945	-0.049133	-1.000000	-1.000000	-1.000000	-1.000000	-1.000000	-1.000000	-1.000000	146.482759	0.000000	-1.000000	-1.000000	191753.000000	1772311041.315641
-16029.405000	-9046.215000	-15805.260000	-12832.065000	0.000000	0.000000	0.000000	0.000000	-7.628098	13.110191	-6.455291	-8.324888	-0.000000	-0.000000	-0.000000	-0.000000	1.693860	0.183120	-0.717220	-0.008972	0.983945	-0.049133	-1.000000	-1.000000	-1.000000	-1.000000	-1.000000	-1.000000	-1.000000	146.482759	0.000000	-1.000000	-1.000000	191754.000000	1772311041.319760
-15988.815000	-9066.915000	-15765.570000	-12792.375000	0.000000	0.000000	0.000000	0.000000	-13.342094	25.095657	-11.516117	-12.278813	-0.000000	-0.000000	-0.000000	-0.000000	1.693860	0.183120	-0.717220	-0.008972	0.983945	-0.049133	-1.000000	-1.000000	-1.000000	-1.000000	-1.000000	-1.000000	-1.000000	146.482759	0.000000	-1.000000	-1.000000	191755.000000	1772311041.319763
-15963.660000	-9069.795000	-15741.720000	-12770.235000	0.000000	0.000000	0.000000	0.000000	-11.115721	23.300606	-9.976718	-9.107698	-0.000000	-0.000000	-0.000000	-0.000000	1.770160	0.137340	-0.793520	-0.008545	0.983457	-0.049072	-1.000000	-1.000000	-1.000000	-1.000000	-1.000000	-1.000000	-1.000000	146.482759	0.000000	-1.000000	-1.000000	191756.000000	1772311041.323962
-15982.785000	-9055.215000	-15762.420000	-12789.720000	0.000000	0.000000	0.000000	0.000000	-0.827669	7.598980	-1.077996	0.973676	-0.000000	-0.000000	-0.000000	-0.000000	1.770160	0.137340	-0.793520	-0.008545	0.983457	-0.049072	-1.000000	-1.000000	-1.000000	-1.000000	-1.000000	-1.000000	-1.000000	146.482759	0.000000	-1.000000	-1.000000	191757.000000	1772311041.323965
-16037.190000	-9067.545000	-15816.195000	-12839.265000	0.000000	0.000000	0.000000	0.000000	8.558081	-11.716137	7.212154	9.461222	-0.000000	-0.000000	-0.000000	-0.000000	1.770160	0.137340	-0.793520	-0.008545	0.983457	-0.049072	-1.000000	-1.000000	-1.000000	-1.000000	-1.000000	-1.000000	-1.000000	146.482759	0.000000	-1.000000	-1.000000	191758.000000	1772311041.327685
-16021.215000	-9082.440000	-15797.520000	-12822.435000	0.000000	0.000000	0.000000	0.000000	7.962978	-24.558517	6.505918	8.221479	-0.000000	-0.000000	-0.000000	-0.000000	1.770160	0.137340	-0.793520	-0.008545	0.983457	-0.049072	-1.000000	-1.000000	-1.000000	-1.000000	-1.000000	-1.000000	-1.000000	146.482759	0.000000	-1.000000	-1.000000	191759.000000	1772311041.327688
-15998.355000	-9105.390000	-15771.690000	-12800.565000	0.000000	0.000000	0.000000	0.000000	0.108351	-27.754808	-0.356402	0.344630	-0.000000	-0.000000	-0.000000	-0.000000	1.770160	0.137340	-0.793520	-0.008545	0.983457	-0.049072	-1.000000	-1.000000	-1.000000	-1.000000	-1.000000	-1.000000	-1.000000	146.482759	0.000000	-1.000000	-1.000000	191760.000000	1772311041.331795
-16008.480000	-9106.155000	-15781.815000	-12812.490000	0.000000	0.000000	0.000000	0.000000	-4.918656	-22.883632	-3.862878	-4.618864	-0.000000	-0.000000	-0.000000	-0.000000	1.770160	0.137340	-0.793520	-0.008545	0.983457	-0.049072	-1.000000	-1.000000	-1.000000	-1.000000	-1.000000	-1.000000	-1.000000	146.482759	0.000000	-1.000000	-1.000000	191761.000000	1772311041.331798
-16018.110000	-9072.270000	-15790.905000	-12820.275000	0.000000	0.000000	0.000000	0.000000	-3.261653	-11.743834	-1.158266	-3.336683	-0.000000	-0.000000	-0.000000	-0.000000	1.770160	0.137340	-0.793520	-0.008545	0.983457	-0.049072	-1.000000	-1.000000	-1.000000	-1.000000	-1.000000	-1.000000	-1.000000	146.482759	0.000000	-1.000000	-1.000000	191762.000000	1772311041.335849
-16018.335000	-9055.530000	-15791.490000	-12819.645000	0.000000	0.000000	0.000000	0.000000	1.026229	4.198309	3.008848	0.340159	-0.000000	-0.000000	-0.000000	-0.000000	1.770160	0.137340	-0.793520	-0.008545	0.983457	-0.049072	-1.000000	-1.000000	-1.000000	-1.000000	-1.000000	-1.000000	-1.000000	146.482759	0.000000	-1.000000	-1.000000	191763.000000	1772311041.335852
-16015.950000	-9060.300000	-15790.680000	-12816.720000	0.000000	0.000000	0.000000	0.000000	3.798923	20.103426	4.570817	2.794607	-0.000000	-0.000000	-0.000000	-0.000000	1.770160	0.137340	-0.793520	-0.008545	0.983457	-0.049072	-1.000000	-1.000000	-1.000000	-1.000000	-1.000000	-1.000000	-1.000000	146.482759	0.000000	-1.000000	-1.000000	191764.000000	1772311041.339731
-16001.685000	-9083.880000	-15778.485000	-12803.130000	0.000000	0.000000	0.000000	0.000000	4.533492	27.557389	3.637545	3.669208	-0.000000	-0.000000	-0.000000	-0.000000	1.770160	0.137340	-0.793520	-0.008545	0.983457	-0.049072	-1.000000	-1.000000	-1.000000	-1.000000	-1.000000	-1.000000	-1.000000	146.482759	0.000000	-1.000000	-1.000000	191765.000000	1772311041.339734
-15977.655000	-9116.865000	-15751.440000	-12778.605000	0.000000	0.000000	0.000000	0.000000	4.915319	20.955658	2.729893	4.411075	-0.000000	-0.000000	-0.000000	-0.000000	2.227960	0.198380	-0.839300	-0.008850	0.982725	-0.047058	-1.000000	-1.000000	-1.000000	-1.000000	-1.000000	-1.000000	-1.000000	146.482759	0.000000	-1.000000	-1.000000	191766.000000	1772311041.343774
-15983.055000	-9117.630000	-15756.480000	-12784.005000	0.000000	0.000000	0.000000	0.000000	5.819623	3.478015	3.450838	5.640722	-0.000000	-0.000000	-0.000000	-0.000000	2.227960	0.198380	-0.839300	-0.008850	0.982725	-0.047058	-1.000000	-1.000000	-1.000000	-1.000000	-1.000000	-1.000000	-1.000000	146.482759	0.000000	-1.000000	-1.000000	191767.000000	1772311041.343777
-16003.080000	-9086.760000	-15774.345000	-12804.840000	0.000000	0.000000	0.000000	0.000000	5.078250	-13.363846	3.743338	5.091246	-0.000000	-0.000000	-0.000000	-0.000000	2.227960	0.198380	-0.839300	-0.008850	0.982725	-0.047058	-1.000000	-1.000000	-1.000000	-1.000000	-1.000000	-1.000000	-1.000000	146.482759	0.000000	-1.000000	-1.000000	191768.000000	1772311041.347721
-16016.625000	-9063.630000	-15789.780000	-12824.010000	0.000000	0.000000	0.000000	0.000000	-0.175627	-17.896222	0.049164	-0.213244	-0.000000	-0.000000	-0.000000	-0.000000	2.227960	0.198380	-0.839300	-0.008850	0.982725	-0.047058	-1.000000	-1.000000	-1.000000	-1.000000	-1.000000	-1.000000	-1.000000	146.482759	0.000000	-1.000000	-1.000000	191769.000000	1772311041.347724
-16002.405000	-9055.980000	-15773.265000	-12810.420000	0.000000	0.000000	0.000000	0.000000	-8.327832	-8.325967	-6.959418	-8.759010	-0.000000	-0.000000	-0.000000	-0.000000	2.227960	0.198380	-0.839300	-0.008850	0.982725	-0.047058	-1.000000	-1.000000	-1.000000	-1.000000	-1.000000	-1.000000	-1.000000	146.482759	0.000000	-1.000000	-1.000000	191770.000000	1772311041.351788
-16014.870000	-9044.325000	-15784.875000	-12815.055000	0.000000	0.000000	0.000000	0.000000	-13.608432	6.354180	-11.952986	-14.337737	-0.000000	-0.000000	-0.000000	-0.000000	2.227960	0.198380	-0.839300	-0.008850	0.982725	-0.047058	-1.000000	-1.000000	-1.000000	-1.000000	-1.000000	-1.000000	-1.000000	146.482759	0.000000	-1.000000	-1.000000	191771.000000	1772311041.351791
-16027.920000	-9039.600000	-15804.495000	-12826.845000	0.000000	0.000000	0.000000	0.000000	-12.646137	15.335750	-11.505820	-12.750067	-0.000000	-0.000000	-0.000000	-0.000000	2.227960	0.198380	-0.839300	-0.008850	0.982725	-0.047058	-1.000000	-1.000000	-1.000000	-1.000000	-1.000000	-1.000000	-1.000000	146.482759	0.000000	-1.000000	-1.000000	191772.000000	1772311041.355799
-16002.990000	-9047.745000	-15778.980000	-12805.965000	0.000000	0.000000	0.000000	0.000000	-6.714623	13.704192	-6.727737	-5.417992	-0.000000	-0.000000	-0.000000	-0.000000	2.227960	0.198380	-0.839300	-0.008850	0.982725	-0.047058	-1.000000	-1.000000	-1.000000	-1.000000	-1.000000	-1.000000	-1.000000	146.482759	0.000000	-1.000000	-1.000000	191773.000000	1772311041.355802
-16007.355000	-9053.685000	-15785.325000	-12817.170000	0.000000	0.000000	0.000000	0.000000	1.716744	3.337556	0.424036	3.738294	-0.000000	-0.000000	-0.000000	-0.000000	2.227960	0.198380	-0.839300	-0.008850	0.982725	-0.047058	-1.000000	-1.000000	-1.000000	-1.000000	-1.000000	-1.000000	-1.000000	146.482759	0.000000	-1.000000	-1.000000	191774.000000	1772311041.359818
-16024.815000	-9041.580000	-15804.090000	-12841.245000	0.000000	0.000000	0.000000	0.000000	9.239110	-9.321698	7.314992	10.175070	-0.000000	-0.000000	-0.000000	-0.000000	2.227960	0.198380	-0.839300	-0.008850	0.982725	-0.047058	-1.000000	-1.000000	-1.000000	-1.000000	-1.000000	-1.000000	-1.000000	146.482759	0.000000	-1.000000	-1.000000	191775.000000	1772311041.359820
-16027.155000	-9007.200000	-15804.270000	-12842.055000	0.000000	0.000000	0.000000	0.000000	11.636497	-16.342127	10.115708	10.281743	-0.000000	-0.000000	-0.000000	-0.000000	2.624720	0.183120	-0.473060	-0.009399	0.982602	-0.046753	-1.000000	-1.000000	-1.000000	-1.000000	-1.000000	-1.000000	-1.000000	146.482759	0.000000	-1.000000	-1.000000	191776.000000	1772311041.363916
-16014.960000	-8996.850000	-15784.695000	-12810.420000	0.000000	0.000000	0.000000	0.000000	8.342183	-13.237078	8.222862	5.757711	-0.000000	-0.000000	-0.000000	-0.000000	2.624720	0.183120	-0.473060	-0.009399	0.982602	-0.046753	-1.000000	-1.000000	-1.000000	-1.000000	-1.000000	-1.000000	-1.000000	146.482759	0.000000	-1.000000	-1.000000	191777.000000	1772311041.363919
-16006.590000	-8998.920000	-15774.840000	-12796.965000	0.000000	0.000000	0.000000	0.000000	3.411427	-3.190638	5.298784	2.659558	-0.000000	-0.000000	-0.000000	-0.000000	2.624720	0.183120	-0.473060	-0.009399	0.982602	-0.046753	-1.000000	-1.000000	-1.000000	-1.000000	-1.000000	-1.000000	-1.000000	146.482759	0.000000	-1.000000	-1.000000	191778.000000	1772311041.367878
-15998.400000	-8977.365000	-15770.430000	-12797.325000	0.000000	0.000000	0.000000	0.000000	0.703881	5.946026	4.108640	3.741110	-0.000000	-0.000000	-0.000000	-0.000000	2.624720	0.183120	-0.473060	-0.009399	0.982602	-0.046753	-1.000000	-1.000000	-1.000000	-1.000000	-1.000000	-1.000000	-1.000000	146.482759	0.000000	-1.000000	-1.000000	191779.000000	1772311041.367881
-15985.665000	-8955.675000	-15755.670000	-12782.430000	0.000000	0.000000	0.000000	0.000000	0.706131	9.568204	3.901085	5.806446	-0.000000	-0.000000	-0.000000	-0.000000	2.624720	0.183120	-0.473060	-0.009399	0.982602	-0.046753	-1.000000	-1.000000	-1.000000	-1.000000	-1.000000	-1.000000	-1.000000	146.482759	0.000000	-1.000000	-1.000000	191780.000000	1772311041.371801
-15984.405000	-8964.675000	-15756.660000	-12784.995000	0.000000	0.000000	0.000000	0.000000	1.575666	8.056679	2.788446	4.954401	-0.000000	-0.000000	-0.000000	-0.000000	2.624720	0.183120	-0.473060	-0.009399	0.982602	-0.046753	-1.000000	-1.000000	-1.000000	-1.000000	-1.000000	-1.000000	-1.000000	146.482759	0.000000	-1.000000	-1.000000	191781.000000	1772311041.371804
-16005.960000	-8981.955000	-15781.230000	-12819.015000	0.000000	0.000000	0.000000	0.000000	0.729034	2.514859	-0.676719	-0.269641	-0.000000	-0.000000	-0.000000	-0.000000	2.624720	0.183120	-0.473060	-0.009399	0.982602	-0.046753	-1.000000	-1.000000	-1.000000	-1.000000	-1.000000	-1.000000	-1.000000	146.482759	0.000000	-1.000000	-1.000000	191782.000000	1772311041.377422
-16008.705000	-8998.515000	-15785.280000	-12824.415000	0.000000	0.000000	0.000000	0.000000	-3.435328	-6.039718	-6.862627	-9.053482	-0.000000	-0.000000	-0.000000	-0.000000	2.624720	0.183120	-0.473060	-0.009399	0.982602	-0.046753	-1.000000	-1.000000	-1.000000	-1.000000	-1.000000	-1.000000	-1.000000	146.482759	0.000000	-1.000000	-1.000000	191783.000000	1772311041.377425
-15999.930000	-8995.770000	-15775.830000	-12812.490000	0.000000	0.000000	0.000000	0.000000	-8.919086	-14.141235	-12.946266	-16.899603	-0.000000	-0.000000	-0.000000	-0.000000	2.624720	0.183120	-0.473060	-0.009399	0.982602	-0.046753	-1.000000	-1.000000	-1.000000	-1.000000	-1.000000	-1.000000	-1.000000	146.482759	0.000000	-1.000000	-1.000000	191784.000000	1772311041.379840
-16012.260000	-9026.055000	-15784.965000	-12822.390000	0.000000	0.000000	0.000000	0.000000	-11.350271	-17.143627	-14.259734	-17.748676	-0.000000	-0.000000	-0.000000	-0.000000	2.624720	0.183120	-0.473060	-0.009399	0.982602	-0.046753	-1.000000	-1.000000	-1.000000	-1.000000	-1.000000	-1.000000	-1.000000	146.482759	0.000000	-1.000000	-1.000000	191785.000000	1772311041.379854
-16024.320000	-9071.730000	-15794.415000	-12829.365000	0.000000	0.000000	0.000000	0.000000	-9.110214	-14.237894	-9.590997	-10.494089	-0.000000	-0.000000	-0.000000	-0.000000	2.258480	0.122080	-0.503580	-0.008789	0.982725	-0.047424	-1.000000	-1.000000	-1.000000	-1.000000	-1.000000	-1.000000	-1.000000	146.482759	0.000000	-1.000000	-1.000000	191786.000000	1772311041.383835
-16022.700000	-9085.770000	-15792.480000	-12823.560000	0.000000	0.000000	0.000000	0.000000	-4.215832	-8.589615	-2.056933	0.304355	-0.000000	-0.000000	-0.000000	-0.000000	2.258480	0.122080	-0.503580	-0.008789	0.982725	-0.047424	-1.000000	-1.000000	-1.000000	-1.000000	-1.000000	-1.000000	-1.000000	146.482759	0.000000	-1.000000	-1.000000	191787.000000	1772311041.383837
-16021.125000	-9111.915000	-15790.995000	-12818.430000	0.000000	0.000000	0.000000	0.000000	1.222129	-2.220103	4.915004	9.689760	-0.000000	-0.000000	-0.000000	-0.000000	2.258480	0.122080	-0.503580	-0.008789	0.982725	-0.047424	-1.000000	-1.000000	-1.000000	-1.000000	-1.000000	-1.000000	-1.000000	146.482759	0.000000	-1.000000	-1.000000	191788.000000	1772311041.389308
-16015.005000	-9106.965000	-15786.000000	-12814.245000	0.000000	0.000000	0.000000	0.000000	6.248570	5.244598	9.646561	15.017066	-0.000000	-0.000000	-0.000000	-0.000000	2.258480	0.122080	-0.503580	-0.008789	0.982725	-0.047424	-1.000000	-1.000000	-1.000000	-1.000000	-1.000000	-1.000000	-1.000000	146.482759	0.000000	-1.000000	-1.000000	191789.000000	1772311041.389311
-16021.755000	-9080.640000	-15794.505000	-12823.380000	0.000000	0.000000	0.000000	0.000000	9.786836	14.436022	11.351188	15.205445	-0.000000	-0.000000	-0.000000	-0.000000	2.258480	0.122080	-0.503580	-0.008789	0.982725	-0.047424	-1.000000	-1.000000	-1.000000	-1.000000	-1.000000	-1.000000	-1.000000	146.482759	0.000000	-1.000000	-1.000000	191790.000000	1772311041.391992
-15993.855000	-9081.630000	-15764.805000	-12789.045000	0.000000	0.000000	0.000000	0.000000	10.844675	24.177641	10.100575	10.992628	-0.000000	-0.000000	-0.000000	-0.000000	2.258480	0.122080	-0.503580	-0.008789	0.982725	-0.047424	-1.000000	-1.000000	-1.000000	-1.000000	-1.000000	-1.000000	-1.000000	146.482759	0.000000	-1.000000	-1.000000	191791.000000	1772311041.391994
-15983.010000	-9099.045000	-15754.320000	-12779.460000	0.000000	0.000000	0.000000	0.000000	9.954138	29.486990	7.644603	5.606678	-0.000000	-0.000000	-0.000000	-0.000000	2.258480	0.122080	-0.503580	-0.008789	0.982725	-0.047424	-1.000000	-1.000000	-1.000000	-1.000000	-1.000000	-1.000000	-1.000000	146.482759	0.000000	-1.000000	-1.000000	191792.000000	1772311041.400334
-15982.830000	-9115.830000	-15752.970000	-12782.430000	0.000000	0.000000	0.000000	0.000000	7.875659	24.483944	5.374158	1.544631	-0.000000	-0.000000	-0.000000	-0.000000	2.258480	0.122080	-0.503580	-0.008789	0.982725	-0.047424	-1.000000	-1.000000	-1.000000	-1.000000	-1.000000	-1.000000	-1.000000	146.482759	0.000000	-1.000000	-1.000000	191793.000000	1772311041.400338
-16007.355000	-9132.255000	-15775.200000	-12807.405000	0.000000	0.000000	0.000000	0.000000	3.413548	8.995587	1.895021	-2.538692	-0.000000	-0.000000	-0.000000	-0.000000	2.258480	0.122080	-0.503580	-0.008789	0.982725	-0.047424	-1.000000	-1.000000	-1.000000	-1.000000	-1.000000	-1.000000	-1.000000	146.482759	0.000000	-1.000000	-1.000000	191794.000000	1772311041.400343
-16017.795000	-9117.720000	-15785.145000	-12816.765000	0.000000	0.000000	0.000000	0.000000	-4.623029	-9.576886	-4.654702	-8.762069	-0.000000	-0.000000	-0.000000	-0.000000	2.258480	0.122080	-0.503580	-0.008789	0.982725	-0.047424	-1.000000	-1.000000	-1.000000	-1.000000	-1.000000	-1.000000	-1.000000	146.482759	0.000000	-1.000000	-1.000000	191795.000000	1772311041.400346
-16010.685000	-9120.825000	-15777.405000	-12810.105000	0.000000	0.000000	0.000000	0.000000	-13.555480	-21.397801	-12.373558	-15.218429	-0.000000	-0.000000	-0.000000	-0.000000	2.105880	-0.076300	-0.473060	-0.008545	0.983152	-0.047180	-1.000000	-1.000000	-1.000000	-1.000000	-1.000000	-1.000000	-1.000000	146.482759	0.000000	-1.000000	-1.000000	191796.000000	1772311041.406071
-16001.955000	-9158.310000	-15773.580000	-12801.915000	0.000000	0.000000	0.000000	0.000000	-17.483041	-22.436840	-15.993273	-16.726066	-0.000000	-0.000000	-0.000000	-0.000000	2.105880	-0.076300	-0.473060	-0.008545	0.983152	-0.047180	-1.000000	-1.000000	-1.000000	-1.000000	-1.000000	-1.000000	-1.000000	146.482759	0.000000	-1.000000	-1.000000	191797.000000	1772311041.406074
-15987.105000	-9166.950000	-15761.115000	-12789.540000	0.000000	0.000000	0.000000	0.000000	-12.769112	-16.799396	-12.101211	-10.376391	-0.000000	-0.000000	-0.000000	-0.000000	2.105880	-0.076300	-0.473060	-0.008545	0.983152	-0.047180	-1.000000	-1.000000	-1.000000	-1.000000	-1.000000	-1.000000	-1.000000	146.482759	0.000000	-1.000000	-1.000000	191798.000000	1772311041.407839
-15989.400000	-9173.205000	-15762.555000	-12792.105000	0.000000	0.000000	0.000000	0.000000	-1.789662	-9.761812	-2.554985	1.049883	-0.000000	-0.000000	-0.000000	-0.000000	2.105880	-0.076300	-0.473060	-0.008545	0.983152	-0.047180	-1.000000	-1.000000	-1.000000	-1.000000	-1.000000	-1.000000	-1.000000	146.482759	0.000000	-1.000000	-1.000000	191799.000000	1772311041.407842
-16008.615000	-9175.365000	-15780.105000	-12809.880000	0.000000	0.000000	0.000000	0.000000	8.463454	-2.779111	6.780436	10.791225	-0.000000	-0.000000	-0.000000	-0.000000	2.105880	-0.076300	-0.473060	-0.008545	0.983152	-0.047180	-1.000000	-1.000000	-1.000000	-1.000000	-1.000000	-1.000000	-1.000000	146.482759	0.000000	-1.000000	-1.000000	191800.000000	1772311041.413696
-16005.645000	-9178.830000	-15773.715000	-12803.895000	0.000000	0.000000	0.000000	0.000000	11.764292	4.157950	10.502089	13.334523	-0.000000	-0.000000	-0.000000	-0.000000	2.105880	-0.076300	-0.473060	-0.008545	0.983152	-0.047180	-1.000000	-1.000000	-1.000000	-1.000000	-1.000000	-1.000000	-1.000000	146.482759	0.000000	-1.000000	-1.000000	191801.000000	1772311041.413698
-15997.905000	-9180.405000	-15763.095000	-12795.570000	0.000000	0.000000	0.000000	0.000000	8.025310	9.946408	8.352091	9.150846	-0.000000	-0.000000	-0.000000	-0.000000	2.105880	-0.076300	-0.473060	-0.008545	0.983152	-0.047180	-1.000000	-1.000000	-1.000000	-1.000000	-1.000000	-1.000000	-1.000000	146.482759	0.000000	-1.000000	-1.000000	191802.000000	1772311041.415954
-15990.120000	-9162.270000	-15754.455000	-12792.555000	0.000000	0.000000	0.000000	0.000000	2.359207	13.210726	4.441935	3.201172	-0.000000	-0.000000	-0.000000	-0.000000	2.105880	-0.076300	-0.473060	-0.008545	0.983152	-0.047180	-1.000000	-1.000000	-1.000000	-1.000000	-1.000000	-1.000000	-1.000000	146.482759	0.000000	-1.000000	-1.000000	191803.000000	1772311041.415957
-16005.555000	-9158.355000	-15768.990000	-12800.340000	0.000000	0.000000	0.000000	0.000000	-1.140293	13.678565	1.730585	-0.849196	-0.000000	-0.000000	-0.000000	-0.000000	2.105880	-0.076300	-0.473060	-0.008545	0.983152	-0.047180	-1.000000	-1.000000	-1.000000	-1.000000	-1.000000	-1.000000	-1.000000	146.482759	0.000000	-1.000000	-1.000000	191804.000000	1772311041.421654
-16005.240000	-9171.000000	-15772.995000	-12802.095000	0.000000	0.000000	0.000000	0.000000	-2.505860	11.139204	-0.392362	-2.868343	-0.000000	-0.000000	-0.000000	-0.000000	2.105880	-0.076300	-0.473060	-0.008545	0.983152	-0.047180	-1.000000	-1.000000	-1.000000	-1.000000	-1.000000	-1.000000	-1.000000	146.482759	0.000000	-1.000000	-1.000000	191805.000000	1772311041.421658
-15992.865000	-9192.420000	-15759.720000	-12791.295000	0.000000	0.000000	0.000000	0.000000	-2.885970	4.594915	-2.785622	-3.675596	-0.000000	-0.000000	-0.000000	-0.000000	1.907500	0.213640	-0.549360	-0.008606	0.983274	-0.047241	-1.000000	-1.000000	-1.000000	-1.000000	-1.000000	-1.000000	-1.000000	146.482759	0.000000	-1.000000	-1.000000	191806.000000	1772311041.424012
-15983.100000	-9208.035000	-15754.005000	-12785.940000	0.000000	0.000000	0.000000	0.000000	-1.833394	-5.456774	-3.974697	-3.024087	-0.000000	-0.000000	-0.000000	-0.000000	1.907500	0.213640	-0.549360	-0.008606	0.983274	-0.047241	-1.000000	-1.000000	-1.000000	-1.000000	-1.000000	-1.000000	-1.000000	146.482759	0.000000	-1.000000	-1.000000	191807.000000	1772311041.424016
-15965.865000	-9221.805000	-15740.640000	-12773.655000	0.000000	0.000000	0.000000	0.000000	1.122816	-15.218468	-2.440757	-0.703392	-0.000000	-0.000000	-0.000000	-0.000000	1.907500	0.213640	-0.549360	-0.008606	0.983274	-0.047241	-1.000000	-1.000000	-1.000000	-1.000000	-1.000000	-1.000000	-1.000000	146.482759	0.000000	-1.000000	-1.000000	191808.000000	1772311041.427933
-15983.910000	-9227.250000	-15754.635000	-12787.920000	0.000000	0.000000	0.000000	0.000000	4.281398	-19.632828	0.667864	1.917856	-0.000000	-0.000000	-0.000000	-0.000000	1.907500	0.213640	-0.549360	-0.008606	0.983274	-0.047241	-1.000000	-1.000000	-1.000000	-1.000000	-1.000000	-1.000000	-1.000000	146.482759	0.000000	-1.000000	-1.000000	191809.000000	1772311041.427935
-16021.170000	-9232.965000	-15789.465000	-12823.560000	0.000000	0.000000	0.000000	0.000000	3.774551	-16.067364	1.680894	1.821783	-0.000000	-0.000000	-0.000000	-0.000000	1.907500	0.213640	-0.549360	-0.008606	0.983274	-0.047241	-1.000000	-1.000000	-1.000000	-1.000000	-1.000000	-1.000000	-1.000000	146.482759	0.000000	-1.000000	-1.000000	191810.000000	1772311041.431964
-16010.100000	-9238.455000	-15775.515000	-12810.105000	0.000000	0.000000	0.000000	0.000000	-2.292116	-6.181567	-1.696554	-2.502085	-0.000000	-0.000000	-0.000000	-0.000000	1.907500	0.213640	-0.549360	-0.008606	0.983274	-0.047241	-1.000000	-1.000000	-1.000000	-1.000000	-1.000000	-1.000000	-1.000000	146.482759	0.000000	-1.000000	-1.000000	191811.000000	1772311041.431968
-15998.265000	-9251.100000	-15764.310000	-12796.425000	0.000000	0.000000	0.000000	0.000000	-9.231576	5.100225	-6.031897	-7.133284	-0.000000	-0.000000	-0.000000	-0.000000	1.907500	0.213640	-0.549360	-0.008606	0.983274	-0.047241	-1.000000	-1.000000	-1.000000	-1.000000	-1.000000	-1.000000	-1.000000	146.482759	0.000000	-1.000000	-1.000000	191812.000000	1772311041.435985
-16000.920000	-9270.720000	-15767.415000	-12796.740000	0.000000	0.000000	0.000000	0.000000	-10.128407	12.423593	-5.823448	-6.425228	-0.000000	-0.000000	-0.000000	-0.000000	1.907500	0.213640	-0.549360	-0.008606	0.983274	-0.047241	-1.000000	-1.000000	-1.000000	-1.000000	-1.000000	-1.000000	-1.000000	146.482759	0.000000	-1.000000	-1.000000	191813.000000	1772311041.435988
-15988.185000	-9270.720000	-15756.435000	-12784.050000	0.000000	0.000000	0.000000	0.000000	-3.841556	13.236672	-0.498054	-0.054984	-0.000000	-0.000000	-0.000000	-0.000000	1.907500	0.213640	-0.549360	-0.008606	0.983274	-0.047241	-1.000000	-1.000000	-1.000000	-1.000000	-1.000000	-1.000000	-1.000000	146.482759	0.000000	-1.000000	-1.000000	191814.000000	1772311041.439962
-15984.675000	-9270.945000	-15757.740000	-12787.110000	0.000000	0.000000	0.000000	0.000000	5.137338	9.414486	6.003132	7.348034	-0.000000	-0.000000	-0.000000	-0.000000	1.907500	0.213640	-0.549360	-0.008606	0.983274	-0.047241	-1.000000	-1.000000	-1.000000	-1.000000	-1.000000	-1.000000	-1.000000	146.482759	0.000000	-1.000000	-1.000000	191815.000000	1772311041.439966
-15984.405000	-9250.785000	-15757.470000	-12789.990000	0.000000	0.000000	0.000000	0.000000	11.443222	5.311455	9.534418	10.858159	-0.000000	-0.000000	-0.000000	-0.000000	1.632820	0.274680	-0.457800	-0.008606	0.983274	-0.047485	-1.000000	-1.000000	-1.000000	-1.000000	-1.000000	-1.000000	-1.000000	146.482759	0.000000	-1.000000	-1.000000	191816.000000	1772311041.444750
-15997.995000	-9251.055000	-15766.155000	-12800.880000	0.000000	0.000000	0.000000	0.000000	11.651250	3.837248	8.112093	8.274679	-0.000000	-0.000000	-0.000000	-0.000000	1.632820	0.274680	-0.457800	-0.008606	0.983274	-0.047485	-1.000000	-1.000000	-1.000000	-1.000000	-1.000000	-1.000000	-1.000000	146.482759	0.000000	-1.000000	-1.000000	191817.000000	1772311041.444754
-15983.820000	-9257.130000	-15751.710000	-12785.670000	0.000000	0.000000	0.000000	0.000000	5.980849	3.986923	2.911759	1.475150	-0.000000	-0.000000	-0.000000	-0.000000	1.632820	0.274680	-0.457800	-0.008606	0.983274	-0.047485	-1.000000	-1.000000	-1.000000	-1.000000	-1.000000	-1.000000	-1.000000	146.482759	0.000000	-1.000000	-1.000000	191818.000000	1772311041.447944
-15960.690000	-9264.150000	-15728.445000	-12763.395000	0.000000	0.000000	0.000000	0.000000	-1.099656	2.435823	-2.046741	-4.393596	-0.000000	-0.000000	-0.000000	-0.000000	1.632820	0.274680	-0.457800	-0.008606	0.983274	-0.047485	-1.000000	-1.000000	-1.000000	-1.000000	-1.000000	-1.000000	-1.000000	146.482759	0.000000	-1.000000	-1.000000	191819.000000	1772311041.447947
-16006.230000	-9268.830000	-15769.620000	-12797.325000	0.000000	0.000000	0.000000	0.000000	-5.331342	-2.241617	-3.974149	-5.829471	-0.000000	-0.000000	-0.000000	-0.000000	1.632820	0.274680	-0.457800	-0.008606	0.983274	-0.047485	-1.000000	-1.000000	-1.000000	-1.000000	-1.000000	-1.000000	-1.000000	146.482759	0.000000	-1.000000	-1.000000	191820.000000	1772311041.452079
-16035.570000	-9252.585000	-15799.635000	-12827.295000	0.000000	0.000000	0.000000	0.000000	-8.025411	-7.641466	-5.347615	-5.421342	-0.000000	-0.000000	-0.000000	-0.000000	1.632820	0.274680	-0.457800	-0.008606	0.983274	-0.047485	-1.000000	-1.000000	-1.000000	-1.000000	-1.000000	-1.000000	-1.000000	146.482759	0.000000	-1.000000	-1.000000	191821.000000	1772311041.452082
-16011.495000	-9256.680000	-15778.485000	-12809.880000	0.000000	0.000000	0.000000	0.000000	-11.256485	-9.893802	-8.712786	-6.814388	-0.000000	-0.000000	-0.000000	-0.000000	1.632820	0.274680	-0.457800	-0.008606	0.983274	-0.047485	-1.000000	-1.000000	-1.000000	-1.000000	-1.000000	-1.000000	-1.000000	146.482759	0.000000	-1.000000	-1.000000	191822.000000	1772311041.456194
-16010.145000	-9260.190000	-15777.765000	-12809.565000	0.000000	0.000000	0.000000	0.000000	-11.443242	-7.872064	-10.392228	-7.803452	-0.000000	-0.000000	-0.000000	-0.000000	1.632820	0.274680	-0.457800	-0.008606	0.983274	-0.047485	-1.000000	-1.000000	-1.000000	-1.000000	-1.000000	-1.000000	-1.000000	146.482759	0.000000	-1.000000	-1.000000	191823.000000	1772311041.456196
-16005.330000	-9216.990000	-15776.640000	-12808.845000	0.000000	0.000000	0.000000	0.000000	-4.956826	-3.126084	-6.004656	-4.423269	-0.000000	-0.000000	-0.000000	-0.000000	1.632820	0.274680	-0.457800	-0.008606	0.983274	-0.047485	-1.000000	-1.000000	-1.000000	-1.000000	-1.000000	-1.000000	-1.000000	146.482759	0.000000	-1.000000	-1.000000	191824.000000	1772311041.460051
-15996.015000	-9206.325000	-15767.595000	-12799.395000	0.000000	0.000000	0.000000	0.000000	5.582094	3.215985	2.892670	2.718651	-0.000000	-0.000000	-0.000000	-0.000000	1.632820	0.274680	-0.457800	-0.008606	0.983274	-0.047485	-1.000000	-1.000000	-1.000000	-1.000000	-1.000000	-1.000000	-1.000000	146.482759	0.000000	-1.000000	-1.000000	191825.000000	1772311041.460053
-16001.775000	-9219.105000	-15767.820000	-12798.630000	0.000000	0.000000	0.000000	0.000000	14.134857	8.782828	11.155350	9.719949	-0.000000	-0.000000	-0.000000	-0.000000	2.624720	0.076300	-0.396760	-0.009277	0.983274	-0.045959	-1.000000	-1.000000	-1.000000	-1.000000	-1.000000	-1.000000	-1.000000	146.482759	0.000000	-1.000000	-1.000000	191826.000000	1772311041.464124
-16014.015000	-9202.140000	-15778.395000	-12810.600000	0.000000	0.000000	0.000000	0.000000	15.873207	9.332526	14.311909	12.686095	-0.000000	-0.000000	-0.000000	-0.000000	2.624720	0.076300	-0.396760	-0.009277	0.983274	-0.045959	-1.000000	-1.000000	-1.000000	-1.000000	-1.000000	-1.000000	-1.000000	146.482759	0.000000	-1.000000	-1.000000	191827.000000	1772311041.464127
-15996.915000	-9185.085000	-15760.845000	-12792.510000	0.000000	0.000000	0.000000	0.000000	10.214678	4.307784	11.067328	10.065389	-0.000000	-0.000000	-0.000000	-0.000000	2.624720	0.076300	-0.396760	-0.009277	0.983274	-0.045959	-1.000000	-1.000000	-1.000000	-1.000000	-1.000000	-1.000000	-1.000000	146.482759	0.000000	-1.000000	-1.000000	191828.000000	1772311041.468007
-15985.980000	-9203.760000	-15750.675000	-12781.260000	0.000000	0.000000	0.000000	0.000000	1.733244	-2.548329	4.468819	4.335821	-0.000000	-0.000000	-0.000000	-0.000000	2.624720	0.076300	-0.396760	-0.009277	0.983274	-0.045959	-1.000000	-1.000000	-1.000000	-1.000000	-1.000000	-1.000000	-1.000000	146.482759	0.000000	-1.000000	-1.000000	191829.000000	1772311041.468010
-16003.620000	-9226.575000	-15766.650000	-12795.300000	0.000000	0.000000	0.000000	0.000000	-4.459328	-8.857120	-1.452803	-0.831179	-0.000000	-0.000000	-0.000000	-0.000000	2.624720	0.076300	-0.396760	-0.009277	0.983274	-0.045959	-1.000000	-1.000000	-1.000000	-1.000000	-1.000000	-1.000000	-1.000000	146.482759	0.000000	-1.000000	-1.000000	191830.000000	1772311041.471988
-16002.540000	-9252.180000	-15771.915000	-12803.670000	0.000000	0.000000	0.000000	0.000000	-7.476000	-14.439423	-5.785551	-4.739042	-0.000000	-0.000000	-0.000000	-0.000000	2.624720	0.076300	-0.396760	-0.009277	0.983274	-0.045959	-1.000000	-1.000000	-1.000000	-1.000000	-1.000000	-1.000000	-1.000000	146.482759	0.000000	-1.000000	-1.000000	191831.000000	1772311041.471991
-15993.405000	-9286.650000	-15761.070000	-12790.080000	0.000000	0.000000	0.000000	0.000000	-8.355376	-18.267224	-8.802126	-7.851989	-0.000000	-0.000000	-0.000000	-0.000000	2.624720	0.076300	-0.396760	-0.009277	0.983274	-0.045959	-1.000000	-1.000000	-1.000000	-1.000000	-1.000000	-1.000000	-1.000000	146.482759	0.000000	-1.000000	-1.000000	191832.000000	1772311041.476029
-15982.785000	-9320.670000	-15746.220000	-12772.665000	0.000000	0.000000	0.000000	0.000000	-6.773137	-18.432976	-8.948429	-8.450472	-0.000000	-0.000000	-0.000000	-0.000000	2.624720	0.076300	-0.396760	-0.009277	0.983274	-0.045959	-1.000000	-1.000000	-1.000000	-1.000000	-1.000000	-1.000000	-1.000000	146.482759	0.000000	-1.000000	-1.000000	191833.000000	1772311041.476031
-15983.280000	-9348.705000	-15750.585000	-12778.020000	0.000000	0.000000	0.000000	0.000000	-2.699464	-13.803057	-5.149799	-5.030606	-0.000000	-0.000000	-0.000000	-0.000000	2.624720	0.076300	-0.396760	-0.009277	0.983274	-0.045959	-1.000000	-1.000000	-1.000000	-1.000000	-1.000000	-1.000000	-1.000000	146.482759	0.000000	-1.000000	-1.000000	191834.000000	1772311041.481332
-15998.265000	-9370.125000	-15760.575000	-12785.580000	0.000000	0.000000	0.000000	0.000000	1.483346	-4.675773	0.113455	0.050909	-0.000000	-0.000000	-0.000000	-0.000000	2.624720	0.076300	-0.396760	-0.009277	0.983274	-0.045959	-1.000000	-1.000000	-1.000000	-1.000000	-1.000000	-1.000000	-1.000000	146.482759	0.000000	-1.000000	-1.000000	191835.000000	1772311041.481335
-16002.900000	-9390.465000	-15767.235000	-12801.330000	0.000000	0.000000	0.000000	0.000000	2.664991	6.995381	2.833047	2.497103	-0.000000	-0.000000	-0.000000	-0.000000	3.113040	-0.015260	-0.350980	-0.009094	0.982847	-0.045593	-1.000000	-1.000000	-1.000000	-1.000000	-1.000000	-1.000000	-1.000000	146.482759	0.000000	-1.000000	-1.000000	191836.000000	1772311041.484104
-15991.920000	-9389.475000	-15758.640000	-12802.230000	0.000000	0.000000	0.000000	0.000000	0.713527	18.139354	1.952202	0.737616	-0.000000	-0.000000	-0.000000	-0.000000	3.113040	-0.015260	-0.350980	-0.009094	0.982847	-0.045593	-1.000000	-1.000000	-1.000000	-1.000000	-1.000000	-1.000000	-1.000000	146.482759	0.000000	-1.000000	-1.000000	191837.000000	1772311041.484107
-15995.520000	-9374.895000	-15759.855000	-12798.270000	0.000000	0.000000	0.000000	0.000000	-1.321177	26.292242	-0.007867	-2.593128	-0.000000	-0.000000	-0.000000	-0.000000	3.113040	-0.015260	-0.350980	-0.009094	0.982847	-0.045593	-1.000000	-1.000000	-1.000000	-1.000000	-1.000000	-1.000000	-1.000000	146.482759	0.000000	-1.000000	-1.000000	191838.000000	1772311041.489636
-16002.405000	-9364.815000	-15767.145000	-12802.500000	0.000000	0.000000	0.000000	0.000000	-1.347908	30.163539	-0.673801	-3.678825	-0.000000	-0.000000	-0.000000	-0.000000	3.113040	-0.015260	-0.350980	-0.009094	0.982847	-0.045593	-1.000000	-1.000000	-1.000000	-1.000000	-1.000000	-1.000000	-1.000000	146.482759	0.000000	-1.000000	-1.000000	191839.000000	1772311041.489639
-16001.550000	-9336.105000	-15768.135000	-12802.320000	0.000000	0.000000	0.000000	0.000000	-0.101595	28.854750	-0.137041	-1.402987	-0.000000	-0.000000	-0.000000	-0.000000	3.113040	-0.015260	-0.350980	-0.009094	0.982847	-0.045593	-1.000000	-1.000000	-1.000000	-1.000000	-1.000000	-1.000000	-1.000000	146.482759	0.000000	-1.000000	-1.000000	191840.000000	1772311041.492190
-15988.320000	-9321.120000	-15754.230000	-12789.135000	0.000000	0.000000	0.000000	0.000000	1.364969	22.150200	0.858649	2.667882	-0.000000	-0.000000	-0.000000	-0.000000	3.113040	-0.015260	-0.350980	-0.009094	0.982847	-0.045593	-1.000000	-1.000000	-1.000000	-1.000000	-1.000000	-1.000000	-1.000000	146.482759	0.000000	-1.000000	-1.000000	191841.000000	1772311041.492193
-15980.445000	-9305.055000	-15746.715000	-12783.105000	0.000000	0.000000	0.000000	0.000000	3.171216	10.940442	2.511816	6.652987	-0.000000	-0.000000	-0.000000	-0.000000	3.113040	-0.015260	-0.350980	-0.009094	0.982847	-0.045593	-1.000000	-1.000000	-1.000000	-1.000000	-1.000000	-1.000000	-1.000000	146.482759	0.000000	-1.000000	-1.000000	191842.000000	1772311041.497380
-15973.020000	-9299.250000	-15736.545000	-12773.160000	0.000000	0.000000	0.000000	0.000000	5.146617	-2.917177	4.712092	9.042678	-0.000000	-0.000000	-0.000000	-0.000000	3.113040	-0.015260	-0.350980	-0.009094	0.982847	-0.045593	-1.000000	-1.000000	-1.000000	-1.000000	-1.000000	-1.000000	-1.000000	146.482759	0.000000	-1.000000	-1.000000	191843.000000	1772311041.497384
-15990.615000	-9298.845000	-15751.215000	-12789.855000	0.000000	0.000000	0.000000	0.000000	5.608488	-16.633554	5.775754	8.303856	-0.000000	-0.000000	-0.000000	-0.000000	3.113040	-0.015260	-0.350980	-0.009094	0.982847	-0.045593	-1.000000	-1.000000	-1.000000	-1.000000	-1.000000	-1.000000	-1.000000	146.482759	0.000000	-1.000000	-1.000000	191844.000000	1772311041.500044
-16019.370000	-9279.045000	-15778.395000	-12815.460000	0.000000	0.000000	0.000000	0.000000	2.187153	-26.624476	3.140672	3.107660	-0.000000	-0.000000	-0.000000	-0.000000	3.113040	-0.015260	-0.350980	-0.009094	0.982847	-0.045593	-1.000000	-1.000000	-1.000000	-1.000000	-1.000000	-1.000000	-1.000000	146.482759	0.000000	-1.000000	-1.000000	191845.000000	1772311041.500048
-16024.095000	-9282.285000	-15784.920000	-12821.355000	0.000000	0.000000	0.000000	0.000000	-5.191814	-29.598377	-3.768752	-5.730168	-0.000000	-0.000000	-0.000000	-0.000000	2.868880	-0.091560	-0.488320	-0.009094	0.982725	-0.046875	-1.000000	-1.000000	-1.000000	-1.000000	-1.000000	-1.000000	-1.000000	146.482759	0.000000	-1.000000	-1.000000	191846.000000	1772311041.507713
-16025.715000	-9291.015000	-15788.250000	-12827.295000	0.000000	0.000000	0.000000	0.000000	-12.139827	-25.282521	-11.107009	-13.663099	-0.000000	-0.000000	-0.000000	-0.000000	2.868880	-0.091560	-0.488320	-0.009094	0.982725	-0.046875	-1.000000	-1.000000	-1.000000	-1.000000	-1.000000	-1.000000	-1.000000	146.482759	0.000000	-1.000000	-1.000000	191847.000000	1772311041.507717
-16031.520000	-9291.915000	-15794.820000	-12833.415000	0.000000	0.000000	0.000000	0.000000	-13.195793	-16.834165	-13.410158	-15.498312	-0.000000	-0.000000	-0.000000	-0.000000	2.868880	-0.091560	-0.488320	-0.009094	0.982725	-0.046875	-1.000000	-1.000000	-1.000000	-1.000000	-1.000000	-1.000000	-1.000000	146.482759	0.000000	-1.000000	-1.000000	191848.000000	1772311041.508149
-15997.815000	-9292.320000	-15761.610000	-12799.125000	0.000000	0.000000	0.000000	0.000000	-6.598891	-7.503235	-8.206806	-9.368598	-0.000000	-0.000000	-0.000000	-0.000000	2.868880	-0.091560	-0.488320	-0.009094	0.982725	-0.046875	-1.000000	-1.000000	-1.000000	-1.000000	-1.000000	-1.000000	-1.000000	146.482759	0.000000	-1.000000	-1.000000	191849.000000	1772311041.508152
-15953.580000	-9315.630000	-15715.980000	-12753.945000	0.000000	0.000000	0.000000	0.000000	5.880156	0.691235	3.616443	3.453334	-0.000000	-0.000000	-0.000000	-0.000000	2.868880	-0.091560	-0.488320	-0.009094	0.982725	-0.046875	-1.000000	-1.000000	-1.000000	-1.000000	-1.000000	-1.000000	-1.000000	146.482759	0.000000	-1.000000	-1.000000	191850.000000	1772311041.512184
-15971.220000	-9312.165000	-15732.945000	-12773.160000	0.000000	0.000000	0.000000	0.000000	19.112515	6.214447	17.347940	17.932448	-0.000000	-0.000000	-0.000000	-0.000000	2.868880	-0.091560	-0.488320	-0.009094	0.982725	-0.046875	-1.000000	-1.000000	-1.000000	-1.000000	-1.000000	-1.000000	-1.000000	146.482759	0.000000	-1.000000	-1.000000	191851.000000	1772311041.512187
-16023.060000	-9329.535000	-15780.060000	-12817.305000	0.000000	0.000000	0.000000	0.000000	23.591361	8.769061	23.250296	24.094605	-0.000000	-0.000000	-0.000000	-0.000000	2.868880	-0.091560	-0.488320	-0.009094	0.982725	-0.046875	-1.000000	-1.000000	-1.000000	-1.000000	-1.000000	-1.000000	-1.000000	146.482759	0.000000	-1.000000	-1.000000	191852.000000	1772311041.516129
-16028.235000	-9360.945000	-15784.020000	-12815.325000	0.000000	0.000000	0.000000	0.000000	12.597269	8.750826	13.957859	14.828819	-0.000000	-0.000000	-0.000000	-0.000000	2.868880	-0.091560	-0.488320	-0.009094	0.982725	-0.046875	-1.000000	-1.000000	-1.000000	-1.000000	-1.000000	-1.000000	-1.000000	146.482759	0.000000	-1.000000	-1.000000	191853.000000	1772311041.516133
-16007.355000	-9357.120000	-15764.670000	-12798.765000	0.000000	0.000000	0.000000	0.000000	-7.522134	6.526465	-5.040978	-3.984089	-0.000000	-0.000000	-0.000000	-0.000000	2.868880	-0.091560	-0.488320	-0.009094	0.982725	-0.046875	-1.000000	-1.000000	-1.000000	-1.000000	-1.000000	-1.000000	-1.000000	146.482759	0.000000	-1.000000	-1.000000	191854.000000	1772311041.522510
-16006.140000	-9350.955000	-15765.300000	-12800.475000	0.000000	0.000000	0.000000	0.000000	-21.719421	4.329970	-19.443382	-18.336413	-0.000000	-0.000000	-0.000000	-0.000000	2.868880	-0.091560	-0.488320	-0.009094	0.982725	-0.046875	-1.000000	-1.000000	-1.000000	-1.000000	-1.000000	-1.000000	-1.000000	146.482759	0.000000	-1.000000	-1.000000	191855.000000	1772311041.522514
-16007.715000	-9357.120000	-15770.565000	-12802.500000	0.000000	0.000000	0.000000	0.000000	-21.452045	4.896358	-20.750185	-20.223881	-0.000000	-0.000000	-0.000000	-0.000000	1.953280	0.015260	-0.717220	-0.009033	0.982602	-0.048035	-1.000000	-1.000000	-1.000000	-1.000000	-1.000000	-1.000000	-1.000000	146.482759	0.000000	-1.000000	-1.000000	191856.000000	1772311041.525626
-15993.495000	-9353.970000	-15757.290000	-12789.000000	0.000000	0.000000	0.000000	0.000000	-10.091138	7.608116	-11.513196	-11.926913	-0.000000	-0.000000	-0.000000	-0.000000	1.953280	0.015260	-0.717220	-0.009033	0.982602	-0.048035	-1.000000	-1.000000	-1.000000	-1.000000	-1.000000	-1.000000	-1.000000	146.482759	0.000000	-1.000000	-1.000000	191857.000000	1772311041.525630
-15984.855000	-9338.715000	-15745.545000	-12778.740000	0.000000	0.000000	0.000000	0.000000	3.982290	9.712468	1.154603	0.033679	-0.000000	-0.000000	-0.000000	-0.000000	1.953280	0.015260	-0.717220	-0.009033	0.982602	-0.048035	-1.000000	-1.000000	-1.000000	-1.000000	-1.000000	-1.000000	-1.000000	146.482759	0.000000	-1.000000	-1.000000	191858.000000	1772311041.528277
-15995.700000	-9290.160000	-15751.980000	-12789.045000	0.000000	0.000000	0.000000	0.000000	13.576686	10.410081	11.072620	9.581712	-0.000000	-0.000000	-0.000000	-0.000000	1.953280	0.015260	-0.717220	-0.009033	0.982602	-0.048035	-1.000000	-1.000000	-1.000000	-1.000000	-1.000000	-1.000000	-1.000000	146.482759	0.000000	-1.000000	-1.000000	191859.000000	1772311041.528280
-16002.270000	-9299.205000	-15759.720000	-12796.560000	0.000000	0.000000	0.000000	0.000000	14.638705	10.324521	14.085864	12.399618	-0.000000	-0.000000	-0.000000	-0.000000	1.953280	0.015260	-0.717220	-0.009033	0.982602	-0.048035	-1.000000	-1.000000	-1.000000	-1.000000	-1.000000	-1.000000	-1.000000	146.482759	0.000000	-1.000000	-1.000000	191860.000000	1772311041.532280
-16003.890000	-9326.520000	-15763.500000	-12803.670000	0.000000	0.000000	0.000000	0.000000	7.836431	7.134258	9.462260	7.825603	-0.000000	-0.000000	-0.000000	-0.000000	1.953280	0.015260	-0.717220	-0.009033	0.982602	-0.048035	-1.000000	-1.000000	-1.000000	-1.000000	-1.000000	-1.000000	-1.000000	146.482759	0.000000	-1.000000	-1.000000	191861.000000	1772311041.532284
-16002.270000	-9345.465000	-15760.170000	-12799.215000	0.000000	0.000000	0.000000	0.000000	-1.696474	-2.740151	0.842299	-0.301804	-0.000000	-0.000000	-0.000000	-0.000000	1.953280	0.015260	-0.717220	-0.009033	0.982602	-0.048035	-1.000000	-1.000000	-1.000000	-1.000000	-1.000000	-1.000000	-1.000000	146.482759	0.000000	-1.000000	-1.000000	191862.000000	1772311041.536195
-16003.755000	-9344.295000	-15761.115000	-12800.835000	0.000000	0.000000	0.000000	0.000000	-8.232284	-16.823565	-6.291110	-6.466144	-0.000000	-0.000000	-0.000000	-0.000000	1.953280	0.015260	-0.717220	-0.009033	0.982602	-0.048035	-1.000000	-1.000000	-1.000000	-1.000000	-1.000000	-1.000000	-1.000000	146.482759	0.000000	-1.000000	-1.000000	191863.000000	1772311041.536198
-15999.345000	-9352.440000	-15758.280000	-12797.190000	0.000000	0.000000	0.000000	0.000000	-9.164658	-26.555896	-8.552752	-7.515001	-0.000000	-0.000000	-0.000000	-0.000000	1.953280	0.015260	-0.717220	-0.009033	0.982602	-0.048035	-1.000000	-1.000000	-1.000000	-1.000000	-1.000000	-1.000000	-1.000000	146.482759	0.000000	-1.000000	-1.000000	191864.000000	1772311041.539984
-15995.070000	-9366.030000	-15760.440000	-12796.605000	0.000000	0.000000	0.000000	0.000000	-5.399581	-25.652271	-6.175006	-4.081267	-0.000000	-0.000000	-0.000000	-0.000000	1.953280	0.015260	-0.717220	-0.009033	0.982602	-0.048035	-1.000000	-1.000000	-1.000000	-1.000000	-1.000000	-1.000000	-1.000000	146.482759	0.000000	-1.000000	-1.000000	191865.000000	1772311041.539987
-15988.230000	-9365.985000	-15752.520000	-12787.965000	0.000000	0.000000	0.000000	0.000000	0.332166	-15.086141	-1.592053	1.068475	-0.000000	-0.000000	-0.000000	-0.000000	1.785420	-0.167860	-0.625660	-0.009155	0.983396	-0.047363	-1.000000	-1.000000	-1.000000	-1.000000	-1.000000	-1.000000	-1.000000	146.482759	0.000000	-1.000000	-1.000000	191866.000000	1772311041.544296
-15992.595000	-9365.040000	-15755.940000	-12792.690000	0.000000	0.000000	0.000000	0.000000	5.009098	-0.300965	2.642356	5.126776	-0.000000	-0.000000	-0.000000	-0.000000	1.785420	-0.167860	-0.625660	-0.009155	0.983396	-0.047363	-1.000000	-1.000000	-1.000000	-1.000000	-1.000000	-1.000000	-1.000000	146.482759	0.000000	-1.000000	-1.000000	191867.000000	1772311041.544299
-15993.855000	-9356.715000	-15754.680000	-12791.430000	0.000000	0.000000	0.000000	0.000000	6.389112	13.110036	4.797600	6.242080	-0.000000	-0.000000	-0.000000	-0.000000	1.785420	-0.167860	-0.625660	-0.009155	0.983396	-0.047363	-1.000000	-1.000000	-1.000000	-1.000000	-1.000000	-1.000000	-1.000000	146.482759	0.000000	-1.000000	-1.000000	191868.000000	1772311041.548181
-15995.115000	-9364.410000	-15753.600000	-12787.965000	0.000000	0.000000	0.000000	0.000000	4.142471	21.056175	4.370850	4.274475	-0.000000	-0.000000	-0.000000	-0.000000	1.785420	-0.167860	-0.625660	-0.009155	0.983396	-0.047363	-1.000000	-1.000000	-1.000000	-1.000000	-1.000000	-1.000000	-1.000000	146.482759	0.000000	-1.000000	-1.000000	191869.000000	1772311041.548184
-15972.255000	-9369.045000	-15729.660000	-12764.205000	0.000000	0.000000	0.000000	0.000000	0.480453	21.311650	2.648584	1.273715	-0.000000	-0.000000	-0.000000	-0.000000	1.785420	-0.167860	-0.625660	-0.009155	0.983396	-0.047363	-1.000000	-1.000000	-1.000000	-1.000000	-1.000000	-1.000000	-1.000000	146.482759	0.000000	-1.000000	-1.000000	191870.000000	1772311041.552204
-15967.890000	-9375.480000	-15728.580000	-12761.640000	0.000000	0.000000	0.000000	0.000000	-1.384869	14.373589	1.713665	-0.160668	-0.000000	-0.000000	-0.000000	-0.000000	1.785420	-0.167860	-0.625660	-0.009155	0.983396	-0.047363	-1.000000	-1.000000	-1.000000	-1.000000	-1.000000	-1.000000	-1.000000	146.482759	0.000000	-1.000000	-1.000000	191871.000000	1772311041.552207
-16008.705000	-9378.765000	-15770.655000	-12798.540000	0.000000	0.000000	0.000000	0.000000	-1.352327	3.763300	1.013364	-0.526581	-0.000000	-0.000000	-0.000000	-0.000000	1.785420	-0.167860	-0.625660	-0.009155	0.983396	-0.047363	-1.000000	-1.000000	-1.000000	-1.000000	-1.000000	-1.000000	-1.000000	146.482759	0.000000	-1.000000	-1.000000	191872.000000	1772311041.556171
-16015.095000	-9349.740000	-15777.045000	-12805.965000	0.000000	0.000000	0.000000	0.000000	-2.929731	-5.213525	-2.562006	-3.179672	-0.000000	-0.000000	-0.000000	-0.000000	1.785420	-0.167860	-0.625660	-0.009155	0.983396	-0.047363	-1.000000	-1.000000	-1.000000	-1.000000	-1.000000	-1.000000	-1.000000	146.482759	0.000000	-1.000000	-1.000000	191873.000000	1772311041.556173
-16001.280000	-9330.975000	-15764.625000	-12791.745000	0.000000	0.000000	0.000000	0.000000	-6.682263	-7.891746	-8.352226	-8.045784	-0.000000	-0.000000	-0.000000	-0.000000	1.785420	-0.167860	-0.625660	-0.009155	0.983396	-0.047363	-1.000000	-1.000000	-1.000000	-1.000000	-1.000000	-1.000000	-1.000000	146.482759	0.000000	-1.000000	-1.000000	191874.000000	1772311041.560290
-15987.780000	-9320.310000	-15755.220000	-12782.565000	0.000000	0.000000	0.000000	0.000000	-7.789776	-3.888128	-10.543801	-9.906533	-0.000000	-0.000000	-0.000000	-0.000000	1.785420	-0.167860	-0.625660	-0.009155	0.983396	-0.047363	-1.000000	-1.000000	-1.000000	-1.000000	-1.000000	-1.000000	-1.000000	146.482759	0.000000	-1.000000	-1.000000	191875.000000	1772311041.560294
-15990.615000	-9332.595000	-15756.480000	-12787.515000	0.000000	0.000000	0.000000	0.000000	-2.979226	1.687497	-5.655093	-5.447223	-0.000000	-0.000000	-0.000000	-0.000000	1.983800	0.320460	-0.534100	-0.009705	0.982419	-0.046509	-1.000000	-1.000000	-1.000000	-1.000000	-1.000000	-1.000000	-1.000000	146.482759	0.000000	-1.000000	-1.000000	191876.000000	1772311041.564402
-16010.505000	-9361.980000	-15771.105000	-12812.175000	0.000000	0.000000	0.000000	0.000000	4.402850	2.217674	2.871479	1.954392	-0.000000	-0.000000	-0.000000	-0.000000	1.983800	0.320460	-0.534100	-0.009705	0.982419	-0.046509	-1.000000	-1.000000	-1.000000	-1.000000	-1.000000	-1.000000	-1.000000	146.482759	0.000000	-1.000000	-1.000000	191877.000000	1772311041.564406
-16008.255000	-9393.255000	-15762.735000	-12805.875000	0.000000	0.000000	0.000000	0.000000	8.291048	-4.923590	8.833817	6.395298	-0.000000	-0.000000	-0.000000	-0.000000	1.983800	0.320460	-0.534100	-0.009705	0.982419	-0.046509	-1.000000	-1.000000	-1.000000	-1.000000	-1.000000	-1.000000	-1.000000	146.482759	0.000000	-1.000000	-1.000000	191878.000000	1772311041.568253
-15997.410000	-9414.540000	-15755.130000	-12793.770000	0.000000	0.000000	0.000000	0.000000	6.913446	-15.854382	9.706787	6.410814	-0.000000	-0.000000	-0.000000	-0.000000	1.983800	0.320460	-0.534100	-0.009705	0.982419	-0.046509	-1.000000	-1.000000	-1.000000	-1.000000	-1.000000	-1.000000	-1.000000	146.482759	0.000000	-1.000000	-1.000000	191879.000000	1772311041.568262
-15999.840000	-9439.380000	-15760.710000	-12795.840000	0.000000	0.000000	0.000000	0.000000	3.427162	-22.923574	7.156212	4.994296	-0.000000	-0.000000	-0.000000	-0.000000	1.983800	0.320460	-0.534100	-0.009705	0.982419	-0.046509	-1.000000	-1.000000	-1.000000	-1.000000	-1.000000	-1.000000	-1.000000	146.482759	0.000000	-1.000000	-1.000000	191880.000000	1772311041.572318
-15986.655000	-9423.495000	-15749.010000	-12785.940000	0.000000	0.000000	0.000000	0.000000	1.014208	-20.090416	3.431278	4.313793	-0.000000	-0.000000	-0.000000	-0.000000	1.983800	0.320460	-0.534100	-0.009705	0.982419	-0.046509	-1.000000	-1.000000	-1.000000	-1.000000	-1.000000	-1.000000	-1.000000	146.482759	0.000000	-1.000000	-1.000000	191881.000000	1772311041.572322
-16000.200000	-9419.625000	-15765.030000	-12802.140000	0.000000	0.000000	0.000000	0.000000	0.184203	-6.348339	-0.219451	3.743377	-0.000000	-0.000000	-0.000000	-0.000000	1.983800	0.320460	-0.534100	-0.009705	0.982419	-0.046509	-1.000000	-1.000000	-1.000000	-1.000000	-1.000000	-1.000000	-1.000000	146.482759	0.000000	-1.000000	-1.000000	191882.000000	1772311041.576268
-16011.720000	-9437.940000	-15773.130000	-12806.145000	0.000000	0.000000	0.000000	0.000000	-0.719171	12.614421	-3.634473	1.590966	-0.000000	-0.000000	-0.000000	-0.000000	1.983800	0.320460	-0.534100	-0.009705	0.982419	-0.046509	-1.000000	-1.000000	-1.000000	-1.000000	-1.000000	-1.000000	-1.000000	146.482759	0.000000	-1.000000	-1.000000	191883.000000	1772311041.576271
-16020.720000	-9436.140000	-15772.860000	-12803.715000	0.000000	0.000000	0.000000	0.000000	-3.228980	26.780117	-6.677276	-2.276265	-0.000000	-0.000000	-0.000000	-0.000000	1.983800	0.320460	-0.534100	-0.009705	0.982419	-0.046509	-1.000000	-1.000000	-1.000000	-1.000000	-1.000000	-1.000000	-1.000000	146.482759	0.000000	-1.000000	-1.000000	191884.000000	1772311041.580457
-16028.865000	-9433.665000	-15776.145000	-12812.400000	0.000000	0.000000	0.000000	0.000000	-6.458489	29.580919	-7.948986	-5.696597	-0.000000	-0.000000	-0.000000	-0.000000	1.983800	0.320460	-0.534100	-0.009705	0.982419	-0.046509	-1.000000	-1.000000	-1.000000	-1.000000	-1.000000	-1.000000	-1.000000	146.482759	0.000000	-1.000000	-1.000000	191885.000000	1772311041.580460
-16024.770000	-9448.470000	-15787.575000	-12821.265000	0.000000	0.000000	0.000000	0.000000	-7.780634	21.786629	-6.406339	-6.848679	-0.000000	-0.000000	-0.000000	-0.000000	2.563680	0.228900	-0.396760	-0.009094	0.981992	-0.045471	-1.000000	-1.000000	-1.000000	-1.000000	-1.000000	-1.000000	-1.000000	146.482759	0.000000	-1.000000	-1.000000	191886.000000	1772311041.584334
-15976.710000	-9453.690000	-15749.325000	-12779.055000	0.000000	0.000000	0.000000	0.000000	-4.455337	8.194267	-2.261284	-4.965031	-0.000000	-0.000000	-0.000000	-0.000000	2.563680	0.228900	-0.396760	-0.009094	0.981992	-0.045471	-1.000000	-1.000000	-1.000000	-1.000000	-1.000000	-1.000000	-1.000000	146.482759	0.000000	-1.000000	-1.000000	191887.000000	1772311041.584337
-15983.595000	-9448.920000	-15744.780000	-12776.310000	0.000000	0.000000	0.000000	0.000000	4.071995	-5.372833	4.145506	0.611705	-0.000000	-0.000000	-0.000000	-0.000000	2.563680	0.228900	-0.396760	-0.009094	0.981992	-0.045471	-1.000000	-1.000000	-1.000000	-1.000000	-1.000000	-1.000000	-1.000000	146.482759	0.000000	-1.000000	-1.000000	191888.000000	1772311041.589959
-15983.820000	-9433.845000	-15742.935000	-12775.815000	0.000000	0.000000	0.000000	0.000000	12.933102	-13.431175	10.657674	7.711913	-0.000000	-0.000000	-0.000000	-0.000000	2.563680	0.228900	-0.396760	-0.009094	0.981992	-0.045471	-1.000000	-1.000000	-1.000000	-1.000000	-1.000000	-1.000000	-1.000000	146.482759	0.000000	-1.000000	-1.000000	191889.000000	1772311041.589962
-15957.045000	-9405.630000	-15721.110000	-12755.205000	0.000000	0.000000	0.000000	0.000000	15.481943	-13.050229	13.265040	11.433608	-0.000000	-0.000000	-0.000000	-0.000000	2.563680	0.228900	-0.396760	-0.009094	0.981992	-0.045471	-1.000000	-1.000000	-1.000000	-1.000000	-1.000000	-1.000000	-1.000000	146.482759	0.000000	-1.000000	-1.000000	191890.000000	1772311041.595429
-15973.110000	-9408.240000	-15735.780000	-12768.120000	0.000000	0.000000	0.000000	0.000000	10.330252	-5.963177	10.073595	9.229665	-0.000000	-0.000000	-0.000000	-0.000000	2.563680	0.228900	-0.396760	-0.009094	0.981992	-0.045471	-1.000000	-1.000000	-1.000000	-1.000000	-1.000000	-1.000000	-1.000000	146.482759	0.000000	-1.000000	-1.000000	191891.000000	1772311041.595432
-16009.605000	-9392.355000	-15770.205000	-12803.085000	0.000000	0.000000	0.000000	0.000000	-0.164663	2.001260	1.550249	1.516713	-0.000000	-0.000000	-0.000000	-0.000000	2.563680	0.228900	-0.396760	-0.009094	0.981992	-0.045471	-1.000000	-1.000000	-1.000000	-1.000000	-1.000000	-1.000000	-1.000000	146.482759	0.000000	-1.000000	-1.000000	191892.000000	1772311041.596377
-16019.955000	-9400.230000	-15778.575000	-12813.975000	0.000000	0.000000	0.000000	0.000000	-13.023952	5.280179	-10.314136	-9.687968	-0.000000	-0.000000	-0.000000	-0.000000	2.563680	0.228900	-0.396760	-0.009094	0.981992	-0.045471	-1.000000	-1.000000	-1.000000	-1.000000	-1.000000	-1.000000	-1.000000	146.482759	0.000000	-1.000000	-1.000000	191893.000000	1772311041.596380
-16020.540000	-9422.100000	-15776.820000	-12808.440000	0.000000	0.000000	0.000000	0.000000	-22.733407	1.903470	-20.054036	-19.036926	-0.000000	-0.000000	-0.000000	-0.000000	2.563680	0.228900	-0.396760	-0.009094	0.981992	-0.045471	-1.000000	-1.000000	-1.000000	-1.000000	-1.000000	-1.000000	-1.000000	146.482759	0.000000	-1.000000	-1.000000	191894.000000	1772311041.602394
-16014.555000	-9396.495000	-15770.520000	-12805.020000	0.000000	0.000000	0.000000	0.000000	-22.898063	-5.774719	-21.009502	-19.853882	-0.000000	-0.000000	-0.000000	-0.000000	2.563680	0.228900	-0.396760	-0.009094	0.981992	-0.045471	-1.000000	-1.000000	-1.000000	-1.000000	-1.000000	-1.000000	-1.000000	146.482759	0.000000	-1.000000	-1.000000	191895.000000	1772311041.602397
-16029.630000	-9399.825000	-15789.015000	-12824.820000	0.000000	0.000000	0.000000	0.000000	-12.449918	-11.725644	-11.890198	-10.845551	-0.000000	-0.000000	-0.000000	-0.000000	3.494540	-0.061040	-0.427280	-0.009033	0.981687	-0.045044	-1.000000	-1.000000	-1.000000	-1.000000	-1.000000	-1.000000	-1.000000	146.482759	0.000000	-1.000000	-1.000000	191896.000000	1772311041.604376
-16034.445000	-9416.340000	-15795.765000	-12836.655000	0.000000	0.000000	0.000000	0.000000	2.554541	-11.730302	1.428231	1.942226	-0.000000	-0.000000	-0.000000	-0.000000	3.494540	-0.061040	-0.427280	-0.009033	0.981687	-0.045044	-1.000000	-1.000000	-1.000000	-1.000000	-1.000000	-1.000000	-1.000000	146.482759	0.000000	-1.000000	-1.000000	191897.000000	1772311041.604379
-16017.210000	-9409.770000	-15779.745000	-12815.730000	0.000000	0.000000	0.000000	0.000000	14.629518	-7.233236	11.927990	11.634913	-0.000000	-0.000000	-0.000000	-0.000000	3.494540	-0.061040	-0.427280	-0.009033	0.981687	-0.045044	-1.000000	-1.000000	-1.000000	-1.000000	-1.000000	-1.000000	-1.000000	146.482759	0.000000	-1.000000	-1.000000	191898.000000	1772311041.609704
-15983.055000	-9415.395000	-15742.755000	-12769.560000	0.000000	0.000000	0.000000	0.000000	21.011720	-1.495938	17.642968	17.112022	-0.000000	-0.000000	-0.000000	-0.000000	3.494540	-0.061040	-0.427280	-0.009033	0.981687	-0.045044	-1.000000	-1.000000	-1.000000	-1.000000	-1.000000	-1.000000	-1.000000	146.482759	0.000000	-1.000000	-1.000000	191899.000000	1772311041.609707
-15978.015000	-9451.080000	-15738.390000	-12767.715000	0.000000	0.000000	0.000000	0.000000	22.620491	2.905156	20.027135	20.464823	-0.000000	-0.000000	-0.000000	-0.000000	3.494540	-0.061040	-0.427280	-0.009033	0.981687	-0.045044	-1.000000	-1.000000	-1.000000	-1.000000	-1.000000	-1.000000	-1.000000	146.482759	0.000000	-1.000000	-1.000000	191900.000000	1772311041.612440
-15985.800000	-9459.270000	-15745.815000	-12785.175000	0.000000	0.000000	0.000000	0.000000	19.146035	3.769783	18.414899	20.005766	-0.000000	-0.000000	-0.000000	-0.000000	3.494540	-0.061040	-0.427280	-0.009033	0.981687	-0.045044	-1.000000	-1.000000	-1.000000	-1.000000	-1.000000	-1.000000	-1.000000	146.482759	0.000000	-1.000000	-1.000000	191901.000000	1772311041.612443
