Channel1	Channel2	Channel3	Channel4	Channel5	Channel6	Channel7	Channel8	FilteredChannel1	FilteredChannel2	FilteredChannel3	FilteredChannel4	FilteredChannel5	FilteredChannel6	FilteredChannel7	FilteredChannel8	GyroX	GyroY	GyroZ	AccX	AccY	AccZ	PPG1	PPG2	rawPPG1	rawPPG2	rawPPG3	Hr	Hrv	Battery	Trigger	PhysicalTrigger	AutoTrigger	NumMeasurements	Timestamp
-2675.115000	34625.205000	-14672.430000	-16895.700000	0.000000	0.000000	0.000000	0.000000	-128.968363	2.010835	-170.738251	-191.689318	0.000000	0.000000	-0.000000	0.000000	2.365300	2.197440	-4.532220	-0.001404	0.924253	0.391601	-1.000000	-1.000000	-1.000000	-1.000000	-1.000000	-1.000000	-1.000000	138.827586	0.000000	-1.000000	-1.000000	236725.000000	1772918501.834597
-2539.350000	34579.170000	-14504.265000	-16714.755000	0.000000	0.000000	0.000000	0.000000	-69.273167	-62.146365	-90.049871	-106.326664	0.000000	0.000000	-0.000000	0.000000	2.365300	2.197440	-4.532220	-0.001404	0.924253	0.391601	-1.000000	-1.000000	-1.000000	-1.000000	-1.000000	-1.000000	-1.000000	138.827586	0.000000	-1.000000	-1.000000	236726.000000	1772918501.834599
-2394.765000	34560.720000	-14325.930000	-16506.180000	0.000000	0.000000	0.000000	0.000000	31.860011	-98.846941	42.786943	40.574956	0.000000	0.000000	-0.000000	0.000000	2.365300	2.197440	-4.532220	-0.001404	0.924253	0.391601	-1.000000	-1.000000	-1.000000	-1.000000	-1.000000	-1.000000	-1.000000	138.827586	0.000000	-1.000000	-1.000000	236727.000000	1772918501.838412
-2430.270000	34581.645000	-14374.890000	-16550.505000	0.000000	0.000000	0.000000	0.000000	120.777639	-88.096881	157.130571	170.833745	0.000000	0.000000	-0.000000	0.000000	2.365300	2.197440	-4.532220	-0.001404	0.924253	0.391601	-1.000000	-1.000000	-1.000000	-1.000000	-1.000000	-1.000000	-1.000000	138.827586	0.000000	-1.000000	-1.000000	236728.000000	1772918501.838420
-2456.505000	34575.120000	-14425.380000	-16609.725000	0.000000	0.000000	0.000000	0.000000	148.255312	-37.997827	189.995558	212.742151	0.000000	0.000000	-0.000000	0.000000	2.365300	2.197440	-4.532220	-0.001404	0.924253	0.391601	-1.000000	-1.000000	-1.000000	-1.000000	-1.000000	-1.000000	-1.000000	138.827586	0.000000	-1.000000	-1.000000	236729.000000	1772918501.842627
-2567.475000	34624.530000	-14570.910000	-16760.925000	0.000000	0.000000	0.000000	0.000000	97.528566	24.429718	121.663048	141.230549	0.000000	0.000000	-0.000000	0.000000	2.365300	2.197440	-4.532220	-0.001404	0.924253	0.391601	-1.000000	-1.000000	-1.000000	-1.000000	-1.000000	-1.000000	-1.000000	138.827586	0.000000	-1.000000	-1.000000	236730.000000	1772918501.842630
-2708.730000	34589.250000	-14759.145000	-16973.055000	0.000000	0.000000	0.000000	0.000000	-5.040307	70.214922	-11.803615	-5.977243	0.000000	0.000000	-0.000000	0.000000	2.365300	2.197440	-4.532220	-0.001404	0.924253	0.391601	-1.000000	-1.000000	-1.000000	-1.000000	-1.000000	-1.000000	-1.000000	138.827586	0.000000	-1.000000	-1.000000	236731.000000	1772918501.845558
-2693.520000	34479.540000	-14729.850000	-16958.070000	0.000000	0.000000	0.000000	0.000000	-106.479911	79.530180	-140.713876	-151.967206	0.000000	0.000000	-0.000000	0.000000	2.365300	2.197440	-4.532220	-0.001404	0.924253	0.391601	-1.000000	-1.000000	-1.000000	-1.000000	-1.000000	-1.000000	-1.000000	138.827586	0.000000	-1.000000	-1.000000	236732.000000	1772918501.845561
-2650.680000	34466.535000	-14662.080000	-16889.490000	0.000000	0.000000	0.000000	0.000000	-153.118078	49.142650	-195.870038	-219.037860	0.000000	0.000000	-0.000000	0.000000	2.365300	2.197440	-4.532220	-0.001404	0.924253	0.391601	-1.000000	-1.000000	-1.000000	-1.000000	-1.000000	-1.000000	-1.000000	138.827586	0.000000	-1.000000	-1.000000	236733.000000	1772918501.851632
-2587.455000	34492.410000	-14577.345000	-16787.835000	0.000000	0.000000	0.000000	0.000000	-120.398684	-0.256402	-147.453679	-171.189191	0.000000	0.000000	-0.000000	0.000000	2.365300	2.197440	-4.532220	-0.001404	0.924253	0.391601	-1.000000	-1.000000	-1.000000	-1.000000	-1.000000	-1.000000	-1.000000	138.827586	0.000000	-1.000000	-1.000000	236734.000000	1772918501.851635
-2473.470000	34659.360000	-14409.990000	-16601.805000	0.000000	0.000000	0.000000	0.000000	-28.694661	-33.416696	-24.800796	-36.996076	0.000000	0.000000	-0.000000	0.000000	-2.151660	0.564620	-0.030520	-0.007751	0.926084	0.391540	-1.000000	-1.000000	-1.000000	-1.000000	-1.000000	-1.000000	-1.000000	138.827586	0.000000	-1.000000	-1.000000	236735.000000	1772918501.854453
-2457.585000	34745.085000	-14380.110000	-16564.725000	0.000000	0.000000	0.000000	0.000000	72.035599	-27.199316	105.563174	111.163157	0.000000	0.000000	-0.000000	0.000000	-2.151660	0.564620	-0.030520	-0.007751	0.926084	0.391540	-1.000000	-1.000000	-1.000000	-1.000000	-1.000000	-1.000000	-1.000000	138.827586	0.000000	-1.000000	-1.000000	236736.000000	1772918501.854456
-2487.195000	34674.435000	-14431.185000	-16618.455000	0.000000	0.000000	0.000000	0.000000	130.567161	6.634259	177.054466	197.058265	0.000000	0.000000	-0.000000	0.000000	-2.151660	0.564620	-0.030520	-0.007751	0.926084	0.391540	-1.000000	-1.000000	-1.000000	-1.000000	-1.000000	-1.000000	-1.000000	138.827586	0.000000	-1.000000	-1.000000	236737.000000	1772918501.860828
-2555.865000	34675.740000	-14537.295000	-16733.160000	0.000000	0.000000	0.000000	0.000000	119.720841	30.108669	154.731746	178.145818	0.000000	0.000000	-0.000000	0.000000	-2.151660	0.564620	-0.030520	-0.007751	0.926084	0.391540	-1.000000	-1.000000	-1.000000	-1.000000	-1.000000	-1.000000	-1.000000	138.827586	0.000000	-1.000000	-1.000000	236738.000000	1772918501.860830
-2724.165000	34703.550000	-14739.255000	-16962.075000	0.000000	0.000000	0.000000	0.000000	48.433600	19.568339	52.474667	67.048625	0.000000	0.000000	-0.000000	0.000000	-2.151660	0.564620	-0.030520	-0.007751	0.926084	0.391540	-1.000000	-1.000000	-1.000000	-1.000000	-1.000000	-1.000000	-1.000000	138.827586	0.000000	-1.000000	-1.000000	236739.000000	1772918501.863946
-2767.815000	34699.455000	-14789.070000	-17034.840000	0.000000	0.000000	0.000000	0.000000	-45.797048	-13.601036	-75.753983	-77.414207	0.000000	0.000000	-0.000000	0.000000	-2.151660	0.564620	-0.030520	-0.007751	0.926084	0.391540	-1.000000	-1.000000	-1.000000	-1.000000	-1.000000	-1.000000	-1.000000	138.827586	0.000000	-1.000000	-1.000000	236740.000000	1772918501.863952
-2734.740000	34746.750000	-14737.005000	-16973.775000	0.000000	0.000000	0.000000	0.000000	-113.257734	-42.854717	-161.433586	-178.173995	0.000000	0.000000	-0.000000	0.000000	-2.151660	0.564620	-0.030520	-0.007751	0.926084	0.391540	-1.000000	-1.000000	-1.000000	-1.000000	-1.000000	-1.000000	-1.000000	138.827586	0.000000	-1.000000	-1.000000	236741.000000	1772918501.866986
-2658.870000	34722.270000	-14649.480000	-16871.445000	0.000000	0.000000	0.000000	0.000000	-115.997119	-50.955123	-157.044666	-178.983665	0.000000	0.000000	-0.000000	0.000000	-2.151660	0.564620	-0.030520	-0.007751	0.926084	0.391540	-1.000000	-1.000000	-1.000000	-1.000000	-1.000000	-1.000000	-1.000000	138.827586	0.000000	-1.000000	-1.000000	236742.000000	1772918501.866989
-2506.905000	34668.045000	-14456.835000	-16652.565000	0.000000	0.000000	0.000000	0.000000	-51.775997	-39.389751	-65.495451	-79.210037	0.000000	0.000000	-0.000000	0.000000	-2.151660	0.564620	-0.030520	-0.007751	0.926084	0.391540	-1.000000	-1.000000	-1.000000	-1.000000	-1.000000	-1.000000	-1.000000	138.827586	0.000000	-1.000000	-1.000000	236743.000000	1772918501.870585
-2459.700000	34763.985000	-14397.030000	-16565.040000	0.000000	0.000000	0.000000	0.000000	43.849024	-19.566119	62.560507	66.033715	0.000000	0.000000	-0.000000	0.000000	-2.151660	0.564620	-0.030520	-0.007751	0.926084	0.391540	-1.000000	-1.000000	-1.000000	-1.000000	-1.000000	-1.000000	-1.000000	138.827586	0.000000	-1.000000	-1.000000	236744.000000	1772918501.870588
-2486.070000	34762.860000	-14431.365000	-16608.915000	0.000000	0.000000	0.000000	0.000000	116.602947	2.574138	156.550528	176.210648	0.000000	0.000000	-0.000000	0.000000	-1.236060	0.015260	1.281840	-0.011414	0.910764	0.395873	-1.000000	-1.000000	-1.000000	-1.000000	-1.000000	-1.000000	-1.000000	138.827586	0.000000	-1.000000	-1.000000	236745.000000	1772918501.874532
-2536.020000	34737.705000	-14491.170000	-16678.755000	0.000000	0.000000	0.000000	0.000000	124.315139	22.989152	164.450640	189.266259	0.000000	0.000000	-0.000000	0.000000	-1.236060	0.015260	1.281840	-0.011414	0.910764	0.395873	-1.000000	-1.000000	-1.000000	-1.000000	-1.000000	-1.000000	-1.000000	138.827586	0.000000	-1.000000	-1.000000	236746.000000	1772918501.874550
-2671.560000	34698.555000	-14674.050000	-16870.095000	0.000000	0.000000	0.000000	0.000000	62.973339	31.977992	83.398045	98.884605	0.000000	0.000000	-0.000000	0.000000	-1.236060	0.015260	1.281840	-0.011414	0.910764	0.395873	-1.000000	-1.000000	-1.000000	-1.000000	-1.000000	-1.000000	-1.000000	138.827586	0.000000	-1.000000	-1.000000	236747.000000	1772918501.878557
-2766.105000	34628.220000	-14788.170000	-17018.415000	0.000000	0.000000	0.000000	0.000000	-33.849890	22.946148	-42.534462	-45.409438	0.000000	0.000000	-0.000000	0.000000	-1.236060	0.015260	1.281840	-0.011414	0.910764	0.395873	-1.000000	-1.000000	-1.000000	-1.000000	-1.000000	-1.000000	-1.000000	138.827586	0.000000	-1.000000	-1.000000	236748.000000	1772918501.878560
-2724.750000	34632.585000	-14747.670000	-16980.255000	0.000000	0.000000	0.000000	0.000000	-114.333553	1.480183	-146.815696	-167.332096	0.000000	0.000000	-0.000000	0.000000	-1.236060	0.015260	1.281840	-0.011414	0.910764	0.395873	-1.000000	-1.000000	-1.000000	-1.000000	-1.000000	-1.000000	-1.000000	138.827586	0.000000	-1.000000	-1.000000	236749.000000	1772918501.882589
-2680.425000	34656.255000	-14680.620000	-16907.490000	0.000000	0.000000	0.000000	0.000000	-133.804989	-16.417803	-172.324139	-200.806282	0.000000	0.000000	-0.000000	0.000000	-1.236060	0.015260	1.281840	-0.011414	0.910764	0.395873	-1.000000	-1.000000	-1.000000	-1.000000	-1.000000	-1.000000	-1.000000	138.827586	0.000000	-1.000000	-1.000000	236750.000000	1772918501.882592
-2580.795000	34692.660000	-14535.630000	-16745.130000	0.000000	0.000000	0.000000	0.000000	-81.634302	-16.140173	-104.989591	-127.323639	0.000000	0.000000	-0.000000	0.000000	-1.236060	0.015260	1.281840	-0.011414	0.910764	0.395873	-1.000000	-1.000000	-1.000000	-1.000000	-1.000000	-1.000000	-1.000000	138.827586	0.000000	-1.000000	-1.000000	236751.000000	1772918501.886594
-2486.700000	34826.895000	-14407.740000	-16585.965000	0.000000	0.000000	0.000000	0.000000	12.281630	4.632671	17.556408	12.831908	0.000000	0.000000	-0.000000	0.000000	-1.236060	0.015260	1.281840	-0.011414	0.910764	0.395873	-1.000000	-1.000000	-1.000000	-1.000000	-1.000000	-1.000000	-1.000000	138.827586	0.000000	-1.000000	-1.000000	236752.000000	1772918501.886596
-2511.810000	34890.930000	-14445.000000	-16621.650000	0.000000	0.000000	0.000000	0.000000	96.945109	36.040207	128.688820	144.374063	0.000000	0.000000	-0.000000	0.000000	-1.236060	0.015260	1.281840	-0.011414	0.910764	0.395873	-1.000000	-1.000000	-1.000000	-1.000000	-1.000000	-1.000000	-1.000000	138.827586	0.000000	-1.000000	-1.000000	236753.000000	1772918501.890600
-2560.905000	34914.825000	-14510.790000	-16697.520000	0.000000	0.000000	0.000000	0.000000	127.348862	59.412244	167.792128	195.922500	0.000000	0.000000	-0.000000	0.000000	-1.236060	0.015260	1.281840	-0.011414	0.910764	0.395873	-1.000000	-1.000000	-1.000000	-1.000000	-1.000000	-1.000000	-1.000000	138.827586	0.000000	-1.000000	-1.000000	236754.000000	1772918501.890603
-2641.365000	34859.070000	-14620.590000	-16821.180000	0.000000	0.000000	0.000000	0.000000	89.125823	54.689793	115.155826	140.844525	0.000000	0.000000	-0.000000	0.000000	4.471180	0.213640	0.350980	-0.007751	0.900755	0.402953	-1.000000	-1.000000	-1.000000	-1.000000	-1.000000	-1.000000	-1.000000	138.827586	0.000000	-1.000000	-1.000000	236755.000000	1772918501.894592
-2735.280000	34634.655000	-14755.905000	-16985.655000	0.000000	0.000000	0.000000	0.000000	6.214105	12.280082	3.086497	12.995837	0.000000	0.000000	-0.000000	0.000000	4.471180	0.213640	0.350980	-0.007751	0.900755	0.402953	-1.000000	-1.000000	-1.000000	-1.000000	-1.000000	-1.000000	-1.000000	138.827586	0.000000	-1.000000	-1.000000	236756.000000	1772918501.894595
-2725.920000	34563.195000	-14741.730000	-16979.175000	0.000000	0.000000	0.000000	0.000000	-75.228342	-57.144100	-106.169567	-116.635200	0.000000	0.000000	-0.000000	0.000000	4.471180	0.213640	0.350980	-0.007751	0.900755	0.402953	-1.000000	-1.000000	-1.000000	-1.000000	-1.000000	-1.000000	-1.000000	138.827586	0.000000	-1.000000	-1.000000	236757.000000	1772918501.898570
-2695.320000	34603.335000	-14696.325000	-16922.790000	0.000000	0.000000	0.000000	0.000000	-112.118247	-116.711728	-154.301161	-178.692262	0.000000	0.000000	-0.000000	0.000000	4.471180	0.213640	0.350980	-0.007751	0.900755	0.402953	-1.000000	-1.000000	-1.000000	-1.000000	-1.000000	-1.000000	-1.000000	138.827586	0.000000	-1.000000	-1.000000	236758.000000	1772918501.898573
-2616.075000	34599.600000	-14591.565000	-16807.005000	0.000000	0.000000	0.000000	0.000000	-87.148783	-122.834718	-117.812494	-142.160116	0.000000	0.000000	-0.000000	0.000000	4.471180	0.213640	0.350980	-0.007751	0.900755	0.402953	-1.000000	-1.000000	-1.000000	-1.000000	-1.000000	-1.000000	-1.000000	138.827586	0.000000	-1.000000	-1.000000	236759.000000	1772918501.903305
-2474.730000	34651.440000	-14404.545000	-16588.620000	0.000000	0.000000	0.000000	0.000000	-16.068849	-64.665017	-18.890486	-29.689319	0.000000	0.000000	-0.000000	0.000000	4.471180	0.213640	0.350980	-0.007751	0.900755	0.402953	-1.000000	-1.000000	-1.000000	-1.000000	-1.000000	-1.000000	-1.000000	138.827586	0.000000	-1.000000	-1.000000	236760.000000	1772918501.903307
-2425.365000	34598.340000	-14357.790000	-16529.265000	0.000000	0.000000	0.000000	0.000000	64.039312	25.088262	90.541408	99.082473	0.000000	0.000000	-0.000000	0.000000	4.471180	0.213640	0.350980	-0.007751	0.900755	0.402953	-1.000000	-1.000000	-1.000000	-1.000000	-1.000000	-1.000000	-1.000000	138.827586	0.000000	-1.000000	-1.000000	236761.000000	1772918501.908585
-2458.935000	34499.070000	-14411.340000	-16589.385000	0.000000	0.000000	0.000000	0.000000	111.364796	95.005538	152.807841	175.851522	0.000000	0.000000	-0.000000	0.000000	4.471180	0.213640	0.350980	-0.007751	0.900755	0.402953	-1.000000	-1.000000	-1.000000	-1.000000	-1.000000	-1.000000	-1.000000	138.827586	0.000000	-1.000000	-1.000000	236762.000000	1772918501.908588
-2552.895000	34533.720000	-14529.870000	-16715.565000	0.000000	0.000000	0.000000	0.000000	98.113734	111.110917	131.713974	156.346304	0.000000	0.000000	-0.000000	0.000000	4.471180	0.213640	0.350980	-0.007751	0.900755	0.402953	-1.000000	-1.000000	-1.000000	-1.000000	-1.000000	-1.000000	-1.000000	138.827586	0.000000	-1.000000	-1.000000	236763.000000	1772918501.910650
-2714.085000	34550.370000	-14732.865000	-16944.615000	0.000000	0.000000	0.000000	0.000000	27.389421	79.905141	35.033942	47.610708	0.000000	0.000000	-0.000000	0.000000	4.471180	0.213640	0.350980	-0.007751	0.900755	0.402953	-1.000000	-1.000000	-1.000000	-1.000000	-1.000000	-1.000000	-1.000000	138.827586	0.000000	-1.000000	-1.000000	236764.000000	1772918501.910675
-2737.845000	34467.120000	-14768.910000	-16999.200000	0.000000	0.000000	0.000000	0.000000	-65.103704	31.786680	-87.070251	-93.558344	0.000000	0.000000	-0.000000	0.000000	12.497940	-0.457800	-0.488320	-0.003967	0.895261	0.407470	-1.000000	-1.000000	-1.000000	-1.000000	-1.000000	-1.000000	-1.000000	138.827586	0.000000	-1.000000	-1.000000	236765.000000	1772918501.914556
-2692.845000	34467.120000	-14714.010000	-16940.925000	0.000000	0.000000	0.000000	0.000000	-126.787084	-10.580034	-166.098717	-188.585659	0.000000	0.000000	-0.000000	0.000000	12.497940	-0.457800	-0.488320	-0.003967	0.895261	0.407470	-1.000000	-1.000000	-1.000000	-1.000000	-1.000000	-1.000000	-1.000000	138.827586	0.000000	-1.000000	-1.000000	236766.000000	1772918501.914558
-2611.260000	34416.810000	-14606.865000	-16828.605000	0.000000	0.000000	0.000000	0.000000	-119.105382	-37.744800	-154.227607	-181.083946	0.000000	0.000000	-0.000000	0.000000	12.497940	-0.457800	-0.488320	-0.003967	0.895261	0.407470	-1.000000	-1.000000	-1.000000	-1.000000	-1.000000	-1.000000	-1.000000	138.827586	0.000000	-1.000000	-1.000000	236767.000000	1772918501.920543
-2497.995000	34454.205000	-14432.760000	-16626.915000	0.000000	0.000000	0.000000	0.000000	-44.782597	-45.768826	-56.160358	-73.371206	0.000000	0.000000	-0.000000	0.000000	12.497940	-0.457800	-0.488320	-0.003967	0.895261	0.407470	-1.000000	-1.000000	-1.000000	-1.000000	-1.000000	-1.000000	-1.000000	138.827586	0.000000	-1.000000	-1.000000	236768.000000	1772918501.920546
-2439.585000	34529.760000	-14370.255000	-16533.270000	0.000000	0.000000	0.000000	0.000000	54.509887	-33.555780	74.281563	75.983670	0.000000	0.000000	-0.000000	0.000000	12.497940	-0.457800	-0.488320	-0.003967	0.895261	0.407470	-1.000000	-1.000000	-1.000000	-1.000000	-1.000000	-1.000000	-1.000000	138.827586	0.000000	-1.000000	-1.000000	236769.000000	1772918501.922616
-2479.500000	34540.200000	-14439.105000	-16592.310000	0.000000	0.000000	0.000000	0.000000	124.036972	-5.664571	164.741597	185.440139	0.000000	0.000000	-0.000000	0.000000	12.497940	-0.457800	-0.488320	-0.003967	0.895261	0.407470	-1.000000	-1.000000	-1.000000	-1.000000	-1.000000	-1.000000	-1.000000	138.827586	0.000000	-1.000000	-1.000000	236770.000000	1772918501.922618
-2531.070000	34518.780000	-14512.455000	-16674.165000	0.000000	0.000000	0.000000	0.000000	126.446915	22.526277	164.550780	194.451528	0.000000	0.000000	-0.000000	0.000000	12.497940	-0.457800	-0.488320	-0.003967	0.895261	0.407470	-1.000000	-1.000000	-1.000000	-1.000000	-1.000000	-1.000000	-1.000000	138.827586	0.000000	-1.000000	-1.000000	236771.000000	1772918501.926808
-2677.005000	34530.930000	-14688.270000	-16885.980000	0.000000	0.000000	0.000000	0.000000	61.940155	32.790746	75.432209	98.860686	0.000000	0.000000	-0.000000	0.000000	12.497940	-0.457800	-0.488320	-0.003967	0.895261	0.407470	-1.000000	-1.000000	-1.000000	-1.000000	-1.000000	-1.000000	-1.000000	138.827586	0.000000	-1.000000	-1.000000	236772.000000	1772918501.926811
-2744.415000	34443.990000	-14770.935000	-17007.975000	0.000000	0.000000	0.000000	0.000000	-34.304066	19.100493	-52.214908	-49.073614	0.000000	0.000000	-0.000000	0.000000	12.497940	-0.457800	-0.488320	-0.003967	0.895261	0.407470	-1.000000	-1.000000	-1.000000	-1.000000	-1.000000	-1.000000	-1.000000	138.827586	0.000000	-1.000000	-1.000000	236773.000000	1772918501.930690
-2719.530000	34422.705000	-14727.915000	-16960.995000	0.000000	0.000000	0.000000	0.000000	-110.893419	-10.427561	-149.012035	-169.821218	0.000000	0.000000	-0.000000	0.000000	12.497940	-0.457800	-0.488320	-0.003967	0.895261	0.407470	-1.000000	-1.000000	-1.000000	-1.000000	-1.000000	-1.000000	-1.000000	138.827586	0.000000	-1.000000	-1.000000	236774.000000	1772918501.930693
-2680.695000	34451.685000	-14660.190000	-16888.545000	0.000000	0.000000	0.000000	0.000000	-126.333504	-38.199985	-162.750359	-197.149507	0.000000	0.000000	-0.000000	0.000000	13.947640	0.076300	0.335720	-0.002441	0.901792	0.404723	-1.000000	-1.000000	-1.000000	-1.000000	-1.000000	-1.000000	-1.000000	138.827586	0.000000	-1.000000	-1.000000	236775.000000	1772918501.934657
-2518.290000	34320.060000	-14458.725000	-16671.915000	0.000000	0.000000	0.000000	0.000000	-72.670979	-47.966613	-87.154153	-116.359405	0.000000	0.000000	-0.000000	0.000000	13.947640	0.076300	0.335720	-0.002441	0.901792	0.404723	-1.000000	-1.000000	-1.000000	-1.000000	-1.000000	-1.000000	-1.000000	138.827586	0.000000	-1.000000	-1.000000	236776.000000	1772918501.934659
-2389.140000	34290.585000	-14307.930000	-16487.370000	0.000000	0.000000	0.000000	0.000000	22.304121	-39.300199	37.362191	29.079474	0.000000	0.000000	-0.000000	0.000000	13.947640	0.076300	0.335720	-0.002441	0.901792	0.404723	-1.000000	-1.000000	-1.000000	-1.000000	-1.000000	-1.000000	-1.000000	138.827586	0.000000	-1.000000	-1.000000	236777.000000	1772918501.938795
-2405.070000	34279.920000	-14341.590000	-16518.420000	0.000000	0.000000	0.000000	0.000000	109.239133	-21.125146	144.834496	161.734222	0.000000	0.000000	-0.000000	0.000000	13.947640	0.076300	0.335720	-0.002441	0.901792	0.404723	-1.000000	-1.000000	-1.000000	-1.000000	-1.000000	-1.000000	-1.000000	138.827586	0.000000	-1.000000	-1.000000	236778.000000	1772918501.938798
-2443.860000	34247.745000	-14408.820000	-16594.650000	0.000000	0.000000	0.000000	0.000000	139.065385	1.597985	174.364565	207.315882	0.000000	0.000000	-0.000000	0.000000	13.947640	0.076300	0.335720	-0.002441	0.901792	0.404723	-1.000000	-1.000000	-1.000000	-1.000000	-1.000000	-1.000000	-1.000000	138.827586	0.000000	-1.000000	-1.000000	236779.000000	1772918501.942804
-2518.515000	34176.960000	-14523.345000	-16723.350000	0.000000	0.000000	0.000000	0.000000	93.273605	23.487762	107.385403	138.943006	0.000000	0.000000	-0.000000	0.000000	13.947640	0.076300	0.335720	-0.002441	0.901792	0.404723	-1.000000	-1.000000	-1.000000	-1.000000	-1.000000	-1.000000	-1.000000	138.827586	0.000000	-1.000000	-1.000000	236780.000000	1772918501.942807
-2655.540000	34050.105000	-14680.890000	-16911.270000	0.000000	0.000000	0.000000	0.000000	-3.272035	34.095871	-19.170330	-4.906556	0.000000	0.000000	-0.000000	0.000000	13.947640	0.076300	0.335720	-0.002441	0.901792	0.404723	-1.000000	-1.000000	-1.000000	-1.000000	-1.000000	-1.000000	-1.000000	138.827586	0.000000	-1.000000	-1.000000	236781.000000	1772918501.946805
-2664.630000	33951.195000	-14671.485000	-16904.880000	0.000000	0.000000	0.000000	0.000000	-100.034094	25.894878	-137.420686	-146.472173	0.000000	0.000000	-0.000000	0.000000	13.947640	0.076300	0.335720	-0.002441	0.901792	0.404723	-1.000000	-1.000000	-1.000000	-1.000000	-1.000000	-1.000000	-1.000000	138.827586	0.000000	-1.000000	-1.000000	236782.000000	1772918501.946808
-2653.875000	34008.210000	-14643.000000	-16868.385000	0.000000	0.000000	0.000000	0.000000	-147.551325	6.584097	-185.245345	-211.008325	0.000000	0.000000	-0.000000	0.000000	13.947640	0.076300	0.335720	-0.002441	0.901792	0.404723	-1.000000	-1.000000	-1.000000	-1.000000	-1.000000	-1.000000	-1.000000	138.827586	0.000000	-1.000000	-1.000000	236783.000000	1772918501.954064
-2579.760000	34097.850000	-14545.530000	-16760.160000	0.000000	0.000000	0.000000	0.000000	-122.085921	-1.284758	-139.029717	-166.418465	0.000000	0.000000	-0.000000	0.000000	13.947640	0.076300	0.335720	-0.002441	0.901792	0.404723	-1.000000	-1.000000	-1.000000	-1.000000	-1.000000	-1.000000	-1.000000	138.827586	0.000000	-1.000000	-1.000000	236784.000000	1772918501.954068
-2432.745000	34210.395000	-14361.570000	-16541.280000	0.000000	0.000000	0.000000	0.000000	-37.307278	18.034128	-24.588060	-38.834548	0.000000	0.000000	-0.000000	0.000000	14.558040	-0.488320	-1.449700	-0.004272	0.908628	0.400817	-1.000000	-1.000000	-1.000000	-1.000000	-1.000000	-1.000000	-1.000000	138.827586	0.000000	-1.000000	-1.000000	236785.000000	1772918501.957071
-2441.880000	34289.190000	-14368.905000	-16534.530000	0.000000	0.000000	0.000000	0.000000	64.203055	54.512220	99.982928	105.836102	0.000000	0.000000	-0.000000	0.000000	14.558040	-0.488320	-1.449700	-0.004272	0.908628	0.400817	-1.000000	-1.000000	-1.000000	-1.000000	-1.000000	-1.000000	-1.000000	138.827586	0.000000	-1.000000	-1.000000	236786.000000	1772918501.957074
-2490.165000	34332.435000	-14436.990000	-16617.015000	0.000000	0.000000	0.000000	0.000000	129.617043	79.427201	170.499175	192.242068	0.000000	0.000000	-0.000000	0.000000	14.558040	-0.488320	-1.449700	-0.004272	0.908628	0.400817	-1.000000	-1.000000	-1.000000	-1.000000	-1.000000	-1.000000	-1.000000	138.827586	0.000000	-1.000000	-1.000000	236787.000000	1772918501.960443
-2587.680000	34414.830000	-14544.000000	-16738.380000	0.000000	0.000000	0.000000	0.000000	123.869979	69.737661	149.505949	173.688715	0.000000	0.000000	-0.000000	0.000000	14.558040	-0.488320	-1.449700	-0.004272	0.908628	0.400817	-1.000000	-1.000000	-1.000000	-1.000000	-1.000000	-1.000000	-1.000000	138.827586	0.000000	-1.000000	-1.000000	236788.000000	1772918501.960446
-2732.760000	34418.160000	-14742.315000	-16965.090000	0.000000	0.000000	0.000000	0.000000	52.315674	25.402809	50.223079	62.035875	0.000000	0.000000	-0.000000	0.000000	14.558040	-0.488320	-1.449700	-0.004272	0.908628	0.400817	-1.000000	-1.000000	-1.000000	-1.000000	-1.000000	-1.000000	-1.000000	138.827586	0.000000	-1.000000	-1.000000	236789.000000	1772918501.968318
-2736.540000	34287.705000	-14768.010000	-16997.130000	0.000000	0.000000	0.000000	0.000000	-43.015127	-37.307252	-72.342243	-80.043444	0.000000	0.000000	-0.000000	0.000000	14.558040	-0.488320	-1.449700	-0.004272	0.908628	0.400817	-1.000000	-1.000000	-1.000000	-1.000000	-1.000000	-1.000000	-1.000000	138.827586	0.000000	-1.000000	-1.000000	236790.000000	1772918501.968321
-2692.665000	34252.380000	-14711.715000	-16932.465000	0.000000	0.000000	0.000000	0.000000	-106.760538	-99.141072	-150.400555	-172.938766	0.000000	0.000000	-0.000000	0.000000	14.558040	-0.488320	-1.449700	-0.004272	0.908628	0.400817	-1.000000	-1.000000	-1.000000	-1.000000	-1.000000	-1.000000	-1.000000	138.827586	0.000000	-1.000000	-1.000000	236791.000000	1772918501.968325
-2638.755000	34256.835000	-14630.895000	-16843.905000	0.000000	0.000000	0.000000	0.000000	-103.228140	-136.949864	-140.385626	-164.431809	0.000000	0.000000	-0.000000	0.000000	14.558040	-0.488320	-1.449700	-0.004272	0.908628	0.400817	-1.000000	-1.000000	-1.000000	-1.000000	-1.000000	-1.000000	-1.000000	138.827586	0.000000	-1.000000	-1.000000	236792.000000	1772918501.968327
-2486.880000	34263.945000	-14432.085000	-16617.825000	0.000000	0.000000	0.000000	0.000000	-38.250688	-128.981053	-49.718506	-61.657263	0.000000	0.000000	-0.000000	0.000000	14.558040	-0.488320	-1.449700	-0.004272	0.908628	0.400817	-1.000000	-1.000000	-1.000000	-1.000000	-1.000000	-1.000000	-1.000000	138.827586	0.000000	-1.000000	-1.000000	236793.000000	1772918501.971130
-2441.385000	34317.000000	-14360.625000	-16529.985000	0.000000	0.000000	0.000000	0.000000	49.292552	-73.224974	70.801343	77.454125	0.000000	0.000000	-0.000000	0.000000	14.558040	-0.488320	-1.449700	-0.004272	0.908628	0.400817	-1.000000	-1.000000	-1.000000	-1.000000	-1.000000	-1.000000	-1.000000	138.827586	0.000000	-1.000000	-1.000000	236794.000000	1772918501.971143
-2502.450000	34409.835000	-14432.220000	-16616.880000	0.000000	0.000000	0.000000	0.000000	109.465207	8.800764	154.355452	175.838610	0.000000	0.000000	-0.000000	0.000000	16.389240	-0.671440	-0.839300	-0.006653	0.907651	0.399413	-1.000000	-1.000000	-1.000000	-1.000000	-1.000000	-1.000000	-1.000000	138.827586	0.000000	-1.000000	-1.000000	236795.000000	1772918502.079383
-2549.745000	34430.535000	-14501.790000	-16696.935000	0.000000	0.000000	0.000000	0.000000	106.458229	84.584182	152.087468	176.165266	0.000000	0.000000	-0.000000	0.000000	16.389240	-0.671440	-0.839300	-0.006653	0.907651	0.399413	-1.000000	-1.000000	-1.000000	-1.000000	-1.000000	-1.000000	-1.000000	138.827586	0.000000	-1.000000	-1.000000	236796.000000	1772918502.079388
-2702.745000	34440.255000	-14700.465000	-16912.485000	0.000000	0.000000	0.000000	0.000000	41.141307	123.739073	63.710050	76.845942	0.000000	0.000000	-0.000000	0.000000	16.389240	-0.671440	-0.839300	-0.006653	0.907651	0.399413	-1.000000	-1.000000	-1.000000	-1.000000	-1.000000	-1.000000	-1.000000	138.827586	0.000000	-1.000000	-1.000000	236797.000000	1772918502.079418
-2773.530000	34413.885000	-14799.150000	-17033.445000	0.000000	0.000000	0.000000	0.000000	-50.635612	111.336979	-63.135128	-67.766945	0.000000	0.000000	-0.000000	0.000000	16.389240	-0.671440	-0.839300	-0.006653	0.907651	0.399413	-1.000000	-1.000000	-1.000000	-1.000000	-1.000000	-1.000000	-1.000000	138.827586	0.000000	-1.000000	-1.000000	236798.000000	1772918502.079420
-2743.155000	34423.785000	-14755.230000	-16991.640000	0.000000	0.000000	0.000000	0.000000	-118.756611	57.114963	-159.756651	-179.267343	0.000000	0.000000	-0.000000	0.000000	16.389240	-0.671440	-0.839300	-0.006653	0.907651	0.399413	-1.000000	-1.000000	-1.000000	-1.000000	-1.000000	-1.000000	-1.000000	138.827586	0.000000	-1.000000	-1.000000	236799.000000	1772918502.079439
-2698.065000	34437.960000	-14688.090000	-16919.280000	0.000000	0.000000	0.000000	0.000000	-124.369695	-9.578207	-171.666852	-195.645660	0.000000	0.000000	-0.000000	0.000000	16.389240	-0.671440	-0.839300	-0.006653	0.907651	0.399413	-1.000000	-1.000000	-1.000000	-1.000000	-1.000000	-1.000000	-1.000000	138.827586	0.000000	-1.000000	-1.000000	236800.000000	1772918502.079441
-2578.455000	34481.925000	-14540.490000	-16740.270000	0.000000	0.000000	0.000000	0.000000	-63.215242	-57.088694	-91.544496	-107.231758	0.000000	0.000000	-0.000000	0.000000	16.389240	-0.671440	-0.839300	-0.006653	0.907651	0.399413	-1.000000	-1.000000	-1.000000	-1.000000	-1.000000	-1.000000	-1.000000	138.827586	0.000000	-1.000000	-1.000000	236801.000000	1772918502.079462
-2469.240000	34528.320000	-14399.550000	-16571.925000	0.000000	0.000000	0.000000	0.000000	32.689817	-68.432124	37.238358	38.961636	0.000000	0.000000	-0.000000	0.000000	16.389240	-0.671440	-0.839300	-0.006653	0.907651	0.399413	-1.000000	-1.000000	-1.000000	-1.000000	-1.000000	-1.000000	-1.000000	138.827586	0.000000	-1.000000	-1.000000	236802.000000	1772918502.079464
-2492.505000	34525.620000	-14426.190000	-16603.380000	0.000000	0.000000	0.000000	0.000000	113.732145	-48.074544	147.041380	166.576069	0.000000	0.000000	-0.000000	0.000000	16.389240	-0.671440	-0.839300	-0.006653	0.907651	0.399413	-1.000000	-1.000000	-1.000000	-1.000000	-1.000000	-1.000000	-1.000000	138.827586	0.000000	-1.000000	-1.000000	236803.000000	1772918502.079481
-2557.440000	34602.795000	-14509.170000	-16698.690000	0.000000	0.000000	0.000000	0.000000	136.143575	-14.777874	179.307592	206.685322	0.000000	0.000000	-0.000000	0.000000	16.389240	-0.671440	-0.839300	-0.006653	0.907651	0.399413	-1.000000	-1.000000	-1.000000	-1.000000	-1.000000	-1.000000	-1.000000	138.827586	0.000000	-1.000000	-1.000000	236804.000000	1772918502.079483
-2691.810000	34704.405000	-14684.625000	-16883.865000	0.000000	0.000000	0.000000	0.000000	85.849325	15.190708	115.496199	135.627893	0.000000	0.000000	-0.000000	0.000000	16.251900	-0.518840	1.907500	-0.008301	0.911069	0.396483	-1.000000	-1.000000	-1.000000	-1.000000	-1.000000	-1.000000	-1.000000	138.827586	0.000000	-1.000000	-1.000000	236805.000000	1772918502.079499
-2813.175000	34704.045000	-14841.045000	-17072.145000	0.000000	0.000000	0.000000	0.000000	-11.665160	34.211521	-11.177529	-9.284332	0.000000	0.000000	-0.000000	0.000000	16.251900	-0.518840	1.907500	-0.008301	0.911069	0.396483	-1.000000	-1.000000	-1.000000	-1.000000	-1.000000	-1.000000	-1.000000	138.827586	0.000000	-1.000000	-1.000000	236806.000000	1772918502.079502
-2799.855000	34711.020000	-14813.055000	-17046.945000	0.000000	0.000000	0.000000	0.000000	-104.249638	36.060070	-132.405483	-149.874155	0.000000	0.000000	-0.000000	0.000000	16.251900	-0.518840	1.907500	-0.008301	0.911069	0.396483	-1.000000	-1.000000	-1.000000	-1.000000	-1.000000	-1.000000	-1.000000	138.827586	0.000000	-1.000000	-1.000000	236807.000000	1772918502.079505
-2762.685000	34774.920000	-14756.130000	-16983.270000	0.000000	0.000000	0.000000	0.000000	-140.447880	19.134082	-180.245181	-208.119384	0.000000	0.000000	-0.000000	0.000000	16.251900	-0.518840	1.907500	-0.008301	0.911069	0.396483	-1.000000	-1.000000	-1.000000	-1.000000	-1.000000	-1.000000	-1.000000	138.827586	0.000000	-1.000000	-1.000000	236808.000000	1772918502.079507
-2677.725000	34830.135000	-14642.820000	-16856.415000	0.000000	0.000000	0.000000	0.000000	-100.426766	-5.296064	-128.405633	-152.271775	0.000000	0.000000	-0.000000	0.000000	16.251900	-0.518840	1.907500	-0.008301	0.911069	0.396483	-1.000000	-1.000000	-1.000000	-1.000000	-1.000000	-1.000000	-1.000000	138.827586	0.000000	-1.000000	-1.000000	236809.000000	1772918502.079510
-2513.115000	34803.360000	-14438.070000	-16618.860000	0.000000	0.000000	0.000000	0.000000	-6.754966	-22.946569	-7.175868	-14.771557	0.000000	0.000000	-0.000000	0.000000	16.251900	-0.518840	1.907500	-0.008301	0.911069	0.396483	-1.000000	-1.000000	-1.000000	-1.000000	-1.000000	-1.000000	-1.000000	138.827586	0.000000	-1.000000	-1.000000	236810.000000	1772918502.079512
-2517.975000	34790.400000	-14445.360000	-16616.610000	0.000000	0.000000	0.000000	0.000000	91.548910	-30.733145	118.425468	131.067428	0.000000	0.000000	-0.000000	0.000000	16.251900	-0.518840	1.907500	-0.008301	0.911069	0.396483	-1.000000	-1.000000	-1.000000	-1.000000	-1.000000	-1.000000	-1.000000	138.827586	0.000000	-1.000000	-1.000000	236811.000000	1772918502.079515
-2565.630000	34781.895000	-14513.535000	-16696.170000	0.000000	0.000000	0.000000	0.000000	142.136473	-32.751117	180.697718	206.991435	0.000000	0.000000	-0.000000	0.000000	16.251900	-0.518840	1.907500	-0.008301	0.911069	0.396483	-1.000000	-1.000000	-1.000000	-1.000000	-1.000000	-1.000000	-1.000000	138.827586	0.000000	-1.000000	-1.000000	236812.000000	1772918502.079517
-2629.170000	34793.820000	-14612.040000	-16795.440000	0.000000	0.000000	0.000000	0.000000	116.812069	-29.675159	144.711435	170.650974	0.000000	0.000000	-0.000000	0.000000	16.251900	-0.518840	1.907500	-0.008301	0.911069	0.396483	-1.000000	-1.000000	-1.000000	-1.000000	-1.000000	-1.000000	-1.000000	138.827586	0.000000	-1.000000	-1.000000	236813.000000	1772918502.079520
-2777.625000	34748.235000	-14808.780000	-17014.590000	0.000000	0.000000	0.000000	0.000000	30.140218	-19.925043	30.794119	43.080056	0.000000	0.000000	-0.000000	0.000000	16.251900	-0.518840	1.907500	-0.008301	0.911069	0.396483	-1.000000	-1.000000	-1.000000	-1.000000	-1.000000	-1.000000	-1.000000	138.827586	0.000000	-1.000000	-1.000000	236814.000000	1772918502.079522
-2819.115000	34776.180000	-14843.115000	-17070.660000	0.000000	0.000000	0.000000	0.000000	-71.529051	-5.227597	-99.580001	-106.634819	0.000000	0.000000	-0.000000	0.000000	14.558040	-0.244160	0.457800	-0.004028	0.914182	0.392882	-1.000000	-1.000000	-1.000000	-1.000000	-1.000000	-1.000000	-1.000000	138.827586	0.000000	-1.000000	-1.000000	236815.000000	1772918502.079525
-2764.845000	34782.480000	-14766.570000	-16993.665000	0.000000	0.000000	0.000000	0.000000	-135.034705	11.116426	-176.383392	-199.022096	0.000000	0.000000	-0.000000	0.000000	14.558040	-0.244160	0.457800	-0.004028	0.914182	0.392882	-1.000000	-1.000000	-1.000000	-1.000000	-1.000000	-1.000000	-1.000000	138.827586	0.000000	-1.000000	-1.000000	236816.000000	1772918502.079527
-2692.710000	34787.160000	-14666.355000	-16885.035000	0.000000	0.000000	0.000000	0.000000	-126.246640	25.962907	-156.985839	-183.968752	0.000000	0.000000	-0.000000	0.000000	14.558040	-0.244160	0.457800	-0.004028	0.914182	0.392882	-1.000000	-1.000000	-1.000000	-1.000000	-1.000000	-1.000000	-1.000000	138.827586	0.000000	-1.000000	-1.000000	236817.000000	1772918502.079530
-2541.150000	34766.145000	-14463.720000	-16652.430000	0.000000	0.000000	0.000000	0.000000	-50.201013	34.302722	-52.255613	-69.948667	0.000000	0.000000	-0.000000	0.000000	14.558040	-0.244160	0.457800	-0.004028	0.914182	0.392882	-1.000000	-1.000000	-1.000000	-1.000000	-1.000000	-1.000000	-1.000000	138.827586	0.000000	-1.000000	-1.000000	236818.000000	1772918502.079532
-2496.645000	34819.560000	-14413.140000	-16588.170000	0.000000	0.000000	0.000000	0.000000	51.692126	32.668644	80.463919	81.279676	0.000000	0.000000	-0.000000	0.000000	14.558040	-0.244160	0.457800	-0.004028	0.914182	0.392882	-1.000000	-1.000000	-1.000000	-1.000000	-1.000000	-1.000000	-1.000000	138.827586	0.000000	-1.000000	-1.000000	236819.000000	1772918502.079535
-2534.985000	34847.010000	-14477.040000	-16656.210000	0.000000	0.000000	0.000000	0.000000	123.844007	24.373196	168.270266	187.022732	0.000000	0.000000	-0.000000	0.000000	14.558040	-0.244160	0.457800	-0.004028	0.914182	0.392882	-1.000000	-1.000000	-1.000000	-1.000000	-1.000000	-1.000000	-1.000000	138.827586	0.000000	-1.000000	-1.000000	236820.000000	1772918502.079537
-2594.610000	34851.510000	-14562.990000	-16743.780000	0.000000	0.000000	0.000000	0.000000	126.540580	14.985724	161.919664	188.140572	0.000000	0.000000	-0.000000	0.000000	14.558040	-0.244160	0.457800	-0.004028	0.914182	0.392882	-1.000000	-1.000000	-1.000000	-1.000000	-1.000000	-1.000000	-1.000000	138.827586	0.000000	-1.000000	-1.000000	236821.000000	1772918502.079540
-2750.175000	34851.465000	-14773.230000	-16970.535000	0.000000	0.000000	0.000000	0.000000	59.416142	5.288210	65.559033	85.279099	0.000000	0.000000	-0.000000	0.000000	14.558040	-0.244160	0.457800	-0.004028	0.914182	0.392882	-1.000000	-1.000000	-1.000000	-1.000000	-1.000000	-1.000000	-1.000000	138.827586	0.000000	-1.000000	-1.000000	236822.000000	1772918502.079542
-2815.245000	34767.045000	-14855.670000	-17080.380000	0.000000	0.000000	0.000000	0.000000	-40.299868	-7.668208	-67.876815	-64.410125	0.000000	0.000000	-0.000000	0.000000	14.558040	-0.244160	0.457800	-0.004028	0.914182	0.392882	-1.000000	-1.000000	-1.000000	-1.000000	-1.000000	-1.000000	-1.000000	138.827586	0.000000	-1.000000	-1.000000	236823.000000	1772918502.079545
-2765.745000	34710.795000	-14780.115000	-17012.070000	0.000000	0.000000	0.000000	0.000000	-117.780632	-25.582407	-165.095034	-179.262645	0.000000	0.000000	-0.000000	0.000000	14.558040	-0.244160	0.457800	-0.004028	0.914182	0.392882	-1.000000	-1.000000	-1.000000	-1.000000	-1.000000	-1.000000	-1.000000	138.827586	0.000000	-1.000000	-1.000000	236824.000000	1772918502.079547
-2667.780000	34559.775000	-14667.840000	-16889.670000	0.000000	0.000000	0.000000	0.000000	-128.191111	-45.348740	-169.708855	-193.973067	0.000000	0.000000	-0.000000	0.000000	16.373980	0.152600	-0.869820	-0.001404	0.912473	0.392089	-1.000000	-1.000000	-1.000000	-1.000000	-1.000000	-1.000000	-1.000000	138.827586	0.000000	-1.000000	-1.000000	236825.000000	1772918502.079550
-2499.840000	34431.255000	-14461.515000	-16666.290000	0.000000	0.000000	0.000000	0.000000	-63.876082	-60.339608	-77.235645	-98.504669	0.000000	0.000000	-0.000000	0.000000	16.373980	0.152600	-0.869820	-0.001404	0.912473	0.392089	-1.000000	-1.000000	-1.000000	-1.000000	-1.000000	-1.000000	-1.000000	138.827586	0.000000	-1.000000	-1.000000	236826.000000	1772918502.079552
-2399.130000	34510.005000	-14331.015000	-16515.315000	0.000000	0.000000	0.000000	0.000000	39.904583	-59.698313	61.539102	54.887176	0.000000	0.000000	-0.000000	0.000000	16.373980	0.152600	-0.869820	-0.001404	0.912473	0.392089	-1.000000	-1.000000	-1.000000	-1.000000	-1.000000	-1.000000	-1.000000	138.827586	0.000000	-1.000000	-1.000000	236827.000000	1772918502.079555
-2472.660000	34579.440000	-14389.740000	-16574.715000	0.000000	0.000000	0.000000	0.000000	123.386691	-28.745258	169.322662	180.701994	0.000000	0.000000	-0.000000	0.000000	16.373980	0.152600	-0.869820	-0.001404	0.912473	0.392089	-1.000000	-1.000000	-1.000000	-1.000000	-1.000000	-1.000000	-1.000000	138.827586	0.000000	-1.000000	-1.000000	236828.000000	1772918502.079557
-2550.690000	34624.035000	-14487.525000	-16678.620000	0.000000	0.000000	0.000000	0.000000	134.998123	32.401120	183.330940	205.910047	0.000000	0.000000	-0.000000	0.000000	16.373980	0.152600	-0.869820	-0.001404	0.912473	0.392089	-1.000000	-1.000000	-1.000000	-1.000000	-1.000000	-1.000000	-1.000000	138.827586	0.000000	-1.000000	-1.000000	236829.000000	1772918502.079560
-2653.515000	34590.960000	-14643.405000	-16845.930000	0.000000	0.000000	0.000000	0.000000	66.363961	94.583588	93.793040	114.803408	0.000000	0.000000	-0.000000	0.000000	16.373980	0.152600	-0.869820	-0.001404	0.912473	0.392089	-1.000000	-1.000000	-1.000000	-1.000000	-1.000000	-1.000000	-1.000000	138.827586	0.000000	-1.000000	-1.000000	236830.000000	1772918502.079562
-2756.340000	34465.185000	-14783.895000	-17014.770000	0.000000	0.000000	0.000000	0.000000	-41.424864	117.222339	-49.375361	-41.124158	0.000000	0.000000	-0.000000	0.000000	16.373980	0.152600	-0.869820	-0.001404	0.912473	0.392089	-1.000000	-1.000000	-1.000000	-1.000000	-1.000000	-1.000000	-1.000000	138.827586	0.000000	-1.000000	-1.000000	236831.000000	1772918502.079565
-2750.670000	34448.625000	-14766.165000	-16995.915000	0.000000	0.000000	0.000000	0.000000	-127.321572	81.742820	-167.976903	-176.349248	0.000000	0.000000	-0.000000	0.000000	16.373980	0.152600	-0.869820	-0.001404	0.912473	0.392089	-1.000000	-1.000000	-1.000000	-1.000000	-1.000000	-1.000000	-1.000000	138.827586	0.000000	-1.000000	-1.000000	236832.000000	1772918502.079567
-2710.305000	34478.145000	-14702.985000	-16925.355000	0.000000	0.000000	0.000000	0.000000	-145.746175	10.633073	-198.324293	-217.884029	0.000000	0.000000	-0.000000	0.000000	16.373980	0.152600	-0.869820	-0.001404	0.912473	0.392089	-1.000000	-1.000000	-1.000000	-1.000000	-1.000000	-1.000000	-1.000000	138.827586	0.000000	-1.000000	-1.000000	236833.000000	1772918502.079569
-2611.620000	34537.545000	-14568.660000	-16779.195000	0.000000	0.000000	0.000000	0.000000	-88.759578	-49.557365	-125.363887	-144.440481	0.000000	0.000000	-0.000000	0.000000	16.373980	0.152600	-0.869820	-0.001404	0.912473	0.392089	-1.000000	-1.000000	-1.000000	-1.000000	-1.000000	-1.000000	-1.000000	138.827586	0.000000	-1.000000	-1.000000	236834.000000	1772918502.079571
-2486.835000	34671.780000	-14401.395000	-16580.835000	0.000000	0.000000	0.000000	0.000000	13.011864	-65.174149	11.156907	3.564826	0.000000	0.000000	-0.000000	0.000000	14.970060	-0.473060	-1.022420	-0.003418	0.915830	0.388610	-1.000000	-1.000000	-1.000000	-1.000000	-1.000000	-1.000000	-1.000000	138.827586	0.000000	-1.000000	-1.000000	236835.000000	1772918502.079574
-2525.445000	34824.555000	-14441.985000	-16618.005000	0.000000	0.000000	0.000000	0.000000	107.612773	-34.068423	140.139012	148.374197	0.000000	0.000000	-0.000000	0.000000	14.970060	-0.473060	-1.022420	-0.003418	0.915830	0.388610	-1.000000	-1.000000	-1.000000	-1.000000	-1.000000	-1.000000	-1.000000	138.827586	0.000000	-1.000000	-1.000000	236836.000000	1772918502.079576
-2559.645000	34850.160000	-14497.470000	-16680.150000	0.000000	0.000000	0.000000	0.000000	145.927856	17.693893	193.940476	213.213388	0.000000	0.000000	-0.000000	0.000000	14.970060	-0.473060	-1.022420	-0.003418	0.915830	0.388610	-1.000000	-1.000000	-1.000000	-1.000000	-1.000000	-1.000000	-1.000000	138.827586	0.000000	-1.000000	-1.000000	236837.000000	1772918502.079579
-2641.275000	34829.595000	-14607.090000	-16798.680000	0.000000	0.000000	0.000000	0.000000	109.142060	50.384367	145.923788	164.834664	0.000000	0.000000	-0.000000	0.000000	14.970060	-0.473060	-1.022420	-0.003418	0.915830	0.388610	-1.000000	-1.000000	-1.000000	-1.000000	-1.000000	-1.000000	-1.000000	138.827586	0.000000	-1.000000	-1.000000	236838.000000	1772918502.079581
-2796.615000	34795.080000	-14811.930000	-17036.370000	0.000000	0.000000	0.000000	0.000000	19.347255	37.120883	25.337543	32.614598	0.000000	0.000000	-0.000000	0.000000	14.970060	-0.473060	-1.022420	-0.003418	0.915830	0.388610	-1.000000	-1.000000	-1.000000	-1.000000	-1.000000	-1.000000	-1.000000	138.827586	0.000000	-1.000000	-1.000000	236839.000000	1772918502.079584
-2829.465000	34752.150000	-14840.955000	-17078.940000	0.000000	0.000000	0.000000	0.000000	-76.998571	-15.457949	-104.113422	-113.507614	0.000000	0.000000	-0.000000	0.000000	14.970060	-0.473060	-1.022420	-0.003418	0.915830	0.388610	-1.000000	-1.000000	-1.000000	-1.000000	-1.000000	-1.000000	-1.000000	138.827586	0.000000	-1.000000	-1.000000	236840.000000	1772918502.079586
-2760.255000	34656.975000	-14754.960000	-16986.285000	0.000000	0.000000	0.000000	0.000000	-130.729948	-75.460128	-175.048266	-197.049737	0.000000	0.000000	-0.000000	0.000000	14.970060	-0.473060	-1.022420	-0.003418	0.915830	0.388610	-1.000000	-1.000000	-1.000000	-1.000000	-1.000000	-1.000000	-1.000000	138.827586	0.000000	-1.000000	-1.000000	236841.000000	1772918502.079589
-2624.040000	34537.230000	-14597.550000	-16825.455000	0.000000	0.000000	0.000000	0.000000	-111.393993	-111.988579	-147.833509	-170.892622	0.000000	0.000000	-0.000000	0.000000	14.970060	-0.473060	-1.022420	-0.003418	0.915830	0.388610	-1.000000	-1.000000	-1.000000	-1.000000	-1.000000	-1.000000	-1.000000	138.827586	0.000000	-1.000000	-1.000000	236842.000000	1772918502.079591
-2446.290000	34449.660000	-14382.450000	-16573.725000	0.000000	0.000000	0.000000	0.000000	-26.548354	-111.172402	-35.541208	-46.932117	0.000000	0.000000	-0.000000	0.000000	14.970060	-0.473060	-1.022420	-0.003418	0.915830	0.388610	-1.000000	-1.000000	-1.000000	-1.000000	-1.000000	-1.000000	-1.000000	138.827586	0.000000	-1.000000	-1.000000	236843.000000	1772918502.079593
-2417.580000	34470.315000	-14344.875000	-16517.970000	0.000000	0.000000	0.000000	0.000000	78.007754	-73.352672	100.265244	107.682405	0.000000	0.000000	-0.000000	0.000000	14.970060	-0.473060	-1.022420	-0.003418	0.915830	0.388610	-1.000000	-1.000000	-1.000000	-1.000000	-1.000000	-1.000000	-1.000000	138.827586	0.000000	-1.000000	-1.000000	236844.000000	1772918502.079596
-2495.205000	34566.570000	-14441.580000	-16620.615000	0.000000	0.000000	0.000000	0.000000	140.379722	-5.729888	180.899089	204.556307	0.000000	0.000000	-0.000000	0.000000	11.383960	-0.167860	0.381500	-0.004883	0.920530	0.383910	-1.000000	-1.000000	-1.000000	-1.000000	-1.000000	-1.000000	-1.000000	138.827586	0.000000	-1.000000	-1.000000	236845.000000	1772918502.079598
-2575.755000	34628.445000	-14542.830000	-16733.070000	0.000000	0.000000	0.000000	0.000000	120.294307	75.424076	156.719437	184.608323	0.000000	0.000000	-0.000000	0.000000	11.383960	-0.167860	0.381500	-0.004883	0.920530	0.383910	-1.000000	-1.000000	-1.000000	-1.000000	-1.000000	-1.000000	-1.000000	138.827586	0.000000	-1.000000	-1.000000	236846.000000	1772918502.079600
-2746.845000	34684.335000	-14758.560000	-16975.845000	0.000000	0.000000	0.000000	0.000000	27.538363	141.168685	40.525620	57.571658	0.000000	0.000000	-0.000000	0.000000	11.383960	-0.167860	0.381500	-0.004883	0.920530	0.383910	-1.000000	-1.000000	-1.000000	-1.000000	-1.000000	-1.000000	-1.000000	138.827586	0.000000	-1.000000	-1.000000	236847.000000	1772918502.079603
-2798.370000	34640.010000	-14840.100000	-17069.490000	0.000000	0.000000	0.000000	0.000000	-85.866049	160.451528	-102.870565	-105.968827	0.000000	0.000000	-0.000000	0.000000	11.383960	-0.167860	0.381500	-0.004883	0.920530	0.383910	-1.000000	-1.000000	-1.000000	-1.000000	-1.000000	-1.000000	-1.000000	138.827586	0.000000	-1.000000	-1.000000	236848.000000	1772918502.079605
-2771.010000	34675.740000	-14794.785000	-17017.335000	0.000000	0.000000	0.000000	0.000000	-156.987635	120.690002	-194.820430	-216.081217	0.000000	0.000000	-0.000000	0.000000	11.383960	-0.167860	0.381500	-0.004883	0.920530	0.383910	-1.000000	-1.000000	-1.000000	-1.000000	-1.000000	-1.000000	-1.000000	138.827586	0.000000	-1.000000	-1.000000	236849.000000	1772918502.082947
-2724.345000	34715.430000	-14716.620000	-16940.880000	0.000000	0.000000	0.000000	0.000000	-146.398636	40.821083	-184.117719	-211.600184	0.000000	0.000000	-0.000000	0.000000	11.383960	-0.167860	0.381500	-0.004883	0.920530	0.383910	-1.000000	-1.000000	-1.000000	-1.000000	-1.000000	-1.000000	-1.000000	138.827586	0.000000	-1.000000	-1.000000	236850.000000	1772918502.082950
-2589.840000	34749.495000	-14531.490000	-16737.570000	0.000000	0.000000	0.000000	0.000000	-60.502808	-39.813421	-76.079755	-95.475692	0.000000	0.000000	-0.000000	0.000000	11.383960	-0.167860	0.381500	-0.004883	0.920530	0.383910	-1.000000	-1.000000	-1.000000	-1.000000	-1.000000	-1.000000	-1.000000	138.827586	0.000000	-1.000000	-1.000000	236851.000000	1772918502.087060
-2515.230000	34864.470000	-14425.785000	-16607.610000	0.000000	0.000000	0.000000	0.000000	55.471048	-87.560636	72.570060	70.288389	0.000000	0.000000	-0.000000	0.000000	11.383960	-0.167860	0.381500	-0.004883	0.920530	0.383910	-1.000000	-1.000000	-1.000000	-1.000000	-1.000000	-1.000000	-1.000000	138.827586	0.000000	-1.000000	-1.000000	236852.000000	1772918502.087064
-2519.865000	34803.720000	-14441.130000	-16622.415000	0.000000	0.000000	0.000000	0.000000	143.348606	-92.361779	185.365593	200.469737	0.000000	0.000000	-0.000000	0.000000	11.383960	-0.167860	0.381500	-0.004883	0.920530	0.383910	-1.000000	-1.000000	-1.000000	-1.000000	-1.000000	-1.000000	-1.000000	138.827586	0.000000	-1.000000	-1.000000	236853.000000	1772918502.091004
-2560.005000	34747.560000	-14506.020000	-16694.955000	0.000000	0.000000	0.000000	0.000000	160.160309	-71.056866	204.376060	228.496751	0.000000	0.000000	-0.000000	0.000000	11.383960	-0.167860	0.381500	-0.004883	0.920530	0.383910	-1.000000	-1.000000	-1.000000	-1.000000	-1.000000	-1.000000	-1.000000	138.827586	0.000000	-1.000000	-1.000000	236854.000000	1772918502.091013
-2670.930000	34721.280000	-14663.115000	-16869.825000	0.000000	0.000000	0.000000	0.000000	99.967444	-49.065106	121.317642	141.506004	0.000000	0.000000	-0.000000	0.000000	4.806900	1.083460	-0.412020	-0.005615	0.923276	0.379455	-1.000000	-1.000000	-1.000000	-1.000000	-1.000000	-1.000000	-1.000000	138.827586	0.000000	-1.000000	-1.000000	236855.000000	1772918502.094973
-2782.215000	34673.805000	-14814.045000	-17044.560000	0.000000	0.000000	0.000000	0.000000	-5.283200	-35.987859	-20.034560	-14.413257	0.000000	0.000000	-0.000000	0.000000	4.806900	1.083460	-0.412020	-0.005615	0.923276	0.379455	-1.000000	-1.000000	-1.000000	-1.000000	-1.000000	-1.000000	-1.000000	138.827586	0.000000	-1.000000	-1.000000	236856.000000	1772918502.094975
-2766.555000	34631.685000	-14795.055000	-17016.750000	0.000000	0.000000	0.000000	0.000000	-103.159832	-25.867803	-148.023177	-159.431415	0.000000	0.000000	-0.000000	0.000000	4.806900	1.083460	-0.412020	-0.005615	0.923276	0.379455	-1.000000	-1.000000	-1.000000	-1.000000	-1.000000	-1.000000	-1.000000	138.827586	0.000000	-1.000000	-1.000000	236857.000000	1772918502.098956
-2744.955000	34699.500000	-14754.105000	-16962.165000	0.000000	0.000000	0.000000	0.000000	-145.071731	-9.720653	-197.444444	-218.408479	0.000000	0.000000	-0.000000	0.000000	4.806900	1.083460	-0.412020	-0.005615	0.923276	0.379455	-1.000000	-1.000000	-1.000000	-1.000000	-1.000000	-1.000000	-1.000000	138.827586	0.000000	-1.000000	-1.000000	236858.000000	1772918502.098958
-2637.405000	34743.960000	-14601.285000	-16805.340000	0.000000	0.000000	0.000000	0.000000	-112.074960	17.979648	-144.600801	-162.353963	0.000000	0.000000	-0.000000	0.000000	4.806900	1.083460	-0.412020	-0.005615	0.923276	0.379455	-1.000000	-1.000000	-1.000000	-1.000000	-1.000000	-1.000000	-1.000000	138.827586	0.000000	-1.000000	-1.000000	236859.000000	1772918502.103118
-2505.105000	34805.295000	-14424.795000	-16610.310000	0.000000	0.000000	0.000000	0.000000	-24.087462	52.790997	-19.324450	-24.264186	0.000000	0.000000	-0.000000	0.000000	4.806900	1.083460	-0.412020	-0.005615	0.923276	0.379455	-1.000000	-1.000000	-1.000000	-1.000000	-1.000000	-1.000000	-1.000000	138.827586	0.000000	-1.000000	-1.000000	236860.000000	1772918502.103121
-2522.160000	34847.910000	-14449.230000	-16630.020000	0.000000	0.000000	0.000000	0.000000	72.176830	79.375089	112.279254	121.559383	0.000000	0.000000	-0.000000	0.000000	4.806900	1.083460	-0.412020	-0.005615	0.923276	0.379455	-1.000000	-1.000000	-1.000000	-1.000000	-1.000000	-1.000000	-1.000000	138.827586	0.000000	-1.000000	-1.000000	236861.000000	1772918502.106990
-2584.845000	34963.605000	-14525.325000	-16715.340000	0.000000	0.000000	0.000000	0.000000	124.471240	83.800640	178.901132	196.135340	0.000000	0.000000	-0.000000	0.000000	4.806900	1.083460	-0.412020	-0.005615	0.923276	0.379455	-1.000000	-1.000000	-1.000000	-1.000000	-1.000000	-1.000000	-1.000000	138.827586	0.000000	-1.000000	-1.000000	236862.000000	1772918502.106992
-2677.770000	35021.610000	-14640.075000	-16848.720000	0.000000	0.000000	0.000000	0.000000	104.126252	64.642659	144.535777	159.495203	0.000000	0.000000	-0.000000	0.000000	4.806900	1.083460	-0.412020	-0.005615	0.923276	0.379455	-1.000000	-1.000000	-1.000000	-1.000000	-1.000000	-1.000000	-1.000000	138.827586	0.000000	-1.000000	-1.000000	236863.000000	1772918502.111202
-2812.005000	34925.670000	-14822.505000	-17062.740000	0.000000	0.000000	0.000000	0.000000	25.085666	27.144376	31.753277	35.409014	0.000000	0.000000	-0.000000	0.000000	4.806900	1.083460	-0.412020	-0.005615	0.923276	0.379455	-1.000000	-1.000000	-1.000000	-1.000000	-1.000000	-1.000000	-1.000000	138.827586	0.000000	-1.000000	-1.000000	236864.000000	1772918502.111205
-2872.395000	34988.175000	-14882.265000	-17130.960000	0.000000	0.000000	0.000000	0.000000	-67.077570	-22.645186	-95.892418	-106.620298	0.000000	0.000000	-0.000000	0.000000	-1.037680	1.373400	0.198380	-0.004456	0.921323	0.377074	-1.000000	-1.000000	-1.000000	-1.000000	-1.000000	-1.000000	-1.000000	138.827586	0.000000	-1.000000	-1.000000	236865.000000	1772918502.115137
-2836.215000	35044.740000	-14837.445000	-17068.005000	0.000000	0.000000	0.000000	0.000000	-121.594798	-68.049940	-169.731325	-189.388450	0.000000	0.000000	-0.000000	0.000000	-1.037680	1.373400	0.198380	-0.004456	0.921323	0.377074	-1.000000	-1.000000	-1.000000	-1.000000	-1.000000	-1.000000	-1.000000	138.827586	0.000000	-1.000000	-1.000000	236866.000000	1772918502.115140
-2727.315000	34967.250000	-14704.065000	-16913.430000	0.000000	0.000000	0.000000	0.000000	-107.439783	-87.946065	-149.622725	-166.157787	0.000000	0.000000	-0.000000	0.000000	-1.037680	1.373400	0.198380	-0.004456	0.921323	0.377074	-1.000000	-1.000000	-1.000000	-1.000000	-1.000000	-1.000000	-1.000000	138.827586	0.000000	-1.000000	-1.000000	236867.000000	1772918502.119133
-2564.415000	34957.890000	-14491.665000	-16677.315000	0.000000	0.000000	0.000000	0.000000	-29.541361	-79.228214	-44.792682	-46.818326	0.000000	0.000000	-0.000000	0.000000	-1.037680	1.373400	0.198380	-0.004456	0.921323	0.377074	-1.000000	-1.000000	-1.000000	-1.000000	-1.000000	-1.000000	-1.000000	138.827586	0.000000	-1.000000	-1.000000	236868.000000	1772918502.119136
-2554.425000	35097.525000	-14471.595000	-16655.220000	0.000000	0.000000	0.000000	0.000000	71.125955	-50.952185	89.362169	104.760368	0.000000	0.000000	-0.000000	0.000000	-1.037680	1.373400	0.198380	-0.004456	0.921323	0.377074	-1.000000	-1.000000	-1.000000	-1.000000	-1.000000	-1.000000	-1.000000	138.827586	0.000000	-1.000000	-1.000000	236869.000000	1772918502.123219
-2632.860000	35254.170000	-14563.755000	-16758.090000	0.000000	0.000000	0.000000	0.000000	135.724418	-6.250962	176.464104	201.331279	0.000000	0.000000	-0.000000	0.000000	-1.037680	1.373400	0.198380	-0.004456	0.921323	0.377074	-1.000000	-1.000000	-1.000000	-1.000000	-1.000000	-1.000000	-1.000000	138.827586	0.000000	-1.000000	-1.000000	236870.000000	1772918502.123221
-2689.560000	35292.960000	-14652.765000	-16844.985000	0.000000	0.000000	0.000000	0.000000	123.701252	47.716301	163.868616	184.474770	0.000000	0.000000	-0.000000	0.000000	-1.037680	1.373400	0.198380	-0.004456	0.921323	0.377074	-1.000000	-1.000000	-1.000000	-1.000000	-1.000000	-1.000000	-1.000000	138.827586	0.000000	-1.000000	-1.000000	236871.000000	1772918502.127126
-2801.025000	35147.835000	-14802.480000	-17025.165000	0.000000	0.000000	0.000000	0.000000	42.866727	83.259627	60.136221	65.615194	0.000000	0.000000	-0.000000	0.000000	-1.037680	1.373400	0.198380	-0.004456	0.921323	0.377074	-1.000000	-1.000000	-1.000000	-1.000000	-1.000000	-1.000000	-1.000000	138.827586	0.000000	-1.000000	-1.000000	236872.000000	1772918502.127128
-2803.905000	34883.955000	-14830.605000	-17068.140000	0.000000	0.000000	0.000000	0.000000	-57.891887	65.766297	-72.663225	-85.160180	0.000000	0.000000	-0.000000	0.000000	-1.037680	1.373400	0.198380	-0.004456	0.921323	0.377074	-1.000000	-1.000000	-1.000000	-1.000000	-1.000000	-1.000000	-1.000000	138.827586	0.000000	-1.000000	-1.000000	236873.000000	1772918502.130162
-2723.580000	34663.635000	-14737.185000	-16969.410000	0.000000	0.000000	0.000000	0.000000	-120.974786	-10.762519	-158.991184	-183.779516	0.000000	0.000000	-0.000000	0.000000	-1.037680	1.373400	0.198380	-0.004456	0.921323	0.377074	-1.000000	-1.000000	-1.000000	-1.000000	-1.000000	-1.000000	-1.000000	138.827586	0.000000	-1.000000	-1.000000	236874.000000	1772918502.130165
-2668.590000	34619.445000	-14658.930000	-16884.270000	0.000000	0.000000	0.000000	0.000000	-113.285975	-103.825274	-152.794408	-178.042009	0.000000	0.000000	-0.000000	0.000000	-2.853620	2.243220	-2.624720	-0.000977	0.918150	0.379210	-1.000000	-1.000000	-1.000000	-1.000000	-1.000000	-1.000000	-1.000000	138.827586	0.000000	-1.000000	-1.000000	236875.000000	1772918502.134355
-2534.175000	34661.520000	-14469.390000	-16676.415000	0.000000	0.000000	0.000000	0.000000	-44.671265	-145.628752	-62.963014	-76.430424	0.000000	0.000000	-0.000000	0.000000	-2.853620	2.243220	-2.624720	-0.000977	0.918150	0.379210	-1.000000	-1.000000	-1.000000	-1.000000	-1.000000	-1.000000	-1.000000	138.827586	0.000000	-1.000000	-1.000000	236876.000000	1772918502.134357
-2450.520000	34702.425000	-14358.015000	-16542.270000	0.000000	0.000000	0.000000	0.000000	43.412509	-96.901622	57.745437	62.452653	0.000000	0.000000	-0.000000	0.000000	-2.853620	2.243220	-2.624720	-0.000977	0.918150	0.379210	-1.000000	-1.000000	-1.000000	-1.000000	-1.000000	-1.000000	-1.000000	138.827586	0.000000	-1.000000	-1.000000	236877.000000	1772918502.138299
-2505.870000	34751.385000	-14427.405000	-16620.795000	0.000000	0.000000	0.000000	0.000000	103.181086	19.523256	143.493272	163.851698	0.000000	0.000000	-0.000000	0.000000	-2.853620	2.243220	-2.624720	-0.000977	0.918150	0.379210	-1.000000	-1.000000	-1.000000	-1.000000	-1.000000	-1.000000	-1.000000	138.827586	0.000000	-1.000000	-1.000000	236878.000000	1772918502.138302
-2575.215000	34798.635000	-14519.025000	-16720.965000	0.000000	0.000000	0.000000	0.000000	101.702600	138.275814	145.896039	171.344115	0.000000	0.000000	-0.000000	0.000000	-2.853620	2.243220	-2.624720	-0.000977	0.918150	0.379210	-1.000000	-1.000000	-1.000000	-1.000000	-1.000000	-1.000000	-1.000000	138.827586	0.000000	-1.000000	-1.000000	236879.000000	1772918502.142342
-2705.175000	34735.500000	-14689.890000	-16911.405000	0.000000	0.000000	0.000000	0.000000	38.883519	197.256290	61.983686	79.281239	0.000000	0.000000	-0.000000	0.000000	-2.853620	2.243220	-2.624720	-0.000977	0.918150	0.379210	-1.000000	-1.000000	-1.000000	-1.000000	-1.000000	-1.000000	-1.000000	138.827586	0.000000	-1.000000	-1.000000	236880.000000	1772918502.142358
-2790.540000	34580.745000	-14812.695000	-17060.895000	0.000000	0.000000	0.000000	0.000000	-50.784565	167.845927	-62.175216	-61.756428	0.000000	0.000000	-0.000000	0.000000	-2.853620	2.243220	-2.624720	-0.000977	0.918150	0.379210	-1.000000	-1.000000	-1.000000	-1.000000	-1.000000	-1.000000	-1.000000	138.827586	0.000000	-1.000000	-1.000000	236881.000000	1772918502.146248
-2762.190000	34490.070000	-14773.455000	-17013.420000	0.000000	0.000000	0.000000	0.000000	-117.284251	64.707873	-157.752746	-173.915453	0.000000	0.000000	-0.000000	0.000000	-2.853620	2.243220	-2.624720	-0.000977	0.918150	0.379210	-1.000000	-1.000000	-1.000000	-1.000000	-1.000000	-1.000000	-1.000000	138.827586	0.000000	-1.000000	-1.000000	236882.000000	1772918502.146251
-2689.920000	34442.190000	-14683.500000	-16912.215000	0.000000	0.000000	0.000000	0.000000	-121.479701	-59.469370	-169.539833	-192.802451	0.000000	0.000000	-0.000000	0.000000	-2.853620	2.243220	-2.624720	-0.000977	0.918150	0.379210	-1.000000	-1.000000	-1.000000	-1.000000	-1.000000	-1.000000	-1.000000	138.827586	0.000000	-1.000000	-1.000000	236883.000000	1772918502.150404
-2555.505000	34392.240000	-14497.065000	-16713.090000	0.000000	0.000000	0.000000	0.000000	-57.733343	-142.860662	-87.409853	-104.325349	0.000000	0.000000	-0.000000	0.000000	-2.853620	2.243220	-2.624720	-0.000977	0.918150	0.379210	-1.000000	-1.000000	-1.000000	-1.000000	-1.000000	-1.000000	-1.000000	138.827586	0.000000	-1.000000	-1.000000	236884.000000	1772918502.150407
-2429.955000	34458.795000	-14333.760000	-16531.425000	0.000000	0.000000	0.000000	0.000000	42.253123	-150.879721	47.313366	45.988674	0.000000	0.000000	-0.000000	0.000000	-2.075360	0.412020	-3.494540	0.000061	0.915525	0.386657	-1.000000	-1.000000	-1.000000	-1.000000	-1.000000	-1.000000	-1.000000	138.827586	0.000000	-1.000000	-1.000000	236885.000000	1772918502.154193
-2449.440000	34486.650000	-14362.380000	-16561.665000	0.000000	0.000000	0.000000	0.000000	126.179178	-89.483758	163.593635	177.891196	0.000000	0.000000	-0.000000	0.000000	-2.075360	0.412020	-3.494540	0.000061	0.915525	0.386657	-1.000000	-1.000000	-1.000000	-1.000000	-1.000000	-1.000000	-1.000000	138.827586	0.000000	-1.000000	-1.000000	236886.000000	1772918502.154195
-2507.670000	34498.035000	-14444.730000	-16646.085000	0.000000	0.000000	0.000000	0.000000	147.079229	3.360715	196.122783	217.591857	0.000000	0.000000	-0.000000	0.000000	-2.075360	0.412020	-3.494540	0.000061	0.915525	0.386657	-1.000000	-1.000000	-1.000000	-1.000000	-1.000000	-1.000000	-1.000000	138.827586	0.000000	-1.000000	-1.000000	236887.000000	1772918502.160746
-2628.585000	34518.555000	-14608.665000	-16805.925000	0.000000	0.000000	0.000000	0.000000	90.589696	79.306523	123.670629	140.897197	0.000000	0.000000	-0.000000	0.000000	-2.075360	0.412020	-3.494540	0.000061	0.915525	0.386657	-1.000000	-1.000000	-1.000000	-1.000000	-1.000000	-1.000000	-1.000000	138.827586	0.000000	-1.000000	-1.000000	236888.000000	1772918502.160749
-2797.965000	34548.075000	-14819.760000	-17042.805000	0.000000	0.000000	0.000000	0.000000	-15.693065	107.356655	-17.055431	-12.053602	0.000000	0.000000	-0.000000	0.000000	-2.075360	0.412020	-3.494540	0.000061	0.915525	0.386657	-1.000000	-1.000000	-1.000000	-1.000000	-1.000000	-1.000000	-1.000000	138.827586	0.000000	-1.000000	-1.000000	236889.000000	1772918502.163833
-2798.280000	34549.605000	-14806.845000	-17043.750000	0.000000	0.000000	0.000000	0.000000	-117.874463	86.320198	-152.622946	-161.762933	0.000000	0.000000	-0.000000	0.000000	-2.075360	0.412020	-3.494540	0.000061	0.915525	0.386657	-1.000000	-1.000000	-1.000000	-1.000000	-1.000000	-1.000000	-1.000000	138.827586	0.000000	-1.000000	-1.000000	236890.000000	1772918502.163835
-2742.345000	34529.580000	-14734.755000	-16965.945000	0.000000	0.000000	0.000000	0.000000	-161.149510	35.311925	-209.130179	-228.318211	0.000000	0.000000	-0.000000	0.000000	-2.075360	0.412020	-3.494540	0.000061	0.915525	0.386657	-1.000000	-1.000000	-1.000000	-1.000000	-1.000000	-1.000000	-1.000000	138.827586	0.000000	-1.000000	-1.000000	236891.000000	1772918502.167355
-2680.515000	34546.275000	-14634.180000	-16851.060000	0.000000	0.000000	0.000000	0.000000	-120.310617	-20.670658	-154.180777	-174.296505	0.000000	0.000000	-0.000000	0.000000	-2.075360	0.412020	-3.494540	0.000061	0.915525	0.386657	-1.000000	-1.000000	-1.000000	-1.000000	-1.000000	-1.000000	-1.000000	138.827586	0.000000	-1.000000	-1.000000	236892.000000	1772918502.167358
-2525.490000	34590.915000	-14435.505000	-16625.745000	0.000000	0.000000	0.000000	0.000000	-17.290032	-59.080882	-18.386893	-28.993251	0.000000	0.000000	-0.000000	0.000000	-2.075360	0.412020	-3.494540	0.000061	0.915525	0.386657	-1.000000	-1.000000	-1.000000	-1.000000	-1.000000	-1.000000	-1.000000	138.827586	0.000000	-1.000000	-1.000000	236893.000000	1772918502.170321
-2452.275000	34559.055000	-14357.115000	-16542.090000	0.000000	0.000000	0.000000	0.000000	94.897113	-68.096747	126.963092	131.795727	0.000000	0.000000	-0.000000	0.000000	-2.075360	0.412020	-3.494540	0.000061	0.915525	0.386657	-1.000000	-1.000000	-1.000000	-1.000000	-1.000000	-1.000000	-1.000000	138.827586	0.000000	-1.000000	-1.000000	236894.000000	1772918502.170325
-2454.795000	34495.290000	-14373.540000	-16570.935000	0.000000	0.000000	0.000000	0.000000	161.570414	-54.131450	209.192761	226.585653	0.000000	0.000000	-0.000000	0.000000	5.432560	-0.885080	-3.235120	-0.002808	0.910459	0.395263	-1.000000	-1.000000	-1.000000	-1.000000	-1.000000	-1.000000	-1.000000	138.827586	0.000000	-1.000000	-1.000000	236895.000000	1772918502.174381
-2568.960000	34534.530000	-14517.405000	-16719.255000	0.000000	0.000000	0.000000	0.000000	149.507301	-32.907165	186.801360	206.266736	0.000000	0.000000	-0.000000	0.000000	5.432560	-0.885080	-3.235120	-0.002808	0.910459	0.395263	-1.000000	-1.000000	-1.000000	-1.000000	-1.000000	-1.000000	-1.000000	138.827586	0.000000	-1.000000	-1.000000	236896.000000	1772918502.174384
-2756.340000	34533.540000	-14770.530000	-16988.805000	0.000000	0.000000	0.000000	0.000000	61.673361	-12.187184	68.279633	78.644621	0.000000	0.000000	-0.000000	0.000000	5.432560	-0.885080	-3.235120	-0.002808	0.910459	0.395263	-1.000000	-1.000000	-1.000000	-1.000000	-1.000000	-1.000000	-1.000000	138.827586	0.000000	-1.000000	-1.000000	236897.000000	1772918502.178430
-2806.380000	34490.520000	-14827.860000	-17074.305000	0.000000	0.000000	0.000000	0.000000	-60.675257	6.868874	-89.464822	-93.639192	0.000000	0.000000	-0.000000	0.000000	5.432560	-0.885080	-3.235120	-0.002808	0.910459	0.395263	-1.000000	-1.000000	-1.000000	-1.000000	-1.000000	-1.000000	-1.000000	138.827586	0.000000	-1.000000	-1.000000	236898.000000	1772918502.178433
-2756.115000	34503.930000	-14756.400000	-17008.695000	0.000000	0.000000	0.000000	0.000000	-152.666013	20.434977	-202.492711	-219.198195	0.000000	0.000000	-0.000000	0.000000	5.432560	-0.885080	-3.235120	-0.002808	0.910459	0.395263	-1.000000	-1.000000	-1.000000	-1.000000	-1.000000	-1.000000	-1.000000	138.827586	0.000000	-1.000000	-1.000000	236899.000000	1772918502.182430
-2679.930000	34490.070000	-14653.080000	-16897.815000	0.000000	0.000000	0.000000	0.000000	-161.868454	25.581140	-205.736102	-226.715483	0.000000	0.000000	-0.000000	0.000000	5.432560	-0.885080	-3.235120	-0.002808	0.910459	0.395263	-1.000000	-1.000000	-1.000000	-1.000000	-1.000000	-1.000000	-1.000000	138.827586	0.000000	-1.000000	-1.000000	236900.000000	1772918502.182433
-2558.970000	34517.970000	-14477.490000	-16687.935000	0.000000	0.000000	0.000000	0.000000	-84.511027	24.357608	-98.132099	-111.969169	0.000000	0.000000	-0.000000	0.000000	5.432560	-0.885080	-3.235120	-0.002808	0.910459	0.395263	-1.000000	-1.000000	-1.000000	-1.000000	-1.000000	-1.000000	-1.000000	138.827586	0.000000	-1.000000	-1.000000	236901.000000	1772918502.186357
-2515.770000	34631.730000	-14409.855000	-16595.280000	0.000000	0.000000	0.000000	0.000000	33.055746	22.513842	57.665470	60.215058	0.000000	0.000000	-0.000000	0.000000	5.432560	-0.885080	-3.235120	-0.002808	0.910459	0.395263	-1.000000	-1.000000	-1.000000	-1.000000	-1.000000	-1.000000	-1.000000	138.827586	0.000000	-1.000000	-1.000000	236902.000000	1772918502.186360
-2542.455000	34675.335000	-14462.325000	-16657.740000	0.000000	0.000000	0.000000	0.000000	124.887682	25.589116	174.997742	194.834458	0.000000	0.000000	-0.000000	0.000000	5.432560	-0.885080	-3.235120	-0.002808	0.910459	0.395263	-1.000000	-1.000000	-1.000000	-1.000000	-1.000000	-1.000000	-1.000000	138.827586	0.000000	-1.000000	-1.000000	236903.000000	1772918502.190453
-2580.570000	34657.650000	-14528.295000	-16729.380000	0.000000	0.000000	0.000000	0.000000	144.150099	29.525028	192.498594	219.767940	0.000000	0.000000	-0.000000	0.000000	5.432560	-0.885080	-3.235120	-0.002808	0.910459	0.395263	-1.000000	-1.000000	-1.000000	-1.000000	-1.000000	-1.000000	-1.000000	138.827586	0.000000	-1.000000	-1.000000	236904.000000	1772918502.190470
-2715.795000	34577.100000	-14694.840000	-16917.120000	0.000000	0.000000	0.000000	0.000000	87.316298	20.214462	107.663750	127.290508	0.000000	0.000000	-0.000000	0.000000	18.739280	-2.975700	-2.624720	-0.005310	0.907957	0.403685	-1.000000	-1.000000	-1.000000	-1.000000	-1.000000	-1.000000	-1.000000	138.827586	0.000000	-1.000000	-1.000000	236905.000000	1772918502.194409
-2764.890000	34320.690000	-14769.945000	-17020.080000	0.000000	0.000000	0.000000	0.000000	-9.996620	-13.670574	-27.587561	-26.580526	0.000000	0.000000	-0.000000	0.000000	18.739280	-2.975700	-2.624720	-0.005310	0.907957	0.403685	-1.000000	-1.000000	-1.000000	-1.000000	-1.000000	-1.000000	-1.000000	138.827586	0.000000	-1.000000	-1.000000	236906.000000	1772918502.194412
-2698.695000	34167.240000	-14706.495000	-16953.615000	0.000000	0.000000	0.000000	0.000000	-93.372824	-68.072186	-138.322570	-156.777702	0.000000	0.000000	-0.000000	0.000000	18.739280	-2.975700	-2.624720	-0.005310	0.907957	0.403685	-1.000000	-1.000000	-1.000000	-1.000000	-1.000000	-1.000000	-1.000000	138.827586	0.000000	-1.000000	-1.000000	236907.000000	1772918502.199447
-2649.645000	34122.510000	-14639.175000	-16877.880000	0.000000	0.000000	0.000000	0.000000	-117.239718	-115.334864	-165.776913	-193.839115	0.000000	0.000000	-0.000000	0.000000	18.739280	-2.975700	-2.624720	-0.005310	0.907957	0.403685	-1.000000	-1.000000	-1.000000	-1.000000	-1.000000	-1.000000	-1.000000	138.827586	0.000000	-1.000000	-1.000000	236908.000000	1772918502.199449
-2530.665000	34156.035000	-14485.095000	-16707.465000	0.000000	0.000000	0.000000	0.000000	-72.687575	-115.711388	-100.557979	-123.104916	0.000000	0.000000	-0.000000	0.000000	18.739280	-2.975700	-2.624720	-0.005310	0.907957	0.403685	-1.000000	-1.000000	-1.000000	-1.000000	-1.000000	-1.000000	-1.000000	138.827586	0.000000	-1.000000	-1.000000	236909.000000	1772918502.206381
-2425.590000	34301.745000	-14342.040000	-16533.720000	0.000000	0.000000	0.000000	0.000000	10.122596	-49.951825	16.160903	10.940867	0.000000	0.000000	-0.000000	0.000000	18.739280	-2.975700	-2.624720	-0.005310	0.907957	0.403685	-1.000000	-1.000000	-1.000000	-1.000000	-1.000000	-1.000000	-1.000000	138.827586	0.000000	-1.000000	-1.000000	236910.000000	1772918502.206383
-2470.680000	34414.785000	-14390.865000	-16583.805000	0.000000	0.000000	0.000000	0.000000	82.914851	60.744237	119.168182	133.633465	0.000000	0.000000	-0.000000	0.000000	18.739280	-2.975700	-2.624720	-0.005310	0.907957	0.403685	-1.000000	-1.000000	-1.000000	-1.000000	-1.000000	-1.000000	-1.000000	138.827586	0.000000	-1.000000	-1.000000	236911.000000	1772918502.206387
-2523.510000	34418.520000	-14465.070000	-16669.215000	0.000000	0.000000	0.000000	0.000000	103.653794	162.473396	151.024558	176.769872	0.000000	0.000000	-0.000000	0.000000	18.739280	-2.975700	-2.624720	-0.005310	0.907957	0.403685	-1.000000	-1.000000	-1.000000	-1.000000	-1.000000	-1.000000	-1.000000	138.827586	0.000000	-1.000000	-1.000000	236912.000000	1772918502.206389
-2635.650000	34398.630000	-14615.370000	-16832.970000	0.000000	0.000000	0.000000	0.000000	60.280518	198.255313	93.828773	116.238206	0.000000	0.000000	-0.000000	0.000000	18.739280	-2.975700	-2.624720	-0.005310	0.907957	0.403685	-1.000000	-1.000000	-1.000000	-1.000000	-1.000000	-1.000000	-1.000000	138.827586	0.000000	-1.000000	-1.000000	236913.000000	1772918502.211246
-2768.445000	34320.645000	-14796.270000	-17040.015000	0.000000	0.000000	0.000000	0.000000	-22.170208	145.239092	-20.007179	-13.173153	0.000000	0.000000	-0.000000	0.000000	18.739280	-2.975700	-2.624720	-0.005310	0.907957	0.403685	-1.000000	-1.000000	-1.000000	-1.000000	-1.000000	-1.000000	-1.000000	138.827586	0.000000	-1.000000	-1.000000	236914.000000	1772918502.211249
-2746.980000	34295.805000	-14776.965000	-17014.275000	0.000000	0.000000	0.000000	0.000000	-97.454728	30.204569	-127.599415	-139.365409	0.000000	0.000000	-0.000000	0.000000	24.446520	-2.365300	-2.990960	-0.004639	0.902891	0.400512	-1.000000	-1.000000	-1.000000	-1.000000	-1.000000	-1.000000	-1.000000	138.827586	0.000000	-1.000000	-1.000000	236915.000000	1772918502.215321
-2710.845000	34320.105000	-14720.445000	-16948.215000	0.000000	0.000000	0.000000	0.000000	-121.683418	-87.736590	-167.398863	-190.098532	0.000000	0.000000	-0.000000	0.000000	24.446520	-2.365300	-2.990960	-0.004639	0.902891	0.400512	-1.000000	-1.000000	-1.000000	-1.000000	-1.000000	-1.000000	-1.000000	138.827586	0.000000	-1.000000	-1.000000	236916.000000	1772918502.215324
-2631.690000	34341.030000	-14601.870000	-16828.515000	0.000000	0.000000	0.000000	0.000000	-78.696862	-152.908586	-114.199804	-134.514381	0.000000	0.000000	-0.000000	0.000000	24.446520	-2.365300	-2.990960	-0.004639	0.902891	0.400512	-1.000000	-1.000000	-1.000000	-1.000000	-1.000000	-1.000000	-1.000000	138.827586	0.000000	-1.000000	-1.000000	236917.000000	1772918502.218437
-2481.165000	34431.345000	-14408.685000	-16608.150000	0.000000	0.000000	0.000000	0.000000	9.640530	-143.520476	4.660745	-2.679937	0.000000	0.000000	-0.000000	0.000000	24.446520	-2.365300	-2.990960	-0.004639	0.902891	0.400512	-1.000000	-1.000000	-1.000000	-1.000000	-1.000000	-1.000000	-1.000000	138.827586	0.000000	-1.000000	-1.000000	236918.000000	1772918502.218439
-2448.270000	34445.070000	-14374.845000	-16563.780000	0.000000	0.000000	0.000000	0.000000	98.625691	-77.439396	127.336977	135.890197	0.000000	0.000000	-0.000000	0.000000	24.446520	-2.365300	-2.990960	-0.004639	0.902891	0.400512	-1.000000	-1.000000	-1.000000	-1.000000	-1.000000	-1.000000	-1.000000	138.827586	0.000000	-1.000000	-1.000000	236919.000000	1772918502.223503
-2472.885000	34336.620000	-14412.870000	-16615.845000	0.000000	0.000000	0.000000	0.000000	142.633968	1.106404	188.993657	208.214795	0.000000	0.000000	-0.000000	0.000000	24.446520	-2.365300	-2.990960	-0.004639	0.902891	0.400512	-1.000000	-1.000000	-1.000000	-1.000000	-1.000000	-1.000000	-1.000000	138.827586	0.000000	-1.000000	-1.000000	236920.000000	1772918502.223510
-2539.890000	34249.185000	-14518.125000	-16731.315000	0.000000	0.000000	0.000000	0.000000	116.909305	46.439956	154.870743	173.830968	0.000000	0.000000	-0.000000	0.000000	24.446520	-2.365300	-2.990960	-0.004639	0.902891	0.400512	-1.000000	-1.000000	-1.000000	-1.000000	-1.000000	-1.000000	-1.000000	138.827586	0.000000	-1.000000	-1.000000	236921.000000	1772918502.253598
-2683.485000	34118.550000	-14712.165000	-16955.235000	0.000000	0.000000	0.000000	0.000000	32.431272	40.742357	40.701614	48.507243	0.000000	0.000000	-0.000000	0.000000	24.446520	-2.365300	-2.990960	-0.004639	0.902891	0.400512	-1.000000	-1.000000	-1.000000	-1.000000	-1.000000	-1.000000	-1.000000	138.827586	0.000000	-1.000000	-1.000000	236922.000000	1772918502.253600
-2731.545000	34071.120000	-14760.090000	-17016.840000	0.000000	0.000000	0.000000	0.000000	-69.899236	2.661371	-96.263734	-104.425456	0.000000	0.000000	-0.000000	0.000000	24.446520	-2.365300	-2.990960	-0.004639	0.902891	0.400512	-1.000000	-1.000000	-1.000000	-1.000000	-1.000000	-1.000000	-1.000000	138.827586	0.000000	-1.000000	-1.000000	236923.000000	1772918502.253604
-2708.595000	34149.735000	-14711.355000	-16968.195000	0.000000	0.000000	0.000000	0.000000	-138.781729	-29.203289	-184.974880	-205.139329	0.000000	0.000000	-0.000000	0.000000	24.446520	-2.365300	-2.990960	-0.004639	0.902891	0.400512	-1.000000	-1.000000	-1.000000	-1.000000	-1.000000	-1.000000	-1.000000	138.827586	0.000000	-1.000000	-1.000000	236924.000000	1772918502.253606
-2651.940000	34230.960000	-14628.915000	-16880.175000	0.000000	0.000000	0.000000	0.000000	-138.277843	-22.705620	-177.826701	-199.180292	0.000000	0.000000	-0.000000	0.000000	23.561440	-0.228900	-3.631880	-0.001343	0.903379	0.390441	-1.000000	-1.000000	-1.000000	-1.000000	-1.000000	-1.000000	-1.000000	138.827586	0.000000	-1.000000	-1.000000	236925.000000	1772918502.253610
-2504.070000	34303.320000	-14439.735000	-16663.500000	0.000000	0.000000	0.000000	0.000000	-68.739293	23.492344	-79.630313	-90.331420	0.000000	0.000000	-0.000000	0.000000	23.561440	-0.228900	-3.631880	-0.001343	0.903379	0.390441	-1.000000	-1.000000	-1.000000	-1.000000	-1.000000	-1.000000	-1.000000	138.827586	0.000000	-1.000000	-1.000000	236926.000000	1772918502.253612
-2468.655000	34400.835000	-14369.130000	-16572.915000	0.000000	0.000000	0.000000	0.000000	33.604398	79.302438	56.868924	63.580058	0.000000	0.000000	-0.000000	0.000000	23.561440	-0.228900	-3.631880	-0.001343	0.903379	0.390441	-1.000000	-1.000000	-1.000000	-1.000000	-1.000000	-1.000000	-1.000000	138.827586	0.000000	-1.000000	-1.000000	236927.000000	1772918502.253615
-2518.065000	34452.090000	-14418.585000	-16625.115000	0.000000	0.000000	0.000000	0.000000	114.212631	108.671015	159.310748	181.392120	0.000000	0.000000	-0.000000	0.000000	23.561440	-0.228900	-3.631880	-0.001343	0.903379	0.390441	-1.000000	-1.000000	-1.000000	-1.000000	-1.000000	-1.000000	-1.000000	138.827586	0.000000	-1.000000	-1.000000	236928.000000	1772918502.253617
-2566.395000	34436.250000	-14507.190000	-16716.690000	0.000000	0.000000	0.000000	0.000000	129.531916	92.011140	172.903152	199.807276	0.000000	0.000000	-0.000000	0.000000	23.561440	-0.228900	-3.631880	-0.001343	0.903379	0.390441	-1.000000	-1.000000	-1.000000	-1.000000	-1.000000	-1.000000	-1.000000	138.827586	0.000000	-1.000000	-1.000000	236929.000000	1772918502.253620
-2702.925000	34384.140000	-14694.705000	-16928.820000	0.000000	0.000000	0.000000	0.000000	74.483698	32.242212	92.300426	110.397650	0.000000	0.000000	-0.000000	0.000000	23.561440	-0.228900	-3.631880	-0.001343	0.903379	0.390441	-1.000000	-1.000000	-1.000000	-1.000000	-1.000000	-1.000000	-1.000000	138.827586	0.000000	-1.000000	-1.000000	236930.000000	1772918502.253622
-2767.140000	34263.585000	-14785.020000	-17047.665000	0.000000	0.000000	0.000000	0.000000	-17.159485	-48.927247	-36.506245	-36.769208	0.000000	0.000000	-0.000000	0.000000	23.561440	-0.228900	-3.631880	-0.001343	0.903379	0.390441	-1.000000	-1.000000	-1.000000	-1.000000	-1.000000	-1.000000	-1.000000	138.827586	0.000000	-1.000000	-1.000000	236931.000000	1772918502.253625
-2753.415000	34299.495000	-14762.745000	-17013.645000	0.000000	0.000000	0.000000	0.000000	-94.141605	-118.441871	-142.182443	-161.179978	0.000000	0.000000	-0.000000	0.000000	23.561440	-0.228900	-3.631880	-0.001343	0.903379	0.390441	-1.000000	-1.000000	-1.000000	-1.000000	-1.000000	-1.000000	-1.000000	138.827586	0.000000	-1.000000	-1.000000	236932.000000	1772918502.253627
-2706.975000	34340.310000	-14695.335000	-16941.735000	0.000000	0.000000	0.000000	0.000000	-114.731023	-142.346644	-166.479632	-194.289541	0.000000	0.000000	-0.000000	0.000000	23.561440	-0.228900	-3.631880	-0.001343	0.903379	0.390441	-1.000000	-1.000000	-1.000000	-1.000000	-1.000000	-1.000000	-1.000000	138.827586	0.000000	-1.000000	-1.000000	236933.000000	1772918502.253630
-2575.710000	34367.175000	-14522.130000	-16755.210000	0.000000	0.000000	0.000000	0.000000	-69.439885	-105.898068	-97.576597	-119.422479	0.000000	0.000000	-0.000000	0.000000	23.561440	-0.228900	-3.631880	-0.001343	0.903379	0.390441	-1.000000	-1.000000	-1.000000	-1.000000	-1.000000	-1.000000	-1.000000	138.827586	0.000000	-1.000000	-1.000000	236934.000000	1772918502.253632
-2436.615000	34353.720000	-14347.530000	-16551.495000	0.000000	0.000000	0.000000	0.000000	16.599069	-29.212411	26.677805	21.680266	0.000000	0.000000	-0.000000	0.000000	19.792220	0.778260	-3.967600	-0.000610	0.914793	0.384704	-1.000000	-1.000000	-1.000000	-1.000000	-1.000000	-1.000000	-1.000000	138.827586	0.000000	-1.000000	-1.000000	236935.000000	1772918502.254548
-2443.770000	34304.220000	-14366.745000	-16569.990000	0.000000	0.000000	0.000000	0.000000	97.786164	45.168520	140.519239	154.074806	0.000000	0.000000	-0.000000	0.000000	19.792220	0.778260	-3.967600	-0.000610	0.914793	0.384704	-1.000000	-1.000000	-1.000000	-1.000000	-1.000000	-1.000000	-1.000000	138.827586	0.000000	-1.000000	-1.000000	236936.000000	1772918502.254551
-2503.305000	34326.135000	-14440.455000	-16654.500000	0.000000	0.000000	0.000000	0.000000	127.823726	83.122427	180.467458	204.572203	0.000000	0.000000	-0.000000	0.000000	19.792220	0.778260	-3.967600	-0.000610	0.914793	0.384704	-1.000000	-1.000000	-1.000000	-1.000000	-1.000000	-1.000000	-1.000000	138.827586	0.000000	-1.000000	-1.000000	236937.000000	1772918502.261329
-2636.415000	34343.145000	-14605.335000	-16835.805000	0.000000	0.000000	0.000000	0.000000	85.540021	79.644881	120.909068	141.947635	0.000000	0.000000	-0.000000	0.000000	19.792220	0.778260	-3.967600	-0.000610	0.914793	0.384704	-1.000000	-1.000000	-1.000000	-1.000000	-1.000000	-1.000000	-1.000000	138.827586	0.000000	-1.000000	-1.000000	236938.000000	1772918502.261332
-2769.570000	34275.060000	-14784.165000	-17042.130000	0.000000	0.000000	0.000000	0.000000	-9.439356	51.055833	-8.276209	-1.948883	0.000000	0.000000	-0.000000	0.000000	19.792220	0.778260	-3.967600	-0.000610	0.914793	0.384704	-1.000000	-1.000000	-1.000000	-1.000000	-1.000000	-1.000000	-1.000000	138.827586	0.000000	-1.000000	-1.000000	236939.000000	1772918502.264105
-2774.205000	34274.115000	-14785.200000	-17044.155000	0.000000	0.000000	0.000000	0.000000	-106.067987	14.823175	-138.040213	-149.669712	0.000000	0.000000	-0.000000	0.000000	19.792220	0.778260	-3.967600	-0.000610	0.914793	0.384704	-1.000000	-1.000000	-1.000000	-1.000000	-1.000000	-1.000000	-1.000000	138.827586	0.000000	-1.000000	-1.000000	236940.000000	1772918502.264108
-2729.340000	34314.390000	-14722.065000	-16976.295000	0.000000	0.000000	0.000000	0.000000	-149.264990	-14.900919	-196.280366	-218.935803	0.000000	0.000000	-0.000000	0.000000	19.792220	0.778260	-3.967600	-0.000610	0.914793	0.384704	-1.000000	-1.000000	-1.000000	-1.000000	-1.000000	-1.000000	-1.000000	138.827586	0.000000	-1.000000	-1.000000	236941.000000	1772918502.267321
-2619.720000	34307.505000	-14579.955000	-16824.105000	0.000000	0.000000	0.000000	0.000000	-112.696294	-26.896837	-149.115114	-169.811154	0.000000	0.000000	-0.000000	0.000000	19.792220	0.778260	-3.967600	-0.000610	0.914793	0.384704	-1.000000	-1.000000	-1.000000	-1.000000	-1.000000	-1.000000	-1.000000	138.827586	0.000000	-1.000000	-1.000000	236942.000000	1772918502.267323
-2486.565000	34406.595000	-14397.615000	-16614.000000	0.000000	0.000000	0.000000	0.000000	-15.037553	-19.198770	-21.578326	-28.874766	0.000000	0.000000	-0.000000	0.000000	19.792220	0.778260	-3.967600	-0.000610	0.914793	0.384704	-1.000000	-1.000000	-1.000000	-1.000000	-1.000000	-1.000000	-1.000000	138.827586	0.000000	-1.000000	-1.000000	236943.000000	1772918502.273694
-2477.430000	34467.480000	-14391.360000	-16600.680000	0.000000	0.000000	0.000000	0.000000	91.596583	1.479883	117.766447	127.891997	0.000000	0.000000	-0.000000	0.000000	19.792220	0.778260	-3.967600	-0.000610	0.914793	0.384704	-1.000000	-1.000000	-1.000000	-1.000000	-1.000000	-1.000000	-1.000000	138.827586	0.000000	-1.000000	-1.000000	236944.000000	1772918502.273697
-2539.665000	34516.530000	-14476.365000	-16686.945000	0.000000	0.000000	0.000000	0.000000	149.101077	23.644958	192.584788	214.887444	0.000000	0.000000	-0.000000	0.000000	18.830840	-1.373400	-5.188400	-0.005554	0.923704	0.382018	-1.000000	-1.000000	-1.000000	-1.000000	-1.000000	-1.000000	-1.000000	138.827586	0.000000	-1.000000	-1.000000	236945.000000	1772918502.276772
-2621.205000	34573.050000	-14599.305000	-16814.070000	0.000000	0.000000	0.000000	0.000000	126.115864	34.215575	161.449513	184.263299	0.000000	0.000000	-0.000000	0.000000	18.830840	-1.373400	-5.188400	-0.005554	0.923704	0.382018	-1.000000	-1.000000	-1.000000	-1.000000	-1.000000	-1.000000	-1.000000	138.827586	0.000000	-1.000000	-1.000000	236946.000000	1772918502.276774
-2753.685000	34468.470000	-14773.905000	-17025.030000	0.000000	0.000000	0.000000	0.000000	37.332663	24.028232	43.792103	55.253972	0.000000	0.000000	-0.000000	0.000000	18.830840	-1.373400	-5.188400	-0.005554	0.923704	0.382018	-1.000000	-1.000000	-1.000000	-1.000000	-1.000000	-1.000000	-1.000000	138.827586	0.000000	-1.000000	-1.000000	236947.000000	1772918502.279414
-2782.665000	34381.260000	-14787.990000	-17056.440000	0.000000	0.000000	0.000000	0.000000	-67.419173	-9.204399	-93.351726	-99.735007	0.000000	0.000000	-0.000000	0.000000	18.830840	-1.373400	-5.188400	-0.005554	0.923704	0.382018	-1.000000	-1.000000	-1.000000	-1.000000	-1.000000	-1.000000	-1.000000	138.827586	0.000000	-1.000000	-1.000000	236948.000000	1772918502.279416
-2736.180000	34264.305000	-14721.930000	-16983.270000	0.000000	0.000000	0.000000	0.000000	-131.621006	-55.951769	-173.723587	-195.527352	0.000000	0.000000	-0.000000	0.000000	18.830840	-1.373400	-5.188400	-0.005554	0.923704	0.382018	-1.000000	-1.000000	-1.000000	-1.000000	-1.000000	-1.000000	-1.000000	138.827586	0.000000	-1.000000	-1.000000	236949.000000	1772918502.283533
-2657.205000	34167.465000	-14634.315000	-16888.275000	0.000000	0.000000	0.000000	0.000000	-121.919505	-93.981458	-154.917626	-180.877080	0.000000	0.000000	-0.000000	0.000000	18.830840	-1.373400	-5.188400	-0.005554	0.923704	0.382018	-1.000000	-1.000000	-1.000000	-1.000000	-1.000000	-1.000000	-1.000000	138.827586	0.000000	-1.000000	-1.000000	236950.000000	1772918502.283536
-2491.740000	34241.310000	-14424.390000	-16656.165000	0.000000	0.000000	0.000000	0.000000	-45.742273	-98.482066	-51.661588	-67.742073	0.000000	0.000000	-0.000000	0.000000	18.830840	-1.373400	-5.188400	-0.005554	0.923704	0.382018	-1.000000	-1.000000	-1.000000	-1.000000	-1.000000	-1.000000	-1.000000	138.827586	0.000000	-1.000000	-1.000000	236951.000000	1772918502.287456
-2449.980000	34311.060000	-14364.495000	-16571.970000	0.000000	0.000000	0.000000	0.000000	54.832883	-55.125616	78.080688	80.626693	0.000000	0.000000	-0.000000	0.000000	18.830840	-1.373400	-5.188400	-0.005554	0.923704	0.382018	-1.000000	-1.000000	-1.000000	-1.000000	-1.000000	-1.000000	-1.000000	138.827586	0.000000	-1.000000	-1.000000	236952.000000	1772918502.287459
-2485.665000	34304.355000	-14419.260000	-16631.235000	0.000000	0.000000	0.000000	0.000000	124.418636	24.044497	164.039912	184.076024	0.000000	0.000000	-0.000000	0.000000	18.830840	-1.373400	-5.188400	-0.005554	0.923704	0.382018	-1.000000	-1.000000	-1.000000	-1.000000	-1.000000	-1.000000	-1.000000	138.827586	0.000000	-1.000000	-1.000000	236953.000000	1772918502.291685
-2546.820000	34319.295000	-14508.855000	-16734.915000	0.000000	0.000000	0.000000	0.000000	123.662572	99.126415	158.372440	185.163844	0.000000	0.000000	-0.000000	0.000000	18.830840	-1.373400	-5.188400	-0.005554	0.923704	0.382018	-1.000000	-1.000000	-1.000000	-1.000000	-1.000000	-1.000000	-1.000000	138.827586	0.000000	-1.000000	-1.000000	236954.000000	1772918502.291687
-2658.195000	34182.855000	-14665.995000	-16911.090000	0.000000	0.000000	0.000000	0.000000	54.045828	128.407573	64.702207	83.568446	0.000000	0.000000	-0.000000	0.000000	19.807480	-1.724380	-3.723440	-0.011291	0.922605	0.379333	-1.000000	-1.000000	-1.000000	-1.000000	-1.000000	-1.000000	-1.000000	138.827586	0.000000	-1.000000	-1.000000	236955.000000	1772918502.295614
-2768.535000	34191.810000	-14795.955000	-17059.050000	0.000000	0.000000	0.000000	0.000000	-45.417344	97.259814	-65.414854	-64.572190	0.000000	0.000000	-0.000000	0.000000	19.807480	-1.724380	-3.723440	-0.011291	0.922605	0.379333	-1.000000	-1.000000	-1.000000	-1.000000	-1.000000	-1.000000	-1.000000	138.827586	0.000000	-1.000000	-1.000000	236956.000000	1772918502.295616
-2730.240000	34149.060000	-14741.370000	-16998.120000	0.000000	0.000000	0.000000	0.000000	-122.183827	28.040826	-162.663978	-179.580124	0.000000	0.000000	-0.000000	0.000000	19.807480	-1.724380	-3.723440	-0.011291	0.922605	0.379333	-1.000000	-1.000000	-1.000000	-1.000000	-1.000000	-1.000000	-1.000000	138.827586	0.000000	-1.000000	-1.000000	236957.000000	1772918502.299461
-2691.585000	34115.085000	-14684.085000	-16924.770000	0.000000	0.000000	0.000000	0.000000	-135.458909	-38.325413	-174.399902	-198.726134	0.000000	0.000000	-0.000000	0.000000	19.807480	-1.724380	-3.723440	-0.011291	0.922605	0.379333	-1.000000	-1.000000	-1.000000	-1.000000	-1.000000	-1.000000	-1.000000	138.827586	0.000000	-1.000000	-1.000000	236958.000000	1772918502.299464
-2521.035000	34130.520000	-14503.230000	-16714.350000	0.000000	0.000000	0.000000	0.000000	-76.997486	-72.115825	-93.517883	-110.860361	0.000000	0.000000	-0.000000	0.000000	19.807480	-1.724380	-3.723440	-0.011291	0.922605	0.379333	-1.000000	-1.000000	-1.000000	-1.000000	-1.000000	-1.000000	-1.000000	138.827586	0.000000	-1.000000	-1.000000	236959.000000	1772918502.303449
-2433.960000	34214.715000	-14394.465000	-16578.945000	0.000000	0.000000	0.000000	0.000000	24.005615	-64.704118	37.390026	37.229001	0.000000	0.000000	-0.000000	0.000000	19.807480	-1.724380	-3.723440	-0.011291	0.922605	0.379333	-1.000000	-1.000000	-1.000000	-1.000000	-1.000000	-1.000000	-1.000000	138.827586	0.000000	-1.000000	-1.000000	236960.000000	1772918502.303452
-2480.490000	34288.560000	-14437.845000	-16627.185000	0.000000	0.000000	0.000000	0.000000	113.770828	-24.539197	148.753823	165.877653	0.000000	0.000000	-0.000000	0.000000	19.807480	-1.724380	-3.723440	-0.011291	0.922605	0.379333	-1.000000	-1.000000	-1.000000	-1.000000	-1.000000	-1.000000	-1.000000	138.827586	0.000000	-1.000000	-1.000000	236961.000000	1772918502.307501
-2529.450000	34327.755000	-14507.145000	-16712.280000	0.000000	0.000000	0.000000	0.000000	141.008702	25.955411	179.719434	203.583211	0.000000	0.000000	-0.000000	0.000000	19.807480	-1.724380	-3.723440	-0.011291	0.922605	0.379333	-1.000000	-1.000000	-1.000000	-1.000000	-1.000000	-1.000000	-1.000000	138.827586	0.000000	-1.000000	-1.000000	236962.000000	1772918502.307504
-2655.045000	34345.935000	-14661.855000	-16889.850000	0.000000	0.000000	0.000000	0.000000	90.285898	58.922844	114.185732	129.684869	0.000000	0.000000	-0.000000	0.000000	19.807480	-1.724380	-3.723440	-0.011291	0.922605	0.379333	-1.000000	-1.000000	-1.000000	-1.000000	-1.000000	-1.000000	-1.000000	138.827586	0.000000	-1.000000	-1.000000	236963.000000	1772918502.311767
-2804.850000	34265.340000	-14824.530000	-17091.765000	0.000000	0.000000	0.000000	0.000000	-9.309342	55.484470	-10.800473	-14.246376	0.000000	0.000000	-0.000000	0.000000	19.807480	-1.724380	-3.723440	-0.011291	0.922605	0.379333	-1.000000	-1.000000	-1.000000	-1.000000	-1.000000	-1.000000	-1.000000	138.827586	0.000000	-1.000000	-1.000000	236964.000000	1772918502.311770
-2801.745000	34259.805000	-14794.110000	-17064.765000	0.000000	0.000000	0.000000	0.000000	-104.270072	16.461013	-127.943471	-150.440538	0.000000	0.000000	-0.000000	0.000000	18.647720	-2.044840	-1.007160	-0.013245	0.924253	0.374206	-1.000000	-1.000000	-1.000000	-1.000000	-1.000000	-1.000000	-1.000000	138.827586	0.000000	-1.000000	-1.000000	236965.000000	1772918502.315661
-2751.435000	34307.595000	-14728.230000	-16987.005000	0.000000	0.000000	0.000000	0.000000	-142.904889	-34.749784	-173.234127	-203.809597	0.000000	0.000000	-0.000000	0.000000	18.647720	-2.044840	-1.007160	-0.013245	0.924253	0.374206	-1.000000	-1.000000	-1.000000	-1.000000	-1.000000	-1.000000	-1.000000	138.827586	0.000000	-1.000000	-1.000000	236966.000000	1772918502.315664
-2626.065000	34303.770000	-14572.485000	-16817.805000	0.000000	0.000000	0.000000	0.000000	-102.421572	-66.135699	-121.466624	-143.552351	0.000000	0.000000	-0.000000	0.000000	18.647720	-2.044840	-1.007160	-0.013245	0.924253	0.374206	-1.000000	-1.000000	-1.000000	-1.000000	-1.000000	-1.000000	-1.000000	138.827586	0.000000	-1.000000	-1.000000	236967.000000	1772918502.319437
-2477.070000	34360.605000	-14381.055000	-16595.370000	0.000000	0.000000	0.000000	0.000000	-3.327543	-61.789174	-1.273644	-2.231705	0.000000	0.000000	-0.000000	0.000000	18.647720	-2.044840	-1.007160	-0.013245	0.924253	0.374206	-1.000000	-1.000000	-1.000000	-1.000000	-1.000000	-1.000000	-1.000000	138.827586	0.000000	-1.000000	-1.000000	236968.000000	1772918502.319440
-2497.815000	34473.510000	-14407.155000	-16611.075000	0.000000	0.000000	0.000000	0.000000	100.989692	-27.812676	121.700500	143.629396	0.000000	0.000000	-0.000000	0.000000	18.647720	-2.044840	-1.007160	-0.013245	0.924253	0.374206	-1.000000	-1.000000	-1.000000	-1.000000	-1.000000	-1.000000	-1.000000	138.827586	0.000000	-1.000000	-1.000000	236969.000000	1772918502.323522
-2574.810000	34577.595000	-14505.705000	-16716.195000	0.000000	0.000000	0.000000	0.000000	150.972666	19.162404	177.080623	211.947508	0.000000	0.000000	-0.000000	0.000000	18.647720	-2.044840	-1.007160	-0.013245	0.924253	0.374206	-1.000000	-1.000000	-1.000000	-1.000000	-1.000000	-1.000000	-1.000000	138.827586	0.000000	-1.000000	-1.000000	236970.000000	1772918502.323525
-2668.455000	34619.220000	-14630.445000	-16854.210000	0.000000	0.000000	0.000000	0.000000	116.571900	58.334797	130.672123	161.774481	0.000000	0.000000	-0.000000	0.000000	18.647720	-2.044840	-1.007160	-0.013245	0.924253	0.374206	-1.000000	-1.000000	-1.000000	-1.000000	-1.000000	-1.000000	-1.000000	138.827586	0.000000	-1.000000	-1.000000	236971.000000	1772918502.327529
-2833.470000	34607.115000	-14845.230000	-17097.390000	0.000000	0.000000	0.000000	0.000000	17.710521	69.058721	8.229539	20.730686	0.000000	0.000000	-0.000000	0.000000	18.647720	-2.044840	-1.007160	-0.013245	0.924253	0.374206	-1.000000	-1.000000	-1.000000	-1.000000	-1.000000	-1.000000	-1.000000	138.827586	0.000000	-1.000000	-1.000000	236972.000000	1772918502.327533
-2868.075000	34662.735000	-14904.495000	-17157.555000	0.000000	0.000000	0.000000	0.000000	-90.754599	43.661003	-122.960431	-134.372865	0.000000	0.000000	-0.000000	0.000000	18.647720	-2.044840	-1.007160	-0.013245	0.924253	0.374206	-1.000000	-1.000000	-1.000000	-1.000000	-1.000000	-1.000000	-1.000000	138.827586	0.000000	-1.000000	-1.000000	236973.000000	1772918502.331468
-2834.910000	34752.105000	-14879.655000	-17114.670000	0.000000	0.000000	0.000000	0.000000	-150.316018	-1.916040	-191.979962	-220.088143	0.000000	0.000000	-0.000000	0.000000	18.647720	-2.044840	-1.007160	-0.013245	0.924253	0.374206	-1.000000	-1.000000	-1.000000	-1.000000	-1.000000	-1.000000	-1.000000	138.827586	0.000000	-1.000000	-1.000000	236974.000000	1772918502.331471
-2733.030000	34749.630000	-14748.930000	-16977.870000	0.000000	0.000000	0.000000	0.000000	-128.608763	-40.139509	-159.847177	-188.921005	0.000000	0.000000	-0.000000	0.000000	15.397340	-2.258480	-0.503580	-0.006836	0.927000	0.372558	-1.000000	-1.000000	-1.000000	-1.000000	-1.000000	-1.000000	-1.000000	138.827586	0.000000	-1.000000	-1.000000	236975.000000	1772918502.335519
-2534.940000	34756.785000	-14474.970000	-16693.650000	0.000000	0.000000	0.000000	0.000000	-36.162938	-56.385685	-39.074285	-54.732325	0.000000	0.000000	-0.000000	0.000000	15.397340	-2.258480	-0.503580	-0.006836	0.927000	0.372558	-1.000000	-1.000000	-1.000000	-1.000000	-1.000000	-1.000000	-1.000000	138.827586	0.000000	-1.000000	-1.000000	236976.000000	1772918502.335522
-2450.925000	34600.860000	-14368.590000	-16575.165000	0.000000	0.000000	0.000000	0.000000	80.488686	-56.492557	113.163497	116.031479	0.000000	0.000000	-0.000000	0.000000	15.397340	-2.258480	-0.503580	-0.006836	0.927000	0.372558	-1.000000	-1.000000	-1.000000	-1.000000	-1.000000	-1.000000	-1.000000	138.827586	0.000000	-1.000000	-1.000000	236977.000000	1772918502.339550
-2500.155000	34460.955000	-14431.500000	-16639.560000	0.000000	0.000000	0.000000	0.000000	159.594945	-55.474214	217.387511	233.969806	0.000000	0.000000	-0.000000	0.000000	15.397340	-2.258480	-0.503580	-0.006836	0.927000	0.372558	-1.000000	-1.000000	-1.000000	-1.000000	-1.000000	-1.000000	-1.000000	138.827586	0.000000	-1.000000	-1.000000	236978.000000	1772918502.339553
-2558.430000	34387.920000	-14506.965000	-16730.325000	0.000000	0.000000	0.000000	0.000000	155.095131	-58.829470	211.619595	231.311197	0.000000	0.000000	-0.000000	0.000000	15.397340	-2.258480	-0.503580	-0.006836	0.927000	0.372558	-1.000000	-1.000000	-1.000000	-1.000000	-1.000000	-1.000000	-1.000000	138.827586	0.000000	-1.000000	-1.000000	236979.000000	1772918502.343608
-2662.785000	34271.055000	-14662.755000	-16917.750000	0.000000	0.000000	0.000000	0.000000	67.833447	-55.037409	95.030899	106.674027	0.000000	0.000000	-0.000000	0.000000	15.397340	-2.258480	-0.503580	-0.006836	0.927000	0.372558	-1.000000	-1.000000	-1.000000	-1.000000	-1.000000	-1.000000	-1.000000	138.827586	0.000000	-1.000000	-1.000000	236980.000000	1772918502.343611
-2700.900000	34099.020000	-14722.920000	-16996.140000	0.000000	0.000000	0.000000	0.000000	-53.578634	-33.295130	-69.322522	-72.418103	0.000000	0.000000	-0.000000	0.000000	15.397340	-2.258480	-0.503580	-0.006836	0.927000	0.372558	-1.000000	-1.000000	-1.000000	-1.000000	-1.000000	-1.000000	-1.000000	138.827586	0.000000	-1.000000	-1.000000	236981.000000	1772918502.347599
-2692.620000	34117.155000	-14701.410000	-16959.780000	0.000000	0.000000	0.000000	0.000000	-144.199644	3.619280	-194.416051	-210.465042	0.000000	0.000000	-0.000000	0.000000	15.397340	-2.258480	-0.503580	-0.006836	0.927000	0.372558	-1.000000	-1.000000	-1.000000	-1.000000	-1.000000	-1.000000	-1.000000	138.827586	0.000000	-1.000000	-1.000000	236982.000000	1772918502.347601
-2678.085000	34062.345000	-14672.745000	-16913.295000	0.000000	0.000000	0.000000	0.000000	-160.787569	48.131878	-219.355431	-237.931087	0.000000	0.000000	-0.000000	0.000000	15.397340	-2.258480	-0.503580	-0.006836	0.927000	0.372558	-1.000000	-1.000000	-1.000000	-1.000000	-1.000000	-1.000000	-1.000000	138.827586	0.000000	-1.000000	-1.000000	236983.000000	1772918502.350944
-2520.225000	34040.430000	-14480.370000	-16692.975000	0.000000	0.000000	0.000000	0.000000	-101.535211	89.912046	-139.592199	-147.731151	0.000000	0.000000	-0.000000	0.000000	15.397340	-2.258480	-0.503580	-0.006836	0.927000	0.372558	-1.000000	-1.000000	-1.000000	-1.000000	-1.000000	-1.000000	-1.000000	138.827586	0.000000	-1.000000	-1.000000	236984.000000	1772918502.350946
-2398.500000	34077.105000	-14357.970000	-16520.670000	0.000000	0.000000	0.000000	0.000000	1.736258	114.445610	-0.125024	9.691607	0.000000	0.000000	-0.000000	0.000000	10.285240	0.976640	-3.708180	-0.000916	0.931455	0.367126	-1.000000	-1.000000	-1.000000	-1.000000	-1.000000	-1.000000	-1.000000	138.827586	0.000000	-1.000000	-1.000000	236985.000000	1772918502.355594
-2403.090000	34070.490000	-14437.530000	-16565.445000	0.000000	0.000000	0.000000	0.000000	99.589868	112.593325	128.053399	154.282596	0.000000	0.000000	-0.000000	0.000000	10.285240	0.976640	-3.708180	-0.000916	0.931455	0.367126	-1.000000	-1.000000	-1.000000	-1.000000	-1.000000	-1.000000	-1.000000	138.827586	0.000000	-1.000000	-1.000000	236986.000000	1772918502.355598
-2463.210000	34054.560000	-14519.520000	-16656.120000	0.000000	0.000000	0.000000	0.000000	142.414466	84.264439	177.939263	210.292803	0.000000	0.000000	-0.000000	0.000000	10.285240	0.976640	-3.708180	-0.000916	0.931455	0.367126	-1.000000	-1.000000	-1.000000	-1.000000	-1.000000	-1.000000	-1.000000	138.827586	0.000000	-1.000000	-1.000000	236987.000000	1772918502.359015
-2582.460000	34037.910000	-14661.630000	-16840.395000	0.000000	0.000000	0.000000	0.000000	107.363494	36.074083	126.659458	148.767992	0.000000	0.000000	-0.000000	0.000000	10.285240	0.976640	-3.708180	-0.000916	0.931455	0.367126	-1.000000	-1.000000	-1.000000	-1.000000	-1.000000	-1.000000	-1.000000	138.827586	0.000000	-1.000000	-1.000000	236988.000000	1772918502.359018
-2681.775000	33922.530000	-14775.615000	-17013.510000	0.000000	0.000000	0.000000	0.000000	14.920247	-20.162380	10.786506	6.922996	0.000000	0.000000	-0.000000	0.000000	10.285240	0.976640	-3.708180	-0.000916	0.931455	0.367126	-1.000000	-1.000000	-1.000000	-1.000000	-1.000000	-1.000000	-1.000000	138.827586	0.000000	-1.000000	-1.000000	236989.000000	1772918502.365210
-2705.130000	33861.780000	-14761.575000	-17006.805000	0.000000	0.000000	0.000000	0.000000	-82.695299	-71.187404	-99.981370	-134.761980	0.000000	0.000000	-0.000000	0.000000	10.285240	0.976640	-3.708180	-0.000916	0.931455	0.367126	-1.000000	-1.000000	-1.000000	-1.000000	-1.000000	-1.000000	-1.000000	138.689655	0.000000	-1.000000	-1.000000	236990.000000	1772918502.365213
-2654.280000	33866.820000	-14635.440000	-16871.085000	0.000000	0.000000	0.000000	0.000000	-131.386228	-101.994192	-142.652748	-195.669837	0.000000	0.000000	-0.000000	0.000000	10.285240	0.976640	-3.708180	-0.000916	0.931455	0.367126	-1.000000	-1.000000	-1.000000	-1.000000	-1.000000	-1.000000	-1.000000	138.689655	0.000000	-1.000000	-1.000000	236991.000000	1772918502.368239
-2497.995000	33849.630000	-14439.555000	-16662.195000	0.000000	0.000000	0.000000	0.000000	-104.451091	-98.540531	-93.568892	-139.542137	0.000000	0.000000	-0.000000	0.000000	10.285240	0.976640	-3.708180	-0.000916	0.931455	0.367126	-1.000000	-1.000000	-1.000000	-1.000000	-1.000000	-1.000000	-1.000000	138.689655	0.000000	-1.000000	-1.000000	236992.000000	1772918502.368242
-2372.670000	33948.225000	-14268.870000	-16479.720000	0.000000	0.000000	0.000000	0.000000	-16.044644	-59.017418	18.695583	2.169181	0.000000	0.000000	-0.000000	0.000000	10.285240	0.976640	-3.708180	-0.000916	0.931455	0.367126	-1.000000	-1.000000	-1.000000	-1.000000	-1.000000	-1.000000	-1.000000	138.689655	0.000000	-1.000000	-1.000000	236993.000000	1772918502.372686
-2494.080000	34119.585000	-14381.865000	-16596.180000	0.000000	0.000000	0.000000	0.000000	82.271799	4.426735	125.784291	144.887567	0.000000	0.000000	-0.000000	0.000000	10.285240	0.976640	-3.708180	-0.000916	0.931455	0.367126	-1.000000	-1.000000	-1.000000	-1.000000	-1.000000	-1.000000	-1.000000	138.689655	0.000000	-1.000000	-1.000000	236994.000000	1772918502.372689
-2631.735000	34216.830000	-14538.915000	-16757.190000	0.000000	0.000000	0.000000	0.000000	126.178479	70.930424	155.277752	198.117916	0.000000	0.000000	-0.000000	0.000000	1.815940	4.501700	-5.081580	-0.000671	0.934568	0.360534	-1.000000	-1.000000	-1.000000	-1.000000	-1.000000	-1.000000	-1.000000	138.689655	0.000000	-1.000000	-1.000000	236995.000000	1772918502.375983
-2681.280000	34233.165000	-14619.870000	-16860.465000	0.000000	0.000000	0.000000	0.000000	86.751086	111.745497	82.780123	127.956203	0.000000	0.000000	-0.000000	0.000000	1.815940	4.501700	-5.081580	-0.000671	0.934568	0.360534	-1.000000	-1.000000	-1.000000	-1.000000	-1.000000	-1.000000	-1.000000	138.689655	0.000000	-1.000000	-1.000000	236996.000000	1772918502.375986
-2797.290000	34137.450000	-14787.810000	-17056.980000	0.000000	0.000000	0.000000	0.000000	-4.209054	100.026263	-45.816561	-17.640558	0.000000	0.000000	-0.000000	0.000000	1.815940	4.501700	-5.081580	-0.000671	0.934568	0.360534	-1.000000	-1.000000	-1.000000	-1.000000	-1.000000	-1.000000	-1.000000	138.689655	0.000000	-1.000000	-1.000000	236997.000000	1772918502.382234
-2773.170000	34009.740000	-14777.775000	-17046.090000	0.000000	0.000000	0.000000	0.000000	-84.897742	30.962474	-152.019620	-149.532795	0.000000	0.000000	-0.000000	0.000000	1.815940	4.501700	-5.081580	-0.000671	0.934568	0.360534	-1.000000	-1.000000	-1.000000	-1.000000	-1.000000	-1.000000	-1.000000	138.689655	0.000000	-1.000000	-1.000000	236998.000000	1772918502.382236
-2724.120000	34048.170000	-14706.855000	-16965.360000	0.000000	0.000000	0.000000	0.000000	-108.114322	-65.024724	-176.000872	-194.056314	0.000000	0.000000	-0.000000	0.000000	1.815940	4.501700	-5.081580	-0.000671	0.934568	0.360534	-1.000000	-1.000000	-1.000000	-1.000000	-1.000000	-1.000000	-1.000000	138.689655	0.000000	-1.000000	-1.000000	236999.000000	1772918502.384040
-2647.935000	34016.850000	-14591.205000	-16840.845000	0.000000	0.000000	0.000000	0.000000	-64.378068	-134.394630	-105.098776	-129.034678	0.000000	0.000000	-0.000000	0.000000	1.815940	4.501700	-5.081580	-0.000671	0.934568	0.360534	-1.000000	-1.000000	-1.000000	-1.000000	-1.000000	-1.000000	-1.000000	138.689655	0.000000	-1.000000	-1.000000	237000.000000	1772918502.384043
-2458.170000	33983.280000	-14369.760000	-16588.350000	0.000000	0.000000	0.000000	0.000000	19.472336	-140.049298	23.858098	8.787094	0.000000	0.000000	-0.000000	0.000000	1.815940	4.501700	-5.081580	-0.000671	0.934568	0.360534	-1.000000	-1.000000	-1.000000	-1.000000	-1.000000	-1.000000	-1.000000	138.689655	0.000000	-1.000000	-1.000000	237001.000000	1772918502.387611
-2425.500000	34031.205000	-14351.265000	-16542.315000	0.000000	0.000000	0.000000	0.000000	99.830354	-86.269668	146.651718	148.018931	0.000000	0.000000	-0.000000	0.000000	1.815940	4.501700	-5.081580	-0.000671	0.934568	0.360534	-1.000000	-1.000000	-1.000000	-1.000000	-1.000000	-1.000000	-1.000000	138.689655	0.000000	-1.000000	-1.000000	237002.000000	1772918502.387614
-2481.795000	34058.970000	-14415.930000	-16622.235000	0.000000	0.000000	0.000000	0.000000	133.904117	-4.197616	199.968097	215.459369	0.000000	0.000000	-0.000000	0.000000	1.815940	4.501700	-5.081580	-0.000671	0.934568	0.360534	-1.000000	-1.000000	-1.000000	-1.000000	-1.000000	-1.000000	-1.000000	138.689655	0.000000	-1.000000	-1.000000	237003.000000	1772918502.391654
-2564.190000	34074.450000	-14517.855000	-16731.270000	0.000000	0.000000	0.000000	0.000000	97.782065	70.314986	152.417197	170.990887	0.000000	0.000000	-0.000000	0.000000	1.815940	4.501700	-5.081580	-0.000671	0.934568	0.360534	-1.000000	-1.000000	-1.000000	-1.000000	-1.000000	-1.000000	-1.000000	138.689655	0.000000	-1.000000	-1.000000	237004.000000	1772918502.391658
-2708.190000	34009.740000	-14718.375000	-16955.055000	0.000000	0.000000	0.000000	0.000000	4.845787	108.289365	26.119984	34.451934	0.000000	0.000000	-0.000000	0.000000	-4.913720	7.248500	-4.852680	0.001648	0.941038	0.357970	-1.000000	-1.000000	-1.000000	-1.000000	-1.000000	-1.000000	-1.000000	138.689655	0.000000	-1.000000	-1.000000	237005.000000	1772918502.395754
-2726.190000	33838.335000	-14754.510000	-17007.795000	0.000000	0.000000	0.000000	0.000000	-98.160257	94.933446	-115.085618	-124.224613	0.000000	0.000000	-0.000000	0.000000	-4.913720	7.248500	-4.852680	0.001648	0.941038	0.357970	-1.000000	-1.000000	-1.000000	-1.000000	-1.000000	-1.000000	-1.000000	138.689655	0.000000	-1.000000	-1.000000	237006.000000	1772918502.395758
-2662.605000	33705.810000	-14678.145000	-16919.955000	0.000000	0.000000	0.000000	0.000000	-155.552362	35.982854	-197.881445	-221.301859	0.000000	0.000000	-0.000000	0.000000	-4.913720	7.248500	-4.852680	0.001648	0.941038	0.357970	-1.000000	-1.000000	-1.000000	-1.000000	-1.000000	-1.000000	-1.000000	138.689655	0.000000	-1.000000	-1.000000	237007.000000	1772918502.399640
-2616.120000	33706.485000	-14609.565000	-16836.210000	0.000000	0.000000	0.000000	0.000000	-134.781711	-37.268781	-178.109218	-203.782877	0.000000	0.000000	-0.000000	0.000000	-4.913720	7.248500	-4.852680	0.001648	0.941038	0.357970	-1.000000	-1.000000	-1.000000	-1.000000	-1.000000	-1.000000	-1.000000	138.689655	0.000000	-1.000000	-1.000000	237008.000000	1772918502.399643
-2471.040000	33742.845000	-14422.950000	-16626.960000	0.000000	0.000000	0.000000	0.000000	-47.723101	-79.393285	-68.565014	-82.552406	0.000000	0.000000	-0.000000	0.000000	-4.913720	7.248500	-4.852680	0.001648	0.941038	0.357970	-1.000000	-1.000000	-1.000000	-1.000000	-1.000000	-1.000000	-1.000000	138.689655	0.000000	-1.000000	-1.000000	237009.000000	1772918502.403711
-2402.820000	33872.535000	-14354.100000	-16523.595000	0.000000	0.000000	0.000000	0.000000	59.583691	-61.886847	71.200080	76.750064	0.000000	0.000000	-0.000000	0.000000	-4.913720	7.248500	-4.852680	0.001648	0.941038	0.357970	-1.000000	-1.000000	-1.000000	-1.000000	-1.000000	-1.000000	-1.000000	138.689655	0.000000	-1.000000	-1.000000	237010.000000	1772918502.403713
-2452.860000	33959.295000	-14434.605000	-16605.180000	0.000000	0.000000	0.000000	0.000000	133.104328	5.430983	168.121979	190.968368	0.000000	0.000000	-0.000000	0.000000	-4.913720	7.248500	-4.852680	0.001648	0.941038	0.357970	-1.000000	-1.000000	-1.000000	-1.000000	-1.000000	-1.000000	-1.000000	138.689655	0.000000	-1.000000	-1.000000	237011.000000	1772918502.407701
-2494.530000	33938.550000	-14503.365000	-16685.235000	0.000000	0.000000	0.000000	0.000000	135.970501	79.635149	171.809990	200.387083	0.000000	0.000000	-0.000000	0.000000	-4.913720	7.248500	-4.852680	0.001648	0.941038	0.357970	-1.000000	-1.000000	-1.000000	-1.000000	-1.000000	-1.000000	-1.000000	138.689655	0.000000	-1.000000	-1.000000	237012.000000	1772918502.407704
-2614.455000	33904.710000	-14648.940000	-16856.685000	0.000000	0.000000	0.000000	0.000000	69.211370	111.299422	84.464591	103.367658	0.000000	0.000000	-0.000000	0.000000	-4.913720	7.248500	-4.852680	0.001648	0.941038	0.357970	-1.000000	-1.000000	-1.000000	-1.000000	-1.000000	-1.000000	-1.000000	138.689655	0.000000	-1.000000	-1.000000	237013.000000	1772918502.411848
-2734.290000	33803.370000	-14773.005000	-17009.820000	0.000000	0.000000	0.000000	0.000000	-30.431863	77.971426	-42.736814	-44.415813	0.000000	0.000000	-0.000000	0.000000	-4.913720	7.248500	-4.852680	0.001648	0.941038	0.357970	-1.000000	-1.000000	-1.000000	-1.000000	-1.000000	-1.000000	-1.000000	138.689655	0.000000	-1.000000	-1.000000	237014.000000	1772918502.411851
-2671.875000	33631.650000	-14667.750000	-16926.345000	0.000000	0.000000	0.000000	0.000000	-111.537640	-3.941853	-140.782481	-163.531773	0.000000	0.000000	-0.000000	0.000000	-16.007740	3.006220	-0.518840	-0.007080	0.942869	0.361022	-1.000000	-1.000000	-1.000000	-1.000000	-1.000000	-1.000000	-1.000000	138.689655	0.000000	-1.000000	-1.000000	237015.000000	1772918502.415780
-2600.460000	33602.445000	-14555.700000	-16832.970000	0.000000	0.000000	0.000000	0.000000	-130.439672	-92.591998	-155.662559	-189.555744	0.000000	0.000000	-0.000000	0.000000	-16.007740	3.006220	-0.518840	-0.007080	0.942869	0.361022	-1.000000	-1.000000	-1.000000	-1.000000	-1.000000	-1.000000	-1.000000	138.689655	0.000000	-1.000000	-1.000000	237016.000000	1772918502.415783
-2499.615000	33673.455000	-14415.570000	-16670.430000	0.000000	0.000000	0.000000	0.000000	-76.251577	-139.230220	-79.691554	-109.281384	0.000000	0.000000	-0.000000	0.000000	-16.007740	3.006220	-0.518840	-0.007080	0.942869	0.361022	-1.000000	-1.000000	-1.000000	-1.000000	-1.000000	-1.000000	-1.000000	138.689655	0.000000	-1.000000	-1.000000	237017.000000	1772918502.419694
-2408.220000	33817.500000	-14291.820000	-16506.540000	0.000000	0.000000	0.000000	0.000000	19.275825	-112.104035	41.014045	30.453937	0.000000	0.000000	-0.000000	0.000000	-16.007740	3.006220	-0.518840	-0.007080	0.942869	0.361022	-1.000000	-1.000000	-1.000000	-1.000000	-1.000000	-1.000000	-1.000000	138.689655	0.000000	-1.000000	-1.000000	237018.000000	1772918502.419697
-2474.685000	33967.305000	-14370.120000	-16583.670000	0.000000	0.000000	0.000000	0.000000	101.146874	-19.827706	135.662637	151.419044	0.000000	0.000000	-0.000000	0.000000	-16.007740	3.006220	-0.518840	-0.007080	0.942869	0.361022	-1.000000	-1.000000	-1.000000	-1.000000	-1.000000	-1.000000	-1.000000	138.689655	0.000000	-1.000000	-1.000000	237019.000000	1772918502.423771
-2527.245000	34069.635000	-14511.465000	-16700.940000	0.000000	0.000000	0.000000	0.000000	122.899395	89.712332	148.184714	184.839065	0.000000	0.000000	-0.000000	0.000000	-16.007740	3.006220	-0.518840	-0.007080	0.942869	0.361022	-1.000000	-1.000000	-1.000000	-1.000000	-1.000000	-1.000000	-1.000000	138.689655	0.000000	-1.000000	-1.000000	237020.000000	1772918502.423774
-2582.055000	34101.045000	-14740.650000	-16847.145000	0.000000	0.000000	0.000000	0.000000	75.253911	157.288671	68.154432	111.338618	0.000000	0.000000	-0.000000	0.000000	-16.007740	3.006220	-0.518840	-0.007080	0.942869	0.361022	-1.000000	-1.000000	-1.000000	-1.000000	-1.000000	-1.000000	-1.000000	138.689655	0.000000	-1.000000	-1.000000	237021.000000	1772918502.427808
-2691.810000	34089.480000	-14939.550000	-17042.355000	0.000000	0.000000	0.000000	0.000000	-9.853346	146.825232	-61.932643	-25.765102	0.000000	0.000000	-0.000000	0.000000	-16.007740	3.006220	-0.518840	-0.007080	0.942869	0.361022	-1.000000	-1.000000	-1.000000	-1.000000	-1.000000	-1.000000	-1.000000	138.689655	0.000000	-1.000000	-1.000000	237022.000000	1772918502.427810
-2672.235000	34034.985000	-14926.005000	-17039.070000	0.000000	0.000000	0.000000	0.000000	-84.367005	64.453511	-168.787802	-149.551993	0.000000	0.000000	-0.000000	0.000000	-16.007740	3.006220	-0.518840	-0.007080	0.942869	0.361022	-1.000000	-1.000000	-1.000000	-1.000000	-1.000000	-1.000000	-1.000000	138.689655	0.000000	-1.000000	-1.000000	237023.000000	1772918502.431873
-2671.515000	34101.135000	-14838.030000	-16989.705000	0.000000	0.000000	0.000000	0.000000	-110.865811	-46.205704	-186.419871	-192.162450	0.000000	0.000000	-0.000000	0.000000	-16.007740	3.006220	-0.518840	-0.007080	0.942869	0.361022	-1.000000	-1.000000	-1.000000	-1.000000	-1.000000	-1.000000	-1.000000	138.689655	0.000000	-1.000000	-1.000000	237024.000000	1772918502.431877
-2667.960000	34107.930000	-14657.580000	-16848.495000	0.000000	0.000000	0.000000	0.000000	-80.340598	-128.679933	-96.185339	-130.035857	0.000000	0.000000	-0.000000	0.000000	-2.502640	1.983800	-4.684820	-0.009949	0.925596	0.378661	-1.000000	-1.000000	-1.000000	-1.000000	-1.000000	-1.000000	-1.000000	138.689655	0.000000	-1.000000	-1.000000	237025.000000	1772918502.435849
-2557.080000	34202.115000	-14457.285000	-16656.120000	0.000000	0.000000	0.000000	0.000000	-13.684025	-146.773754	58.990156	4.192933	0.000000	0.000000	-0.000000	0.000000	-2.502640	1.983800	-4.684820	-0.009949	0.925596	0.378661	-1.000000	-1.000000	-1.000000	-1.000000	-1.000000	-1.000000	-1.000000	138.689655	0.000000	-1.000000	-1.000000	237026.000000	1772918502.435851
-2534.715000	34279.740000	-14547.780000	-16645.950000	0.000000	0.000000	0.000000	0.000000	56.059317	-101.395452	196.684926	140.928494	0.000000	0.000000	-0.000000	0.000000	-2.502640	1.983800	-4.684820	-0.009949	0.925596	0.378661	-1.000000	-1.000000	-1.000000	-1.000000	-1.000000	-1.000000	-1.000000	138.689655	0.000000	-1.000000	-1.000000	237027.000000	1772918502.439796
-2555.955000	34319.385000	-14644.080000	-16705.980000	0.000000	0.000000	0.000000	0.000000	98.063179	-23.108485	237.077831	207.442780	0.000000	0.000000	-0.000000	0.000000	-2.502640	1.983800	-4.684820	-0.009949	0.925596	0.378661	-1.000000	-1.000000	-1.000000	-1.000000	-1.000000	-1.000000	-1.000000	138.689655	0.000000	-1.000000	-1.000000	237028.000000	1772918502.439799
-2613.150000	34416.855000	-14730.570000	-16854.840000	0.000000	0.000000	0.000000	0.000000	92.729868	47.895840	154.451352	166.282166	0.000000	0.000000	-0.000000	0.000000	-2.502640	1.983800	-4.684820	-0.009949	0.925596	0.378661	-1.000000	-1.000000	-1.000000	-1.000000	-1.000000	-1.000000	-1.000000	138.689655	0.000000	-1.000000	-1.000000	237029.000000	1772918502.444049
-2809.890000	34445.385000	-15010.380000	-17130.150000	0.000000	0.000000	0.000000	0.000000	40.741887	83.975601	-4.899289	36.715630	0.000000	0.000000	-0.000000	0.000000	-2.502640	1.983800	-4.684820	-0.009949	0.925596	0.378661	-1.000000	-1.000000	-1.000000	-1.000000	-1.000000	-1.000000	-1.000000	138.689655	0.000000	-1.000000	-1.000000	237030.000000	1772918502.444051
-2886.255000	34393.770000	-15090.030000	-17184.015000	0.000000	0.000000	0.000000	0.000000	-36.032543	77.300066	-160.263907	-116.528709	0.000000	0.000000	-0.000000	0.000000	-2.502640	1.983800	-4.684820	-0.009949	0.925596	0.378661	-1.000000	-1.000000	-1.000000	-1.000000	-1.000000	-1.000000	-1.000000	138.689655	0.000000	-1.000000	-1.000000	237031.000000	1772918502.447778
-2779.605000	34325.280000	-14928.120000	-17056.395000	0.000000	0.000000	0.000000	0.000000	-97.127288	34.494364	-235.792878	-210.590974	0.000000	0.000000	-0.000000	0.000000	-2.502640	1.983800	-4.684820	-0.009949	0.925596	0.378661	-1.000000	-1.000000	-1.000000	-1.000000	-1.000000	-1.000000	-1.000000	138.689655	0.000000	-1.000000	-1.000000	237032.000000	1772918502.447781
-2721.060000	34227.450000	-14794.605000	-17008.560000	0.000000	0.000000	0.000000	0.000000	-101.101545	-25.637210	-188.867621	-189.134491	0.000000	0.000000	-0.000000	0.000000	-2.502640	1.983800	-4.684820	-0.009949	0.925596	0.378661	-1.000000	-1.000000	-1.000000	-1.000000	-1.000000	-1.000000	-1.000000	138.689655	0.000000	-1.000000	-1.000000	237033.000000	1772918502.485223
-2588.805000	34186.455000	-14579.595000	-16788.375000	0.000000	0.000000	0.000000	0.000000	-40.435077	-76.004685	-40.912062	-64.384104	0.000000	0.000000	-0.000000	0.000000	-2.502640	1.983800	-4.684820	-0.009949	0.925596	0.378661	-1.000000	-1.000000	-1.000000	-1.000000	-1.000000	-1.000000	-1.000000	138.689655	0.000000	-1.000000	-1.000000	237034.000000	1772918502.485228
-2476.980000	34324.740000	-14533.335000	-16600.230000	0.000000	0.000000	0.000000	0.000000	49.825372	-89.311575	127.658640	95.062642	0.000000	0.000000	-0.000000	0.000000	2.929920	7.919940	-5.493600	-0.001770	0.904844	0.379394	-1.000000	-1.000000	-1.000000	-1.000000	-1.000000	-1.000000	-1.000000	138.689655	0.000000	-1.000000	-1.000000	237035.000000	1772918502.485233
-2514.240000	34344.585000	-14625.540000	-16618.950000	0.000000	0.000000	0.000000	0.000000	117.381836	-51.791085	224.025651	208.865193	0.000000	0.000000	-0.000000	0.000000	2.929920	7.919940	-5.493600	-0.001770	0.904844	0.379394	-1.000000	-1.000000	-1.000000	-1.000000	-1.000000	-1.000000	-1.000000	138.689655	0.000000	-1.000000	-1.000000	237036.000000	1772918502.485235
-2532.240000	34312.905000	-14580.180000	-16687.035000	0.000000	0.000000	0.000000	0.000000	122.354742	18.072789	198.920119	218.970137	0.000000	0.000000	-0.000000	0.000000	2.929920	7.919940	-5.493600	-0.001770	0.904844	0.379394	-1.000000	-1.000000	-1.000000	-1.000000	-1.000000	-1.000000	-1.000000	138.689655	0.000000	-1.000000	-1.000000	237037.000000	1772918502.485238
-2586.375000	34264.890000	-14614.335000	-16878.915000	0.000000	0.000000	0.000000	0.000000	61.054466	75.950805	78.408753	117.014987	0.000000	0.000000	-0.000000	0.000000	2.929920	7.919940	-5.493600	-0.001770	0.904844	0.379394	-1.000000	-1.000000	-1.000000	-1.000000	-1.000000	-1.000000	-1.000000	138.689655	0.000000	-1.000000	-1.000000	237038.000000	1772918502.485241
-2694.285000	34196.130000	-14646.870000	-16971.255000	0.000000	0.000000	0.000000	0.000000	-32.952982	87.826096	-62.942759	-46.862129	0.000000	0.000000	-0.000000	0.000000	2.929920	7.919940	-5.493600	-0.001770	0.904844	0.379394	-1.000000	-1.000000	-1.000000	-1.000000	-1.000000	-1.000000	-1.000000	138.689655	0.000000	-1.000000	-1.000000	237039.000000	1772918502.485244
-2840.085000	34237.395000	-14678.010000	-16988.940000	0.000000	0.000000	0.000000	0.000000	-115.279522	55.199132	-158.384878	-188.624570	0.000000	0.000000	-0.000000	0.000000	2.929920	7.919940	-5.493600	-0.001770	0.904844	0.379394	-1.000000	-1.000000	-1.000000	-1.000000	-1.000000	-1.000000	-1.000000	138.689655	0.000000	-1.000000	-1.000000	237040.000000	1772918502.485247
-2795.220000	34324.380000	-14786.280000	-17000.280000	0.000000	0.000000	0.000000	0.000000	-152.105881	9.712045	-180.398711	-237.312322	0.000000	0.000000	-0.000000	0.000000	2.929920	7.919940	-5.493600	-0.001770	0.904844	0.379394	-1.000000	-1.000000	-1.000000	-1.000000	-1.000000	-1.000000	-1.000000	138.689655	0.000000	-1.000000	-1.000000	237041.000000	1772918502.485251
-2559.510000	34382.385000	-14748.840000	-16774.515000	0.000000	0.000000	0.000000	0.000000	-122.118448	-14.991147	-138.809572	-173.006901	0.000000	0.000000	-0.000000	0.000000	2.929920	7.919940	-5.493600	-0.001770	0.904844	0.379394	-1.000000	-1.000000	-1.000000	-1.000000	-1.000000	-1.000000	-1.000000	138.689655	0.000000	-1.000000	-1.000000	237042.000000	1772918502.485253
-2432.880000	34510.725000	-14487.795000	-16559.910000	0.000000	0.000000	0.000000	0.000000	-26.132949	-9.065264	-55.649590	-27.891566	0.000000	0.000000	-0.000000	0.000000	2.929920	7.919940	-5.493600	-0.001770	0.904844	0.379394	-1.000000	-1.000000	-1.000000	-1.000000	-1.000000	-1.000000	-1.000000	138.689655	0.000000	-1.000000	-1.000000	237043.000000	1772918502.485256
-2518.065000	34559.910000	-14512.905000	-16675.155000	0.000000	0.000000	0.000000	0.000000	91.372550	13.345127	46.350622	127.493664	0.000000	0.000000	-0.000000	0.000000	2.929920	7.919940	-5.493600	-0.001770	0.904844	0.379394	-1.000000	-1.000000	-1.000000	-1.000000	-1.000000	-1.000000	-1.000000	138.689655	0.000000	-1.000000	-1.000000	237044.000000	1772918502.485259
-2746.890000	34547.175000	-14752.665000	-16903.935000	0.000000	0.000000	0.000000	0.000000	154.860122	28.103824	124.219082	205.455931	0.000000	0.000000	-0.000000	0.000000	14.649600	11.872280	-0.824040	-0.000183	0.938169	0.387938	-1.000000	-1.000000	-1.000000	-1.000000	-1.000000	-1.000000	-1.000000	138.689655	0.000000	-1.000000	-1.000000	237045.000000	1772918502.485262
-2849.670000	34573.770000	-14853.645000	-17039.205000	0.000000	0.000000	0.000000	0.000000	118.069700	17.355211	127.990395	157.407566	0.000000	0.000000	-0.000000	0.000000	14.649600	11.872280	-0.824040	-0.000183	0.938169	0.387938	-1.000000	-1.000000	-1.000000	-1.000000	-1.000000	-1.000000	-1.000000	138.689655	0.000000	-1.000000	-1.000000	237046.000000	1772918502.485265
-2856.105000	34532.775000	-14905.305000	-17112.690000	0.000000	0.000000	0.000000	0.000000	10.544563	-16.747638	56.669396	20.832674	0.000000	0.000000	-0.000000	0.000000	14.649600	11.872280	-0.824040	-0.000183	0.938169	0.387938	-1.000000	-1.000000	-1.000000	-1.000000	-1.000000	-1.000000	-1.000000	138.689655	0.000000	-1.000000	-1.000000	237047.000000	1772918502.485269
