Channel1	Channel2	Channel3	Channel4	Channel5	Channel6	Channel7	Channel8	FilteredChannel1	FilteredChannel2	FilteredChannel3	FilteredChannel4	FilteredChannel5	FilteredChannel6	FilteredChannel7	FilteredChannel8	GyroX	GyroY	GyroZ	AccX	AccY	AccZ	PPG1	PPG2	rawPPG1	rawPPG2	rawPPG3	Hr	Hrv	Battery	Trigger	PhysicalTrigger	AutoTrigger	NumMeasurements	Timestamp
-2283.390000	34264.260000	-14563.080000	-16446.915000	0.000000	0.000000	0.000000	0.000000	89.088593	5.384442	144.743337	146.041439	0.000000	0.000000	-0.000000	0.000000	13.718740	-0.701960	-0.091560	-0.010681	0.923582	0.364623	-1.000000	-1.000000	-1.000000	-1.000000	-1.000000	-1.000000	-1.000000	138.620690	0.000000	-1.000000	-1.000000	243852.000000	1772918516.120294
-2315.340000	34273.215000	-14625.180000	-16512.120000	0.000000	0.000000	0.000000	0.000000	107.008748	95.613166	183.804746	183.924856	0.000000	0.000000	-0.000000	0.000000	13.718740	-0.701960	-0.091560	-0.010681	0.923582	0.364623	-1.000000	-1.000000	-1.000000	-1.000000	-1.000000	-1.000000	-1.000000	138.620690	0.000000	-1.000000	-1.000000	243853.000000	1772918516.120297
-2419.560000	34243.470000	-14778.945000	-16663.725000	0.000000	0.000000	0.000000	0.000000	68.873543	124.484229	124.902676	124.368900	0.000000	0.000000	-0.000000	0.000000	13.718740	-0.701960	-0.091560	-0.010681	0.923582	0.364623	-1.000000	-1.000000	-1.000000	-1.000000	-1.000000	-1.000000	-1.000000	138.620690	0.000000	-1.000000	-1.000000	243854.000000	1772918516.124234
-2550.465000	34170.120000	-14989.230000	-16873.605000	0.000000	0.000000	0.000000	0.000000	-6.488310	81.137913	-1.321272	-1.902548	0.000000	0.000000	-0.000000	0.000000	13.718740	-0.701960	-0.091560	-0.010681	0.923582	0.364623	-1.000000	-1.000000	-1.000000	-1.000000	-1.000000	-1.000000	-1.000000	138.620690	0.000000	-1.000000	-1.000000	243855.000000	1772918516.124236
-2503.395000	33998.580000	-14947.380000	-16828.920000	0.000000	0.000000	0.000000	0.000000	-80.341437	-8.109259	-128.708416	-128.806367	0.000000	0.000000	-0.000000	0.000000	9.629060	-0.427280	-1.785420	-0.006409	0.927854	0.359923	-1.000000	-1.000000	-1.000000	-1.000000	-1.000000	-1.000000	-1.000000	138.620690	0.000000	-1.000000	-1.000000	243856.000000	1772918516.128291
-2417.580000	33868.935000	-14835.915000	-16716.780000	0.000000	0.000000	0.000000	0.000000	-109.900640	-99.890494	-185.722433	-185.096843	0.000000	0.000000	-0.000000	0.000000	9.629060	-0.427280	-1.785420	-0.006409	0.927854	0.359923	-1.000000	-1.000000	-1.000000	-1.000000	-1.000000	-1.000000	-1.000000	138.620690	0.000000	-1.000000	-1.000000	243857.000000	1772918516.128293
-2318.670000	33772.005000	-14696.145000	-16578.180000	0.000000	0.000000	0.000000	0.000000	-74.467989	-153.354008	-136.772969	-135.679224	0.000000	0.000000	-0.000000	0.000000	9.629060	-0.427280	-1.785420	-0.006409	0.927854	0.359923	-1.000000	-1.000000	-1.000000	-1.000000	-1.000000	-1.000000	-1.000000	138.620690	0.000000	-1.000000	-1.000000	243858.000000	1772918516.132002
-2189.745000	33809.310000	-14487.840000	-16371.855000	0.000000	0.000000	0.000000	0.000000	6.561053	-142.668884	-9.079109	-8.233445	0.000000	0.000000	-0.000000	0.000000	9.629060	-0.427280	-1.785420	-0.006409	0.927854	0.359923	-1.000000	-1.000000	-1.000000	-1.000000	-1.000000	-1.000000	-1.000000	138.620690	0.000000	-1.000000	-1.000000	243859.000000	1772918516.132005
-2197.665000	33911.235000	-14480.640000	-16366.770000	0.000000	0.000000	0.000000	0.000000	85.968854	-66.255710	125.015337	124.858227	0.000000	0.000000	-0.000000	0.000000	9.629060	-0.427280	-1.785420	-0.006409	0.927854	0.359923	-1.000000	-1.000000	-1.000000	-1.000000	-1.000000	-1.000000	-1.000000	138.620690	0.000000	-1.000000	-1.000000	243860.000000	1772918516.135807
-2262.555000	33972.120000	-14565.420000	-16453.395000	0.000000	0.000000	0.000000	0.000000	116.672016	48.084665	189.293879	187.888152	0.000000	0.000000	-0.000000	0.000000	9.629060	-0.427280	-1.785420	-0.006409	0.927854	0.359923	-1.000000	-1.000000	-1.000000	-1.000000	-1.000000	-1.000000	-1.000000	138.620690	0.000000	-1.000000	-1.000000	243861.000000	1772918516.135810
-2337.435000	33976.485000	-14673.150000	-16559.190000	0.000000	0.000000	0.000000	0.000000	79.232666	149.183854	146.404451	144.276519	0.000000	0.000000	-0.000000	0.000000	9.629060	-0.427280	-1.785420	-0.006409	0.927854	0.359923	-1.000000	-1.000000	-1.000000	-1.000000	-1.000000	-1.000000	-1.000000	138.620690	0.000000	-1.000000	-1.000000	243862.000000	1772918516.140245
-2460.870000	33884.460000	-14877.090000	-16764.525000	0.000000	0.000000	0.000000	0.000000	-5.511979	186.598396	20.813464	19.025940	0.000000	0.000000	-0.000000	0.000000	9.629060	-0.427280	-1.785420	-0.006409	0.927854	0.359923	-1.000000	-1.000000	-1.000000	-1.000000	-1.000000	-1.000000	-1.000000	138.620690	0.000000	-1.000000	-1.000000	243863.000000	1772918516.140248
-2473.380000	33781.860000	-14919.255000	-16806.060000	0.000000	0.000000	0.000000	0.000000	-90.590397	140.492933	-118.592447	-119.136854	0.000000	0.000000	-0.000000	0.000000	9.629060	-0.427280	-1.785420	-0.006409	0.927854	0.359923	-1.000000	-1.000000	-1.000000	-1.000000	-1.000000	-1.000000	-1.000000	138.620690	0.000000	-1.000000	-1.000000	243864.000000	1772918516.144324
-2410.290000	33674.220000	-14841.180000	-16721.505000	0.000000	0.000000	0.000000	0.000000	-129.044283	34.755397	-196.235534	-195.233261	0.000000	0.000000	-0.000000	0.000000	9.629060	-0.427280	-1.785420	-0.006409	0.927854	0.359923	-1.000000	-1.000000	-1.000000	-1.000000	-1.000000	-1.000000	-1.000000	138.620690	0.000000	-1.000000	-1.000000	243865.000000	1772918516.144327
-2372.805000	33713.550000	-14771.115000	-16648.065000	0.000000	0.000000	0.000000	0.000000	-99.219695	-75.070307	-169.414083	-167.001823	0.000000	0.000000	-0.000000	0.000000	3.799740	1.175020	-2.151660	-0.006409	0.933103	0.353210	-1.000000	-1.000000	-1.000000	-1.000000	-1.000000	-1.000000	-1.000000	138.620690	0.000000	-1.000000	-1.000000	243866.000000	1772918516.148261
-2252.970000	33780.060000	-14568.885000	-16446.240000	0.000000	0.000000	0.000000	0.000000	-18.229157	-131.934949	-53.775173	-50.548599	0.000000	0.000000	-0.000000	0.000000	3.799740	1.175020	-2.151660	-0.006409	0.933103	0.353210	-1.000000	-1.000000	-1.000000	-1.000000	-1.000000	-1.000000	-1.000000	138.620690	0.000000	-1.000000	-1.000000	243867.000000	1772918516.148263
-2153.655000	33695.145000	-14429.520000	-16309.170000	0.000000	0.000000	0.000000	0.000000	71.815290	-114.148975	90.078104	92.843750	0.000000	0.000000	-0.000000	0.000000	3.799740	1.175020	-2.151660	-0.006409	0.933103	0.353210	-1.000000	-1.000000	-1.000000	-1.000000	-1.000000	-1.000000	-1.000000	138.620690	0.000000	-1.000000	-1.000000	243868.000000	1772918516.152316
-2153.205000	33525.630000	-14451.615000	-16331.580000	0.000000	0.000000	0.000000	0.000000	128.486044	-52.459098	190.650907	191.486367	0.000000	0.000000	-0.000000	0.000000	3.799740	1.175020	-2.151660	-0.006409	0.933103	0.353210	-1.000000	-1.000000	-1.000000	-1.000000	-1.000000	-1.000000	-1.000000	138.620690	0.000000	-1.000000	-1.000000	243869.000000	1772918516.152318
-2204.955000	33471.855000	-14538.285000	-16421.490000	0.000000	0.000000	0.000000	0.000000	124.893605	1.190612	196.224242	194.465482	0.000000	0.000000	-0.000000	0.000000	3.799740	1.175020	-2.151660	-0.006409	0.933103	0.353210	-1.000000	-1.000000	-1.000000	-1.000000	-1.000000	-1.000000	-1.000000	138.620690	0.000000	-1.000000	-1.000000	243870.000000	1772918516.157028
-2330.505000	33357.420000	-14737.455000	-16618.680000	0.000000	0.000000	0.000000	0.000000	60.545493	21.490228	101.084791	97.371434	0.000000	0.000000	-0.000000	0.000000	3.799740	1.175020	-2.151660	-0.006409	0.933103	0.353210	-1.000000	-1.000000	-1.000000	-1.000000	-1.000000	-1.000000	-1.000000	138.620690	0.000000	-1.000000	-1.000000	243871.000000	1772918516.157031
-2420.190000	33273.945000	-14879.340000	-16756.920000	0.000000	0.000000	0.000000	0.000000	-35.908137	17.126379	-48.666631	-52.635638	0.000000	0.000000	-0.000000	0.000000	3.799740	1.175020	-2.151660	-0.006409	0.933103	0.353210	-1.000000	-1.000000	-1.000000	-1.000000	-1.000000	-1.000000	-1.000000	138.620690	0.000000	-1.000000	-1.000000	243872.000000	1772918516.160447
-2396.115000	33308.910000	-14841.720000	-16714.620000	0.000000	0.000000	0.000000	0.000000	-117.202319	9.501313	-176.136187	-178.387413	0.000000	0.000000	-0.000000	0.000000	3.799740	1.175020	-2.151660	-0.006409	0.933103	0.353210	-1.000000	-1.000000	-1.000000	-1.000000	-1.000000	-1.000000	-1.000000	138.620690	0.000000	-1.000000	-1.000000	243873.000000	1772918516.160450
-2354.355000	33352.830000	-14767.335000	-16641.225000	0.000000	0.000000	0.000000	0.000000	-140.113590	17.113385	-212.111187	-211.559293	0.000000	0.000000	-0.000000	0.000000	3.799740	1.175020	-2.151660	-0.006409	0.933103	0.353210	-1.000000	-1.000000	-1.000000	-1.000000	-1.000000	-1.000000	-1.000000	138.620690	0.000000	-1.000000	-1.000000	243874.000000	1772918516.164413
-2270.385000	33469.785000	-14618.520000	-16494.570000	0.000000	0.000000	0.000000	0.000000	-92.330770	44.430176	-136.977124	-134.256611	0.000000	0.000000	-0.000000	0.000000	3.799740	1.175020	-2.151660	-0.006409	0.933103	0.353210	-1.000000	-1.000000	-1.000000	-1.000000	-1.000000	-1.000000	-1.000000	138.620690	0.000000	-1.000000	-1.000000	243875.000000	1772918516.164415
-2188.080000	33606.945000	-14473.125000	-16344.315000	0.000000	0.000000	0.000000	0.000000	-0.659783	78.992313	7.073524	10.130372	0.000000	0.000000	-0.000000	0.000000	-3.021480	1.556520	-0.457800	-0.012146	0.938230	0.350463	-1.000000	-1.000000	-1.000000	-1.000000	-1.000000	-1.000000	-1.000000	138.620690	0.000000	-1.000000	-1.000000	243876.000000	1772918516.168396
-2184.795000	33573.060000	-14484.465000	-16354.080000	0.000000	0.000000	0.000000	0.000000	86.467766	97.918108	142.766595	144.682717	0.000000	0.000000	-0.000000	0.000000	-3.021480	1.556520	-0.457800	-0.012146	0.938230	0.350463	-1.000000	-1.000000	-1.000000	-1.000000	-1.000000	-1.000000	-1.000000	138.620690	0.000000	-1.000000	-1.000000	243877.000000	1772918516.168399
-2241.180000	33600.645000	-14568.660000	-16441.200000	0.000000	0.000000	0.000000	0.000000	124.979995	78.866582	198.836407	199.218668	0.000000	0.000000	-0.000000	0.000000	-3.021480	1.556520	-0.457800	-0.012146	0.938230	0.350463	-1.000000	-1.000000	-1.000000	-1.000000	-1.000000	-1.000000	-1.000000	138.620690	0.000000	-1.000000	-1.000000	243878.000000	1772918516.173624
-2354.310000	33614.685000	-14735.970000	-16604.550000	0.000000	0.000000	0.000000	0.000000	96.866029	19.858254	147.499805	146.604240	0.000000	0.000000	-0.000000	0.000000	-3.021480	1.556520	-0.457800	-0.012146	0.938230	0.350463	-1.000000	-1.000000	-1.000000	-1.000000	-1.000000	-1.000000	-1.000000	138.620690	0.000000	-1.000000	-1.000000	243879.000000	1772918516.173627
-2461.590000	33494.715000	-14917.140000	-16786.395000	0.000000	0.000000	0.000000	0.000000	18.981949	-55.593963	18.901592	17.309618	0.000000	0.000000	-0.000000	0.000000	-3.021480	1.556520	-0.457800	-0.012146	0.938230	0.350463	-1.000000	-1.000000	-1.000000	-1.000000	-1.000000	-1.000000	-1.000000	138.620690	0.000000	-1.000000	-1.000000	243880.000000	1772918516.180892
-2420.370000	33360.615000	-14878.620000	-16745.265000	0.000000	0.000000	0.000000	0.000000	-64.627653	-119.848154	-115.519490	-117.062596	0.000000	0.000000	-0.000000	0.000000	-3.021480	1.556520	-0.457800	-0.012146	0.938230	0.350463	-1.000000	-1.000000	-1.000000	-1.000000	-1.000000	-1.000000	-1.000000	138.620690	0.000000	-1.000000	-1.000000	243881.000000	1772918516.180895
-2335.410000	33192.540000	-14766.390000	-16633.980000	0.000000	0.000000	0.000000	0.000000	-104.566706	-155.425695	-178.989092	-179.935726	0.000000	0.000000	-0.000000	0.000000	-3.021480	1.556520	-0.457800	-0.012146	0.938230	0.350463	-1.000000	-1.000000	-1.000000	-1.000000	-1.000000	-1.000000	-1.000000	138.620690	0.000000	-1.000000	-1.000000	243882.000000	1772918516.180899
-2243.700000	33134.940000	-14623.965000	-16493.580000	0.000000	0.000000	0.000000	0.000000	-77.304218	-151.870596	-134.948288	-135.241605	0.000000	0.000000	-0.000000	0.000000	-3.021480	1.556520	-0.457800	-0.012146	0.938230	0.350463	-1.000000	-1.000000	-1.000000	-1.000000	-1.000000	-1.000000	-1.000000	138.620690	0.000000	-1.000000	-1.000000	243883.000000	1772918516.180902
-2106.180000	33156.225000	-14409.495000	-16275.240000	0.000000	0.000000	0.000000	0.000000	-1.559570	-103.195455	-11.212181	-11.164072	0.000000	0.000000	-0.000000	0.000000	-3.021480	1.556520	-0.457800	-0.012146	0.938230	0.350463	-1.000000	-1.000000	-1.000000	-1.000000	-1.000000	-1.000000	-1.000000	138.620690	0.000000	-1.000000	-1.000000	243884.000000	1772918516.183437
-2109.420000	33208.560000	-14403.015000	-16266.690000	0.000000	0.000000	0.000000	0.000000	76.146785	-14.849586	119.980460	120.225973	0.000000	0.000000	-0.000000	0.000000	-3.021480	1.556520	-0.457800	-0.012146	0.938230	0.350463	-1.000000	-1.000000	-1.000000	-1.000000	-1.000000	-1.000000	-1.000000	138.620690	0.000000	-1.000000	-1.000000	243885.000000	1772918516.183440
-2172.285000	33264.495000	-14494.095000	-16357.005000	0.000000	0.000000	0.000000	0.000000	108.791181	87.681516	182.517258	183.126771	0.000000	0.000000	-0.000000	0.000000	-5.768280	1.297100	1.526000	-0.014709	0.933225	0.354735	-1.000000	-1.000000	-1.000000	-1.000000	-1.000000	-1.000000	-1.000000	138.620690	0.000000	-1.000000	-1.000000	243886.000000	1772918516.190586
-2252.745000	33267.555000	-14614.650000	-16475.625000	0.000000	0.000000	0.000000	0.000000	75.182939	164.739176	138.570889	139.578429	0.000000	0.000000	-0.000000	0.000000	-5.768280	1.297100	1.526000	-0.014709	0.933225	0.354735	-1.000000	-1.000000	-1.000000	-1.000000	-1.000000	-1.000000	-1.000000	138.620690	0.000000	-1.000000	-1.000000	243887.000000	1772918516.190589
-2399.445000	33214.140000	-14842.890000	-16705.530000	0.000000	0.000000	0.000000	0.000000	-6.819419	182.236570	11.976557	13.032919	0.000000	0.000000	-0.000000	0.000000	-5.768280	1.297100	1.526000	-0.014709	0.933225	0.354735	-1.000000	-1.000000	-1.000000	-1.000000	-1.000000	-1.000000	-1.000000	138.620690	0.000000	-1.000000	-1.000000	243888.000000	1772918516.193824
-2451.420000	33256.710000	-14918.580000	-16780.950000	0.000000	0.000000	0.000000	0.000000	-92.812950	133.136801	-128.693428	-128.152447	0.000000	0.000000	-0.000000	0.000000	-5.768280	1.297100	1.526000	-0.014709	0.933225	0.354735	-1.000000	-1.000000	-1.000000	-1.000000	-1.000000	-1.000000	-1.000000	138.620690	0.000000	-1.000000	-1.000000	243889.000000	1772918516.193828
-2428.695000	33345.630000	-14872.455000	-16730.325000	0.000000	0.000000	0.000000	0.000000	-136.200975	46.450833	-207.458220	-207.731386	0.000000	0.000000	-0.000000	0.000000	-5.768280	1.297100	1.526000	-0.014709	0.933225	0.354735	-1.000000	-1.000000	-1.000000	-1.000000	-1.000000	-1.000000	-1.000000	138.620690	0.000000	-1.000000	-1.000000	243890.000000	1772918516.197062
-2352.915000	33336.405000	-14760.495000	-16621.380000	0.000000	0.000000	0.000000	0.000000	-111.063132	-33.228895	-178.956895	-179.764952	0.000000	0.000000	-0.000000	0.000000	-5.768280	1.297100	1.526000	-0.014709	0.933225	0.354735	-1.000000	-1.000000	-1.000000	-1.000000	-1.000000	-1.000000	-1.000000	138.620690	0.000000	-1.000000	-1.000000	243891.000000	1772918516.197064
-2186.055000	33298.020000	-14517.045000	-16378.740000	0.000000	0.000000	0.000000	0.000000	-26.248957	-80.374480	-54.079326	-54.997133	0.000000	0.000000	-0.000000	0.000000	-5.768280	1.297100	1.526000	-0.014709	0.933225	0.354735	-1.000000	-1.000000	-1.000000	-1.000000	-1.000000	-1.000000	-1.000000	138.620690	0.000000	-1.000000	-1.000000	243892.000000	1772918516.203109
-2154.825000	33410.520000	-14447.025000	-16305.795000	0.000000	0.000000	0.000000	0.000000	78.056745	-93.963667	105.269202	104.434976	0.000000	0.000000	-0.000000	0.000000	-5.768280	1.297100	1.526000	-0.014709	0.933225	0.354735	-1.000000	-1.000000	-1.000000	-1.000000	-1.000000	-1.000000	-1.000000	138.620690	0.000000	-1.000000	-1.000000	243893.000000	1772918516.203112
-2210.670000	33494.220000	-14522.895000	-16382.745000	0.000000	0.000000	0.000000	0.000000	147.175312	-78.193660	214.956004	214.391973	0.000000	0.000000	-0.000000	0.000000	-5.768280	1.297100	1.526000	-0.014709	0.933225	0.354735	-1.000000	-1.000000	-1.000000	-1.000000	-1.000000	-1.000000	-1.000000	138.620690	0.000000	-1.000000	-1.000000	243894.000000	1772918516.204718
-2273.760000	33515.010000	-14614.785000	-16474.950000	0.000000	0.000000	0.000000	0.000000	141.330052	-40.726033	213.085395	212.973755	0.000000	0.000000	-0.000000	0.000000	-5.768280	1.297100	1.526000	-0.014709	0.933225	0.354735	-1.000000	-1.000000	-1.000000	-1.000000	-1.000000	-1.000000	-1.000000	138.620690	0.000000	-1.000000	-1.000000	243895.000000	1772918516.204721
-2410.380000	33510.150000	-14825.655000	-16687.305000	0.000000	0.000000	0.000000	0.000000	63.173031	-1.392090	100.319184	100.573646	0.000000	0.000000	-0.000000	0.000000	1.464960	1.571780	0.808780	-0.012695	0.921934	0.364074	-1.000000	-1.000000	-1.000000	-1.000000	-1.000000	-1.000000	-1.000000	138.620690	0.000000	-1.000000	-1.000000	243896.000000	1772918516.208260
-2454.750000	33368.220000	-14924.430000	-16787.790000	0.000000	0.000000	0.000000	0.000000	-44.252825	16.133430	-61.648094	-61.345250	0.000000	0.000000	-0.000000	0.000000	1.464960	1.571780	0.808780	-0.012695	0.921934	0.364074	-1.000000	-1.000000	-1.000000	-1.000000	-1.000000	-1.000000	-1.000000	138.620690	0.000000	-1.000000	-1.000000	243897.000000	1772918516.208263
-2413.800000	33307.830000	-14864.490000	-16724.115000	0.000000	0.000000	0.000000	0.000000	-123.189095	1.649445	-186.137435	-185.988884	0.000000	0.000000	-0.000000	0.000000	1.464960	1.571780	0.808780	-0.012695	0.921934	0.364074	-1.000000	-1.000000	-1.000000	-1.000000	-1.000000	-1.000000	-1.000000	138.620690	0.000000	-1.000000	-1.000000	243898.000000	1772918516.212508
-2356.290000	33268.185000	-14776.515000	-16633.305000	0.000000	0.000000	0.000000	0.000000	-132.520967	-30.630781	-207.042865	-206.797890	0.000000	0.000000	-0.000000	0.000000	1.464960	1.571780	0.808780	-0.012695	0.921934	0.364074	-1.000000	-1.000000	-1.000000	-1.000000	-1.000000	-1.000000	-1.000000	138.620690	0.000000	-1.000000	-1.000000	243899.000000	1772918516.212511
-2223.180000	33227.505000	-14583.330000	-16436.340000	0.000000	0.000000	0.000000	0.000000	-70.937733	-51.397342	-116.613867	-115.744231	0.000000	0.000000	-0.000000	0.000000	1.464960	1.571780	0.808780	-0.012695	0.921934	0.364074	-1.000000	-1.000000	-1.000000	-1.000000	-1.000000	-1.000000	-1.000000	138.620690	0.000000	-1.000000	-1.000000	243900.000000	1772918516.216520
-2130.840000	33305.265000	-14429.340000	-16281.990000	0.000000	0.000000	0.000000	0.000000	25.538154	-39.847455	32.977957	34.633132	0.000000	0.000000	-0.000000	0.000000	1.464960	1.571780	0.808780	-0.012695	0.921934	0.364074	-1.000000	-1.000000	-1.000000	-1.000000	-1.000000	-1.000000	-1.000000	138.620690	0.000000	-1.000000	-1.000000	243901.000000	1772918516.216523
-2161.170000	33308.190000	-14462.955000	-16317.495000	0.000000	0.000000	0.000000	0.000000	104.663125	3.307685	160.862822	162.670770	0.000000	0.000000	-0.000000	0.000000	1.464960	1.571780	0.808780	-0.012695	0.921934	0.364074	-1.000000	-1.000000	-1.000000	-1.000000	-1.000000	-1.000000	-1.000000	138.620690	0.000000	-1.000000	-1.000000	243902.000000	1772918516.220449
-2193.975000	33255.360000	-14526.720000	-16383.105000	0.000000	0.000000	0.000000	0.000000	123.808701	55.165489	198.239110	199.044963	0.000000	0.000000	-0.000000	0.000000	1.464960	1.571780	0.808780	-0.012695	0.921934	0.364074	-1.000000	-1.000000	-1.000000	-1.000000	-1.000000	-1.000000	-1.000000	138.620690	0.000000	-1.000000	-1.000000	243903.000000	1772918516.220451
-2291.220000	33184.530000	-14684.400000	-16541.550000	0.000000	0.000000	0.000000	0.000000	74.211014	83.043056	126.507021	125.489520	0.000000	0.000000	-0.000000	0.000000	1.464960	1.571780	0.808780	-0.012695	0.921934	0.364074	-1.000000	-1.000000	-1.000000	-1.000000	-1.000000	-1.000000	-1.000000	138.620690	0.000000	-1.000000	-1.000000	243904.000000	1772918516.224310
-2411.865000	33086.655000	-14875.470000	-16734.420000	0.000000	0.000000	0.000000	0.000000	-15.595177	68.879879	-13.719618	-16.371176	0.000000	0.000000	-0.000000	0.000000	1.464960	1.571780	0.808780	-0.012695	0.921934	0.364074	-1.000000	-1.000000	-1.000000	-1.000000	-1.000000	-1.000000	-1.000000	138.620690	0.000000	-1.000000	-1.000000	243905.000000	1772918516.224313
-2393.055000	33014.790000	-14865.255000	-16708.770000	0.000000	0.000000	0.000000	0.000000	-98.108949	22.058440	-147.936654	-150.862380	0.000000	0.000000	-0.000000	0.000000	7.935200	-0.076300	-0.167860	-0.011475	0.913389	0.368896	-1.000000	-1.000000	-1.000000	-1.000000	-1.000000	-1.000000	-1.000000	138.620690	0.000000	-1.000000	-1.000000	243906.000000	1772918516.227794
-2330.190000	32943.015000	-14776.605000	-16618.905000	0.000000	0.000000	0.000000	0.000000	-128.979811	-29.614353	-203.742642	-204.879992	0.000000	0.000000	-0.000000	0.000000	7.935200	-0.076300	-0.167860	-0.011475	0.913389	0.368896	-1.000000	-1.000000	-1.000000	-1.000000	-1.000000	-1.000000	-1.000000	138.620690	0.000000	-1.000000	-1.000000	243907.000000	1772918516.227797
-2227.275000	32909.535000	-14612.625000	-16467.210000	0.000000	0.000000	0.000000	0.000000	-90.126970	-58.877378	-149.021309	-147.464641	0.000000	0.000000	-0.000000	0.000000	7.935200	-0.076300	-0.167860	-0.011475	0.913389	0.368896	-1.000000	-1.000000	-1.000000	-1.000000	-1.000000	-1.000000	-1.000000	138.620690	0.000000	-1.000000	-1.000000	243908.000000	1772918516.232377
-2099.745000	32957.595000	-14400.090000	-16257.690000	0.000000	0.000000	0.000000	0.000000	-2.099137	-52.422507	-12.337107	-9.848016	0.000000	0.000000	-0.000000	0.000000	7.935200	-0.076300	-0.167860	-0.011475	0.913389	0.368896	-1.000000	-1.000000	-1.000000	-1.000000	-1.000000	-1.000000	-1.000000	138.620690	0.000000	-1.000000	-1.000000	243909.000000	1772918516.232379
-2116.215000	33044.625000	-14407.965000	-16267.230000	0.000000	0.000000	0.000000	0.000000	87.203771	-13.174026	132.613657	133.288731	0.000000	0.000000	-0.000000	0.000000	7.935200	-0.076300	-0.167860	-0.011475	0.913389	0.368896	-1.000000	-1.000000	-1.000000	-1.000000	-1.000000	-1.000000	-1.000000	138.620690	0.000000	-1.000000	-1.000000	243910.000000	1772918516.236511
-2164.995000	33053.220000	-14483.655000	-16346.835000	0.000000	0.000000	0.000000	0.000000	127.949437	40.329986	205.063862	202.982681	0.000000	0.000000	-0.000000	0.000000	7.935200	-0.076300	-0.167860	-0.011475	0.913389	0.368896	-1.000000	-1.000000	-1.000000	-1.000000	-1.000000	-1.000000	-1.000000	138.620690	0.000000	-1.000000	-1.000000	243911.000000	1772918516.236514
-2263.095000	33106.410000	-14622.345000	-16488.495000	0.000000	0.000000	0.000000	0.000000	97.142472	79.461771	163.610178	160.047798	0.000000	0.000000	-0.000000	0.000000	7.935200	-0.076300	-0.167860	-0.011475	0.913389	0.368896	-1.000000	-1.000000	-1.000000	-1.000000	-1.000000	-1.000000	-1.000000	138.620690	0.000000	-1.000000	-1.000000	243912.000000	1772918516.240550
-2436.030000	33182.505000	-14874.525000	-16745.355000	0.000000	0.000000	0.000000	0.000000	11.972812	84.064333	31.492312	28.475391	0.000000	0.000000	-0.000000	0.000000	7.935200	-0.076300	-0.167860	-0.011475	0.913389	0.368896	-1.000000	-1.000000	-1.000000	-1.000000	-1.000000	-1.000000	-1.000000	138.620690	0.000000	-1.000000	-1.000000	243913.000000	1772918516.240553
-2463.165000	33200.910000	-14921.415000	-16790.355000	0.000000	0.000000	0.000000	0.000000	-82.224198	55.400970	-120.172860	-121.166996	0.000000	0.000000	-0.000000	0.000000	7.935200	-0.076300	-0.167860	-0.011475	0.913389	0.368896	-1.000000	-1.000000	-1.000000	-1.000000	-1.000000	-1.000000	-1.000000	138.620690	0.000000	-1.000000	-1.000000	243914.000000	1772918516.244598
-2410.470000	33184.215000	-14840.820000	-16706.520000	0.000000	0.000000	0.000000	0.000000	-133.677463	7.705317	-208.493603	-206.864106	0.000000	0.000000	-0.000000	0.000000	7.935200	-0.076300	-0.167860	-0.011475	0.913389	0.368896	-1.000000	-1.000000	-1.000000	-1.000000	-1.000000	-1.000000	-1.000000	138.620690	0.000000	-1.000000	-1.000000	243915.000000	1772918516.244601
-2343.195000	33215.040000	-14734.980000	-16602.075000	0.000000	0.000000	0.000000	0.000000	-111.275482	-42.294274	-182.288081	-178.284783	0.000000	0.000000	-0.000000	0.000000	13.459320	-0.732480	-1.892240	-0.010803	0.913267	0.369811	-1.000000	-1.000000	-1.000000	-1.000000	-1.000000	-1.000000	-1.000000	138.620690	0.000000	-1.000000	-1.000000	243916.000000	1772918516.248626
-2213.595000	33323.490000	-14524.830000	-16391.115000	0.000000	0.000000	0.000000	0.000000	-26.077861	-75.651065	-55.337266	-50.180374	0.000000	0.000000	-0.000000	0.000000	13.459320	-0.732480	-1.892240	-0.010803	0.913267	0.369811	-1.000000	-1.000000	-1.000000	-1.000000	-1.000000	-1.000000	-1.000000	138.620690	0.000000	-1.000000	-1.000000	243917.000000	1772918516.248628
-2189.295000	33459.885000	-14467.410000	-16333.020000	0.000000	0.000000	0.000000	0.000000	75.342834	-75.577871	102.742198	107.250385	0.000000	0.000000	-0.000000	0.000000	13.459320	-0.732480	-1.892240	-0.010803	0.913267	0.369811	-1.000000	-1.000000	-1.000000	-1.000000	-1.000000	-1.000000	-1.000000	138.620690	0.000000	-1.000000	-1.000000	243918.000000	1772918516.252530
-2233.035000	33479.730000	-14535.855000	-16403.490000	0.000000	0.000000	0.000000	0.000000	137.793760	-42.533485	206.103413	208.478461	0.000000	0.000000	-0.000000	0.000000	13.459320	-0.732480	-1.892240	-0.010803	0.913267	0.369811	-1.000000	-1.000000	-1.000000	-1.000000	-1.000000	-1.000000	-1.000000	138.620690	0.000000	-1.000000	-1.000000	243919.000000	1772918516.252533
-2273.265000	33425.415000	-14610.465000	-16478.370000	0.000000	0.000000	0.000000	0.000000	128.139251	-1.857261	199.225893	198.877374	0.000000	0.000000	-0.000000	0.000000	13.459320	-0.732480	-1.892240	-0.010803	0.913267	0.369811	-1.000000	-1.000000	-1.000000	-1.000000	-1.000000	-1.000000	-1.000000	138.620690	0.000000	-1.000000	-1.000000	243920.000000	1772918516.256757
-2388.150000	33287.715000	-14805.405000	-16672.230000	0.000000	0.000000	0.000000	0.000000	54.458521	13.442001	89.162488	86.534556	0.000000	0.000000	-0.000000	0.000000	13.459320	-0.732480	-1.892240	-0.010803	0.913267	0.369811	-1.000000	-1.000000	-1.000000	-1.000000	-1.000000	-1.000000	-1.000000	138.620690	0.000000	-1.000000	-1.000000	243921.000000	1772918516.256759
-2484.540000	33284.655000	-14949.765000	-16816.185000	0.000000	0.000000	0.000000	0.000000	-43.210750	-7.180184	-63.817863	-67.454780	0.000000	0.000000	-0.000000	0.000000	13.459320	-0.732480	-1.892240	-0.010803	0.913267	0.369811	-1.000000	-1.000000	-1.000000	-1.000000	-1.000000	-1.000000	-1.000000	138.620690	0.000000	-1.000000	-1.000000	243922.000000	1772918516.260593
-2473.470000	33365.115000	-14916.510000	-16780.050000	0.000000	0.000000	0.000000	0.000000	-116.861271	-38.569691	-181.541080	-184.699128	0.000000	0.000000	-0.000000	0.000000	13.459320	-0.732480	-1.892240	-0.010803	0.913267	0.369811	-1.000000	-1.000000	-1.000000	-1.000000	-1.000000	-1.000000	-1.000000	138.620690	0.000000	-1.000000	-1.000000	243923.000000	1772918516.260596
-2417.940000	33400.620000	-14825.115000	-16694.820000	0.000000	0.000000	0.000000	0.000000	-130.718140	-43.329060	-203.434621	-205.196982	0.000000	0.000000	-0.000000	0.000000	13.459320	-0.732480	-1.892240	-0.010803	0.913267	0.369811	-1.000000	-1.000000	-1.000000	-1.000000	-1.000000	-1.000000	-1.000000	138.620690	0.000000	-1.000000	-1.000000	243924.000000	1772918516.264599
-2290.860000	33488.280000	-14624.820000	-16498.575000	0.000000	0.000000	0.000000	0.000000	-77.718958	-9.272300	-117.659254	-118.233541	0.000000	0.000000	-0.000000	0.000000	13.459320	-0.732480	-1.892240	-0.010803	0.913267	0.369811	-1.000000	-1.000000	-1.000000	-1.000000	-1.000000	-1.000000	-1.000000	138.620690	0.000000	-1.000000	-1.000000	243925.000000	1772918516.264602
-2219.940000	33647.175000	-14488.155000	-16363.395000	0.000000	0.000000	0.000000	0.000000	14.956814	45.082472	30.606603	30.285694	0.000000	0.000000	-0.000000	0.000000	15.351560	-0.763000	-2.105880	-0.009705	0.917173	0.367553	-1.000000	-1.000000	-1.000000	-1.000000	-1.000000	-1.000000	-1.000000	138.620690	0.000000	-1.000000	-1.000000	243926.000000	1772918516.268563
-2272.140000	33783.435000	-14549.895000	-16429.455000	0.000000	0.000000	0.000000	0.000000	97.338430	92.455369	161.284134	160.627746	0.000000	0.000000	-0.000000	0.000000	15.351560	-0.763000	-2.105880	-0.009705	0.917173	0.367553	-1.000000	-1.000000	-1.000000	-1.000000	-1.000000	-1.000000	-1.000000	138.620690	0.000000	-1.000000	-1.000000	243927.000000	1772918516.268566
-2318.715000	33814.620000	-14627.610000	-16506.675000	0.000000	0.000000	0.000000	0.000000	123.167327	109.927995	201.297422	200.528313	0.000000	0.000000	-0.000000	0.000000	15.351560	-0.763000	-2.105880	-0.009705	0.917173	0.367553	-1.000000	-1.000000	-1.000000	-1.000000	-1.000000	-1.000000	-1.000000	138.620690	0.000000	-1.000000	-1.000000	243928.000000	1772918516.272497
-2447.370000	33856.560000	-14819.175000	-16695.270000	0.000000	0.000000	0.000000	0.000000	79.387978	83.957888	129.155617	129.060313	0.000000	0.000000	-0.000000	0.000000	15.351560	-0.763000	-2.105880	-0.009705	0.917173	0.367553	-1.000000	-1.000000	-1.000000	-1.000000	-1.000000	-1.000000	-1.000000	138.620690	0.000000	-1.000000	-1.000000	243929.000000	1772918516.272499
-2579.940000	33913.485000	-15025.005000	-16902.405000	0.000000	0.000000	0.000000	0.000000	-7.791423	21.187655	-13.866900	-12.516197	0.000000	0.000000	-0.000000	0.000000	15.351560	-0.763000	-2.105880	-0.009705	0.917173	0.367553	-1.000000	-1.000000	-1.000000	-1.000000	-1.000000	-1.000000	-1.000000	138.620690	0.000000	-1.000000	-1.000000	243930.000000	1772918516.276559
-2571.570000	33992.055000	-15010.560000	-16886.160000	0.000000	0.000000	0.000000	0.000000	-90.497252	-49.489687	-150.186829	-147.372146	0.000000	0.000000	-0.000000	0.000000	15.351560	-0.763000	-2.105880	-0.009705	0.917173	0.367553	-1.000000	-1.000000	-1.000000	-1.000000	-1.000000	-1.000000	-1.000000	138.620690	0.000000	-1.000000	-1.000000	243931.000000	1772918516.276562
-2530.440000	34048.620000	-14941.215000	-16815.915000	0.000000	0.000000	0.000000	0.000000	-122.498252	-95.351535	-204.421387	-201.023284	0.000000	0.000000	-0.000000	0.000000	15.351560	-0.763000	-2.105880	-0.009705	0.917173	0.367553	-1.000000	-1.000000	-1.000000	-1.000000	-1.000000	-1.000000	-1.000000	138.620690	0.000000	-1.000000	-1.000000	243932.000000	1772918516.282417
-2429.775000	34087.185000	-14785.155000	-16663.995000	0.000000	0.000000	0.000000	0.000000	-84.663397	-101.421859	-145.085759	-142.375576	0.000000	0.000000	-0.000000	0.000000	15.351560	-0.763000	-2.105880	-0.009705	0.917173	0.367553	-1.000000	-1.000000	-1.000000	-1.000000	-1.000000	-1.000000	-1.000000	138.620690	0.000000	-1.000000	-1.000000	243933.000000	1772918516.282419
-2304.855000	34200.450000	-14573.880000	-16456.455000	0.000000	0.000000	0.000000	0.000000	2.765490	-73.918434	-4.152093	-3.307185	0.000000	0.000000	-0.000000	0.000000	15.351560	-0.763000	-2.105880	-0.009705	0.917173	0.367553	-1.000000	-1.000000	-1.000000	-1.000000	-1.000000	-1.000000	-1.000000	138.620690	0.000000	-1.000000	-1.000000	243934.000000	1772918516.283703
-2321.145000	34317.810000	-14584.545000	-16472.520000	0.000000	0.000000	0.000000	0.000000	92.102077	-28.011273	142.410781	140.775358	0.000000	0.000000	-0.000000	0.000000	15.351560	-0.763000	-2.105880	-0.009705	0.917173	0.367553	-1.000000	-1.000000	-1.000000	-1.000000	-1.000000	-1.000000	-1.000000	138.620690	0.000000	-1.000000	-1.000000	243935.000000	1772918516.283706
-2347.515000	34285.905000	-14641.335000	-16530.075000	0.000000	0.000000	0.000000	0.000000	133.402187	17.859027	213.951368	210.259910	0.000000	0.000000	-0.000000	0.000000	14.420700	-0.350980	-1.785420	-0.009827	0.923887	0.362975	-1.000000	-1.000000	-1.000000	-1.000000	-1.000000	-1.000000	-1.000000	138.620690	0.000000	-1.000000	-1.000000	243936.000000	1772918516.292772
-2405.295000	34174.485000	-14752.080000	-16635.195000	0.000000	0.000000	0.000000	0.000000	103.958162	40.243370	170.882810	166.757984	0.000000	0.000000	-0.000000	0.000000	14.420700	-0.350980	-1.785420	-0.009827	0.923887	0.362975	-1.000000	-1.000000	-1.000000	-1.000000	-1.000000	-1.000000	-1.000000	138.620690	0.000000	-1.000000	-1.000000	243937.000000	1772918516.292775
-2484.180000	33895.215000	-14917.995000	-16799.850000	0.000000	0.000000	0.000000	0.000000	22.313660	20.573967	39.235736	36.897841	0.000000	0.000000	-0.000000	0.000000	14.420700	-0.350980	-1.785420	-0.009827	0.923887	0.362975	-1.000000	-1.000000	-1.000000	-1.000000	-1.000000	-1.000000	-1.000000	138.620690	0.000000	-1.000000	-1.000000	243938.000000	1772918516.292779
-2454.030000	33641.190000	-14902.110000	-16781.985000	0.000000	0.000000	0.000000	0.000000	-65.750835	-37.726642	-107.998048	-107.157286	0.000000	0.000000	-0.000000	0.000000	14.420700	-0.350980	-1.785420	-0.009827	0.923887	0.362975	-1.000000	-1.000000	-1.000000	-1.000000	-1.000000	-1.000000	-1.000000	138.620690	0.000000	-1.000000	-1.000000	243939.000000	1772918516.292781
-2427.975000	33654.645000	-14849.190000	-16725.690000	0.000000	0.000000	0.000000	0.000000	-114.015981	-98.791721	-192.106684	-188.501393	0.000000	0.000000	-0.000000	0.000000	14.420700	-0.350980	-1.785420	-0.009827	0.923887	0.362975	-1.000000	-1.000000	-1.000000	-1.000000	-1.000000	-1.000000	-1.000000	138.620690	0.000000	-1.000000	-1.000000	243940.000000	1772918516.321343
-2356.020000	33635.025000	-14734.980000	-16611.840000	0.000000	0.000000	0.000000	0.000000	-101.213829	-108.903561	-171.848603	-167.280131	0.000000	0.000000	-0.000000	0.000000	14.420700	-0.350980	-1.785420	-0.009827	0.923887	0.362975	-1.000000	-1.000000	-1.000000	-1.000000	-1.000000	-1.000000	-1.000000	138.620690	0.000000	-1.000000	-1.000000	243941.000000	1772918516.321347
-2215.890000	33649.695000	-14506.965000	-16385.310000	0.000000	0.000000	0.000000	0.000000	-39.547458	-42.983681	-64.019829	-60.626802	0.000000	0.000000	-0.000000	0.000000	14.420700	-0.350980	-1.785420	-0.009827	0.923887	0.362975	-1.000000	-1.000000	-1.000000	-1.000000	-1.000000	-1.000000	-1.000000	138.620690	0.000000	-1.000000	-1.000000	243942.000000	1772918516.321351
-2173.410000	33693.930000	-14433.030000	-16312.545000	0.000000	0.000000	0.000000	0.000000	37.133165	68.781276	72.257366	72.949454	0.000000	0.000000	-0.000000	0.000000	14.420700	-0.350980	-1.785420	-0.009827	0.923887	0.362975	-1.000000	-1.000000	-1.000000	-1.000000	-1.000000	-1.000000	-1.000000	138.620690	0.000000	-1.000000	-1.000000	243943.000000	1772918516.321353
-2201.625000	33664.500000	-14483.025000	-16368.480000	0.000000	0.000000	0.000000	0.000000	88.710044	166.291905	164.702491	162.361376	0.000000	0.000000	-0.000000	0.000000	14.420700	-0.350980	-1.785420	-0.009827	0.923887	0.362975	-1.000000	-1.000000	-1.000000	-1.000000	-1.000000	-1.000000	-1.000000	138.620690	0.000000	-1.000000	-1.000000	243944.000000	1772918516.321861
-2273.895000	33613.020000	-14595.120000	-16481.790000	0.000000	0.000000	0.000000	0.000000	86.623476	199.401021	162.214076	157.680020	0.000000	0.000000	-0.000000	0.000000	14.420700	-0.350980	-1.785420	-0.009827	0.923887	0.362975	-1.000000	-1.000000	-1.000000	-1.000000	-1.000000	-1.000000	-1.000000	138.620690	0.000000	-1.000000	-1.000000	243945.000000	1772918516.321864
-2398.635000	33483.915000	-14810.220000	-16690.230000	0.000000	0.000000	0.000000	0.000000	31.392034	152.359397	65.426702	60.502231	0.000000	0.000000	-0.000000	0.000000	13.962900	0.000000	-1.983800	-0.010620	0.926878	0.360168	-1.000000	-1.000000	-1.000000	-1.000000	-1.000000	-1.000000	-1.000000	138.620690	0.000000	-1.000000	-1.000000	243946.000000	1772918516.322509
-2437.155000	33336.945000	-14893.740000	-16766.865000	0.000000	0.000000	0.000000	0.000000	-46.238347	47.467656	-72.727902	-75.642757	0.000000	0.000000	-0.000000	0.000000	13.962900	0.000000	-1.983800	-0.010620	0.926878	0.360168	-1.000000	-1.000000	-1.000000	-1.000000	-1.000000	-1.000000	-1.000000	138.620690	0.000000	-1.000000	-1.000000	243947.000000	1772918516.322512
-2409.570000	33347.880000	-14843.880000	-16713.990000	0.000000	0.000000	0.000000	0.000000	-101.236495	-66.553899	-174.614680	-173.734945	0.000000	0.000000	-0.000000	0.000000	13.962900	0.000000	-1.983800	-0.010620	0.926878	0.360168	-1.000000	-1.000000	-1.000000	-1.000000	-1.000000	-1.000000	-1.000000	138.620690	0.000000	-1.000000	-1.000000	243948.000000	1772918516.322516
-2348.505000	33323.310000	-14749.065000	-16623.000000	0.000000	0.000000	0.000000	0.000000	-99.988606	-136.060974	-180.372102	-176.054182	0.000000	0.000000	-0.000000	0.000000	13.962900	0.000000	-1.983800	-0.010620	0.926878	0.360168	-1.000000	-1.000000	-1.000000	-1.000000	-1.000000	-1.000000	-1.000000	138.620690	0.000000	-1.000000	-1.000000	243949.000000	1772918516.322518
-2178.945000	33214.770000	-14501.115000	-16385.310000	0.000000	0.000000	0.000000	0.000000	-40.567533	-135.559851	-84.109710	-79.123338	0.000000	0.000000	-0.000000	0.000000	13.962900	0.000000	-1.983800	-0.010620	0.926878	0.360168	-1.000000	-1.000000	-1.000000	-1.000000	-1.000000	-1.000000	-1.000000	138.620690	0.000000	-1.000000	-1.000000	243950.000000	1772918516.322522
-2067.660000	33110.595000	-14326.965000	-16217.415000	0.000000	0.000000	0.000000	0.000000	48.091702	-84.524562	65.033873	67.145987	0.000000	0.000000	-0.000000	0.000000	13.962900	0.000000	-1.983800	-0.010620	0.926878	0.360168	-1.000000	-1.000000	-1.000000	-1.000000	-1.000000	-1.000000	-1.000000	138.620690	0.000000	-1.000000	-1.000000	243951.000000	1772918516.322524
-2097.720000	33075.090000	-14369.805000	-16262.190000	0.000000	0.000000	0.000000	0.000000	119.493595	-22.369804	188.174422	185.679267	0.000000	0.000000	-0.000000	0.000000	13.962900	0.000000	-1.983800	-0.010620	0.926878	0.360168	-1.000000	-1.000000	-1.000000	-1.000000	-1.000000	-1.000000	-1.000000	138.620690	0.000000	-1.000000	-1.000000	243952.000000	1772918516.322973
-2147.805000	33032.160000	-14455.080000	-16344.315000	0.000000	0.000000	0.000000	0.000000	130.773585	25.279994	214.226513	208.631517	0.000000	0.000000	-0.000000	0.000000	13.962900	0.000000	-1.983800	-0.010620	0.926878	0.360168	-1.000000	-1.000000	-1.000000	-1.000000	-1.000000	-1.000000	-1.000000	138.620690	0.000000	-1.000000	-1.000000	243953.000000	1772918516.322976
-2270.115000	32959.215000	-14652.855000	-16533.090000	0.000000	0.000000	0.000000	0.000000	70.697733	51.464198	123.600831	118.717340	0.000000	0.000000	-0.000000	0.000000	13.962900	0.000000	-1.983800	-0.010620	0.926878	0.360168	-1.000000	-1.000000	-1.000000	-1.000000	-1.000000	-1.000000	-1.000000	138.620690	0.000000	-1.000000	-1.000000	243954.000000	1772918516.324017
-2385.720000	32899.590000	-14843.520000	-16717.950000	0.000000	0.000000	0.000000	0.000000	-30.958407	56.607600	-37.518481	-38.080842	0.000000	0.000000	-0.000000	0.000000	13.962900	0.000000	-1.983800	-0.010620	0.926878	0.360168	-1.000000	-1.000000	-1.000000	-1.000000	-1.000000	-1.000000	-1.000000	138.620690	0.000000	-1.000000	-1.000000	243955.000000	1772918516.324020
-2363.850000	32875.110000	-14813.505000	-16680.915000	0.000000	0.000000	0.000000	0.000000	-120.733891	45.296265	-183.768456	-178.930361	0.000000	0.000000	-0.000000	0.000000	11.109280	0.000000	-1.632820	-0.009949	0.929441	0.355712	-1.000000	-1.000000	-1.000000	-1.000000	-1.000000	-1.000000	-1.000000	138.620690	0.000000	-1.000000	-1.000000	243956.000000	1772918516.327869
-2303.640000	32832.855000	-14722.740000	-16593.120000	0.000000	0.000000	0.000000	0.000000	-149.220618	26.828808	-234.624679	-226.549535	0.000000	0.000000	-0.000000	0.000000	11.109280	0.000000	-1.632820	-0.009949	0.929441	0.355712	-1.000000	-1.000000	-1.000000	-1.000000	-1.000000	-1.000000	-1.000000	138.620690	0.000000	-1.000000	-1.000000	243957.000000	1772918516.327871
-2195.325000	32825.250000	-14544.990000	-16426.665000	0.000000	0.000000	0.000000	0.000000	-99.492693	10.294589	-160.500600	-153.554634	0.000000	0.000000	-0.000000	0.000000	11.109280	0.000000	-1.632820	-0.009949	0.929441	0.355712	-1.000000	-1.000000	-1.000000	-1.000000	-1.000000	-1.000000	-1.000000	138.620690	0.000000	-1.000000	-1.000000	243958.000000	1772918516.331976
-2096.190000	32959.260000	-14351.670000	-16245.945000	0.000000	0.000000	0.000000	0.000000	1.491791	2.931570	-1.510332	-0.095757	0.000000	0.000000	-0.000000	0.000000	11.109280	0.000000	-1.632820	-0.009949	0.929441	0.355712	-1.000000	-1.000000	-1.000000	-1.000000	-1.000000	-1.000000	-1.000000	138.620690	0.000000	-1.000000	-1.000000	243959.000000	1772918516.331979
-2133.945000	33099.840000	-14385.330000	-16282.035000	0.000000	0.000000	0.000000	0.000000	98.533283	11.389388	156.292402	150.423242	0.000000	0.000000	-0.000000	0.000000	11.109280	0.000000	-1.632820	-0.009949	0.929441	0.355712	-1.000000	-1.000000	-1.000000	-1.000000	-1.000000	-1.000000	-1.000000	138.620690	0.000000	-1.000000	-1.000000	243960.000000	1772918516.335963
-2178.495000	33127.605000	-14463.270000	-16359.390000	0.000000	0.000000	0.000000	0.000000	138.947291	31.756269	226.863496	216.232382	0.000000	0.000000	-0.000000	0.000000	11.109280	0.000000	-1.632820	-0.009949	0.929441	0.355712	-1.000000	-1.000000	-1.000000	-1.000000	-1.000000	-1.000000	-1.000000	138.620690	0.000000	-1.000000	-1.000000	243961.000000	1772918516.335965
-2266.155000	33108.930000	-14605.875000	-16493.445000	0.000000	0.000000	0.000000	0.000000	103.776233	42.198493	173.708481	163.957360	0.000000	0.000000	-0.000000	0.000000	11.109280	0.000000	-1.632820	-0.009949	0.929441	0.355712	-1.000000	-1.000000	-1.000000	-1.000000	-1.000000	-1.000000	-1.000000	138.620690	0.000000	-1.000000	-1.000000	243962.000000	1772918516.339853
-2411.910000	33043.860000	-14846.670000	-16723.980000	0.000000	0.000000	0.000000	0.000000	16.604189	20.493004	30.003593	26.615535	0.000000	0.000000	-0.000000	0.000000	11.109280	0.000000	-1.632820	-0.009949	0.929441	0.355712	-1.000000	-1.000000	-1.000000	-1.000000	-1.000000	-1.000000	-1.000000	138.620690	0.000000	-1.000000	-1.000000	243963.000000	1772918516.339855
-2417.130000	33002.460000	-14864.940000	-16737.300000	0.000000	0.000000	0.000000	0.000000	-74.639992	-31.942050	-125.816784	-120.666483	0.000000	0.000000	-0.000000	0.000000	11.109280	0.000000	-1.632820	-0.009949	0.929441	0.355712	-1.000000	-1.000000	-1.000000	-1.000000	-1.000000	-1.000000	-1.000000	138.620690	0.000000	-1.000000	-1.000000	243964.000000	1772918516.343924
-2353.770000	32935.860000	-14772.915000	-16644.870000	0.000000	0.000000	0.000000	0.000000	-121.154104	-88.771686	-209.806512	-198.540367	0.000000	0.000000	-0.000000	0.000000	11.109280	0.000000	-1.632820	-0.009949	0.929441	0.355712	-1.000000	-1.000000	-1.000000	-1.000000	-1.000000	-1.000000	-1.000000	138.620690	0.000000	-1.000000	-1.000000	243965.000000	1772918516.343926
-2275.110000	32939.235000	-14647.860000	-16526.565000	0.000000	0.000000	0.000000	0.000000	-97.421900	-118.129281	-175.688082	-164.044803	0.000000	0.000000	-0.000000	0.000000	6.241340	-0.030520	-1.327620	-0.010071	0.931516	0.352050	-1.000000	-1.000000	-1.000000	-1.000000	-1.000000	-1.000000	-1.000000	138.620690	0.000000	-1.000000	-1.000000	243966.000000	1772918516.347930
-2106.540000	32931.720000	-14385.870000	-16276.860000	0.000000	0.000000	0.000000	0.000000	-17.110482	-102.514434	-43.218645	-37.212510	0.000000	0.000000	-0.000000	0.000000	6.241340	-0.030520	-1.327620	-0.010071	0.931516	0.352050	-1.000000	-1.000000	-1.000000	-1.000000	-1.000000	-1.000000	-1.000000	138.620690	0.000000	-1.000000	-1.000000	243967.000000	1772918516.347932
-2062.440000	32902.020000	-14311.935000	-16210.530000	0.000000	0.000000	0.000000	0.000000	76.028158	-48.601668	115.633538	112.786524	0.000000	0.000000	-0.000000	0.000000	6.241340	-0.030520	-1.327620	-0.010071	0.931516	0.352050	-1.000000	-1.000000	-1.000000	-1.000000	-1.000000	-1.000000	-1.000000	138.620690	0.000000	-1.000000	-1.000000	243968.000000	1772918516.351977
-2132.415000	32954.310000	-14404.950000	-16303.050000	0.000000	0.000000	0.000000	0.000000	130.249632	18.362292	214.081016	203.746850	0.000000	0.000000	-0.000000	0.000000	6.241340	-0.030520	-1.327620	-0.010071	0.931516	0.352050	-1.000000	-1.000000	-1.000000	-1.000000	-1.000000	-1.000000	-1.000000	138.620690	0.000000	-1.000000	-1.000000	243969.000000	1772918516.351980
-2218.770000	33017.355000	-14535.045000	-16428.555000	0.000000	0.000000	0.000000	0.000000	111.822098	73.322190	194.553122	182.141239	0.000000	0.000000	-0.000000	0.000000	6.241340	-0.030520	-1.327620	-0.010071	0.931516	0.352050	-1.000000	-1.000000	-1.000000	-1.000000	-1.000000	-1.000000	-1.000000	138.620690	0.000000	-1.000000	-1.000000	243970.000000	1772918516.356851
-2352.195000	32931.945000	-14761.530000	-16644.690000	0.000000	0.000000	0.000000	0.000000	28.092172	100.187464	65.438531	57.482675	0.000000	0.000000	-0.000000	0.000000	6.241340	-0.030520	-1.327620	-0.010071	0.931516	0.352050	-1.000000	-1.000000	-1.000000	-1.000000	-1.000000	-1.000000	-1.000000	138.620690	0.000000	-1.000000	-1.000000	243971.000000	1772918516.356854
-2405.205000	32879.025000	-14861.385000	-16734.870000	0.000000	0.000000	0.000000	0.000000	-75.147075	88.767185	-102.931780	-102.288154	0.000000	0.000000	-0.000000	0.000000	6.241340	-0.030520	-1.327620	-0.010071	0.931516	0.352050	-1.000000	-1.000000	-1.000000	-1.000000	-1.000000	-1.000000	-1.000000	138.620690	0.000000	-1.000000	-1.000000	243972.000000	1772918516.360740
-2394.900000	32999.805000	-14836.005000	-16698.015000	0.000000	0.000000	0.000000	0.000000	-141.238409	45.383696	-219.091347	-210.039128	0.000000	0.000000	-0.000000	0.000000	6.241340	-0.030520	-1.327620	-0.010071	0.931516	0.352050	-1.000000	-1.000000	-1.000000	-1.000000	-1.000000	-1.000000	-1.000000	138.620690	0.000000	-1.000000	-1.000000	243973.000000	1772918516.360744
-2346.570000	33107.895000	-14751.855000	-16615.665000	0.000000	0.000000	0.000000	0.000000	-134.825297	0.359804	-220.448867	-207.200333	0.000000	0.000000	-0.000000	0.000000	6.241340	-0.030520	-1.327620	-0.010071	0.931516	0.352050	-1.000000	-1.000000	-1.000000	-1.000000	-1.000000	-1.000000	-1.000000	138.620690	0.000000	-1.000000	-1.000000	243974.000000	1772918516.364828
-2192.625000	33135.030000	-14505.255000	-16385.985000	0.000000	0.000000	0.000000	0.000000	-59.786524	-18.762319	-106.744394	-95.811520	0.000000	0.000000	-0.000000	0.000000	6.241340	-0.030520	-1.327620	-0.010071	0.931516	0.352050	-1.000000	-1.000000	-1.000000	-1.000000	-1.000000	-1.000000	-1.000000	138.620690	0.000000	-1.000000	-1.000000	243975.000000	1772918516.364831
-2132.865000	33189.885000	-14378.580000	-16276.140000	0.000000	0.000000	0.000000	0.000000	46.058227	-14.020105	63.638483	66.051876	0.000000	0.000000	-0.000000	0.000000	5.432560	0.091560	-1.617560	-0.012024	0.933042	0.352294	-1.000000	-1.000000	-1.000000	-1.000000	-1.000000	-1.000000	-1.000000	138.620690	0.000000	-1.000000	-1.000000	243976.000000	1772918516.368821
-2155.905000	33155.820000	-14417.415000	-16318.305000	0.000000	0.000000	0.000000	0.000000	128.932636	-6.605856	202.614586	194.110372	0.000000	0.000000	-0.000000	0.000000	5.432560	0.091560	-1.617560	-0.012024	0.933042	0.352294	-1.000000	-1.000000	-1.000000	-1.000000	-1.000000	-1.000000	-1.000000	138.620690	0.000000	-1.000000	-1.000000	243977.000000	1772918516.368825
-2229.795000	33134.445000	-14520.015000	-16419.465000	0.000000	0.000000	0.000000	0.000000	144.731944	-13.141366	235.051460	219.358708	0.000000	0.000000	-0.000000	0.000000	5.432560	0.091560	-1.617560	-0.012024	0.933042	0.352294	-1.000000	-1.000000	-1.000000	-1.000000	-1.000000	-1.000000	-1.000000	138.620690	0.000000	-1.000000	-1.000000	243978.000000	1772918516.372758
-2382.345000	33120.810000	-14749.830000	-16642.575000	0.000000	0.000000	0.000000	0.000000	84.801529	-33.625269	142.869610	128.132177	0.000000	0.000000	-0.000000	0.000000	5.432560	0.091560	-1.617560	-0.012024	0.933042	0.352294	-1.000000	-1.000000	-1.000000	-1.000000	-1.000000	-1.000000	-1.000000	138.620690	0.000000	-1.000000	-1.000000	243979.000000	1772918516.372762
-2449.170000	33046.695000	-14894.820000	-16774.785000	0.000000	0.000000	0.000000	0.000000	-18.404273	-54.515898	-23.891484	-29.931140	0.000000	0.000000	-0.000000	0.000000	5.432560	0.091560	-1.617560	-0.012024	0.933042	0.352294	-1.000000	-1.000000	-1.000000	-1.000000	-1.000000	-1.000000	-1.000000	138.620690	0.000000	-1.000000	-1.000000	243980.000000	1772918516.376862
-2426.670000	33077.160000	-14862.690000	-16734.060000	0.000000	0.000000	0.000000	0.000000	-108.095729	-61.155496	-174.514397	-168.705650	0.000000	0.000000	-0.000000	0.000000	5.432560	0.091560	-1.617560	-0.012024	0.933042	0.352294	-1.000000	-1.000000	-1.000000	-1.000000	-1.000000	-1.000000	-1.000000	138.620690	0.000000	-1.000000	-1.000000	243981.000000	1772918516.376869
-2400.480000	33146.145000	-14813.730000	-16679.295000	0.000000	0.000000	0.000000	0.000000	-135.051033	-44.216112	-226.821616	-211.930927	0.000000	0.000000	-0.000000	0.000000	5.432560	0.091560	-1.617560	-0.012024	0.933042	0.352294	-1.000000	-1.000000	-1.000000	-1.000000	-1.000000	-1.000000	-1.000000	138.620690	0.000000	-1.000000	-1.000000	243982.000000	1772918516.380847
-2283.705000	33193.395000	-14632.155000	-16504.830000	0.000000	0.000000	0.000000	0.000000	-87.811753	-3.880795	-155.901280	-139.019967	0.000000	0.000000	-0.000000	0.000000	5.432560	0.091560	-1.617560	-0.012024	0.933042	0.352294	-1.000000	-1.000000	-1.000000	-1.000000	-1.000000	-1.000000	-1.000000	138.620690	0.000000	-1.000000	-1.000000	243983.000000	1772918516.380851
-2154.780000	33249.150000	-14417.280000	-16302.735000	0.000000	0.000000	0.000000	0.000000	5.132745	44.572684	-3.765809	7.065821	0.000000	0.000000	-0.000000	0.000000	5.432560	0.091560	-1.617560	-0.012024	0.933042	0.352294	-1.000000	-1.000000	-1.000000	-1.000000	-1.000000	-1.000000	-1.000000	138.620690	0.000000	-1.000000	-1.000000	243984.000000	1772918516.384925
-2175.435000	33303.870000	-14435.145000	-16326.405000	0.000000	0.000000	0.000000	0.000000	94.331554	78.209654	148.569877	148.206229	0.000000	0.000000	-0.000000	0.000000	5.432560	0.091560	-1.617560	-0.012024	0.933042	0.352294	-1.000000	-1.000000	-1.000000	-1.000000	-1.000000	-1.000000	-1.000000	138.620690	0.000000	-1.000000	-1.000000	243985.000000	1772918516.384928
-2241.180000	33404.535000	-14529.915000	-16418.340000	0.000000	0.000000	0.000000	0.000000	131.253885	83.150361	218.818816	207.872038	0.000000	0.000000	-0.000000	0.000000	4.165980	-1.098720	-0.381500	-0.015808	0.931028	0.353454	-1.000000	-1.000000	-1.000000	-1.000000	-1.000000	-1.000000	-1.000000	138.620690	0.000000	-1.000000	-1.000000	243986.000000	1772918516.387821
-2351.070000	33433.335000	-14699.700000	-16574.715000	0.000000	0.000000	0.000000	0.000000	94.339819	61.195616	167.489262	152.273477	0.000000	0.000000	-0.000000	0.000000	4.165980	-1.098720	-0.381500	-0.015808	0.931028	0.353454	-1.000000	-1.000000	-1.000000	-1.000000	-1.000000	-1.000000	-1.000000	138.620690	0.000000	-1.000000	-1.000000	243987.000000	1772918516.387824
-2496.060000	33411.105000	-14942.520000	-16803.585000	0.000000	0.000000	0.000000	0.000000	3.723223	21.694468	23.126385	12.131804	0.000000	0.000000	-0.000000	0.000000	4.165980	-1.098720	-0.381500	-0.015808	0.931028	0.353454	-1.000000	-1.000000	-1.000000	-1.000000	-1.000000	-1.000000	-1.000000	138.620690	0.000000	-1.000000	-1.000000	243988.000000	1772918516.392785
-2478.240000	33357.960000	-14937.165000	-16792.605000	0.000000	0.000000	0.000000	0.000000	-90.373206	-26.031878	-134.845915	-135.996062	0.000000	0.000000	-0.000000	0.000000	4.165980	-1.098720	-0.381500	-0.015808	0.931028	0.353454	-1.000000	-1.000000	-1.000000	-1.000000	-1.000000	-1.000000	-1.000000	138.620690	0.000000	-1.000000	-1.000000	243989.000000	1772918516.392789
-2425.410000	33360.705000	-14853.015000	-16707.735000	0.000000	0.000000	0.000000	0.000000	-134.259461	-69.613568	-217.586508	-209.427370	0.000000	0.000000	-0.000000	0.000000	4.165980	-1.098720	-0.381500	-0.015808	0.931028	0.353454	-1.000000	-1.000000	-1.000000	-1.000000	-1.000000	-1.000000	-1.000000	138.620690	0.000000	-1.000000	-1.000000	243990.000000	1772918516.406964
-2342.340000	33372.630000	-14717.970000	-16577.190000	0.000000	0.000000	0.000000	0.000000	-102.343729	-91.789300	-177.517281	-165.941661	0.000000	0.000000	-0.000000	0.000000	4.165980	-1.098720	-0.381500	-0.015808	0.931028	0.353454	-1.000000	-1.000000	-1.000000	-1.000000	-1.000000	-1.000000	-1.000000	138.620690	0.000000	-1.000000	-1.000000	243991.000000	1772918516.406968
-2202.390000	33435.810000	-14485.905000	-16354.890000	0.000000	0.000000	0.000000	0.000000	-13.516171	-79.678238	-38.485955	-30.751388	0.000000	0.000000	-0.000000	0.000000	4.165980	-1.098720	-0.381500	-0.015808	0.931028	0.353454	-1.000000	-1.000000	-1.000000	-1.000000	-1.000000	-1.000000	-1.000000	138.620690	0.000000	-1.000000	-1.000000	243992.000000	1772918516.406973
-2175.570000	33459.435000	-14438.790000	-16317.765000	0.000000	0.000000	0.000000	0.000000	83.095567	-36.265303	122.157527	121.518704	0.000000	0.000000	-0.000000	0.000000	4.165980	-1.098720	-0.381500	-0.015808	0.931028	0.353454	-1.000000	-1.000000	-1.000000	-1.000000	-1.000000	-1.000000	-1.000000	138.620690	0.000000	-1.000000	-1.000000	243993.000000	1772918516.406975
-2199.330000	33430.140000	-14493.375000	-16379.730000	0.000000	0.000000	0.000000	0.000000	135.700212	17.290720	216.834666	208.017007	0.000000	0.000000	-0.000000	0.000000	4.165980	-1.098720	-0.381500	-0.015808	0.931028	0.353454	-1.000000	-1.000000	-1.000000	-1.000000	-1.000000	-1.000000	-1.000000	138.620690	0.000000	-1.000000	-1.000000	243994.000000	1772918516.409939
-2260.035000	33387.210000	-14602.005000	-16479.270000	0.000000	0.000000	0.000000	0.000000	116.612623	52.937243	194.126039	181.709444	0.000000	0.000000	-0.000000	0.000000	4.165980	-1.098720	-0.381500	-0.015808	0.931028	0.353454	-1.000000	-1.000000	-1.000000	-1.000000	-1.000000	-1.000000	-1.000000	138.620690	0.000000	-1.000000	-1.000000	243995.000000	1772918516.409942
-2403.540000	33300.945000	-14843.655000	-16705.260000	0.000000	0.000000	0.000000	0.000000	36.760430	54.208602	67.399844	58.273059	0.000000	0.000000	-0.000000	0.000000	6.287120	-1.815940	1.617560	-0.016113	0.928831	0.355590	-1.000000	-1.000000	-1.000000	-1.000000	-1.000000	-1.000000	-1.000000	138.620690	0.000000	-1.000000	-1.000000	243996.000000	1772918516.409945
-2433.510000	33199.740000	-14907.420000	-16758.945000	0.000000	0.000000	0.000000	0.000000	-62.446818	25.099589	-95.835492	-95.969725	0.000000	0.000000	-0.000000	0.000000	6.287120	-1.815940	1.617560	-0.016113	0.928831	0.355590	-1.000000	-1.000000	-1.000000	-1.000000	-1.000000	-1.000000	-1.000000	138.620690	0.000000	-1.000000	-1.000000	243997.000000	1772918516.409947
-2409.255000	33193.530000	-14856.165000	-16707.105000	0.000000	0.000000	0.000000	0.000000	-129.561898	-13.881161	-208.680281	-198.985549	0.000000	0.000000	-0.000000	0.000000	6.287120	-1.815940	1.617560	-0.016113	0.928831	0.355590	-1.000000	-1.000000	-1.000000	-1.000000	-1.000000	-1.000000	-1.000000	138.620690	0.000000	-1.000000	-1.000000	243998.000000	1772918516.413011
-2402.280000	33273.855000	-14811.480000	-16669.035000	0.000000	0.000000	0.000000	0.000000	-130.157071	-34.895529	-210.850304	-196.383771	0.000000	0.000000	-0.000000	0.000000	6.287120	-1.815940	1.617560	-0.016113	0.928831	0.355590	-1.000000	-1.000000	-1.000000	-1.000000	-1.000000	-1.000000	-1.000000	138.620690	0.000000	-1.000000	-1.000000	243999.000000	1772918516.413015
-2234.115000	33336.945000	-14567.400000	-16432.380000	0.000000	0.000000	0.000000	0.000000	-66.486649	-19.562296	-104.262334	-92.968570	0.000000	0.000000	-0.000000	0.000000	6.287120	-1.815940	1.617560	-0.016113	0.928831	0.355590	-1.000000	-1.000000	-1.000000	-1.000000	-1.000000	-1.000000	-1.000000	138.620690	0.000000	-1.000000	-1.000000	244000.000000	1772918516.416844
-2147.805000	33401.520000	-14428.215000	-16299.630000	0.000000	0.000000	0.000000	0.000000	29.082300	24.419921	54.400041	56.614034	0.000000	0.000000	-0.000000	0.000000	6.287120	-1.815940	1.617560	-0.016113	0.928831	0.355590	-1.000000	-1.000000	-1.000000	-1.000000	-1.000000	-1.000000	-1.000000	138.620690	0.000000	-1.000000	-1.000000	244001.000000	1772918516.416847
-2200.275000	33428.025000	-14499.000000	-16373.475000	0.000000	0.000000	0.000000	0.000000	109.451703	67.442297	183.963346	176.499169	0.000000	0.000000	-0.000000	0.000000	6.287120	-1.815940	1.617560	-0.016113	0.928831	0.355590	-1.000000	-1.000000	-1.000000	-1.000000	-1.000000	-1.000000	-1.000000	138.620690	0.000000	-1.000000	-1.000000	244002.000000	1772918516.420785
-2307.060000	33545.205000	-14632.875000	-16500.915000	0.000000	0.000000	0.000000	0.000000	129.955850	82.304800	213.564669	200.984336	0.000000	0.000000	-0.000000	0.000000	6.287120	-1.815940	1.617560	-0.016113	0.928831	0.355590	-1.000000	-1.000000	-1.000000	-1.000000	-1.000000	-1.000000	-1.000000	138.620690	0.000000	-1.000000	-1.000000	244003.000000	1772918516.420788
-2437.650000	33580.980000	-14844.915000	-16695.945000	0.000000	0.000000	0.000000	0.000000	76.378598	63.189123	124.720898	114.088329	0.000000	0.000000	-0.000000	0.000000	6.287120	-1.815940	1.617560	-0.016113	0.928831	0.355590	-1.000000	-1.000000	-1.000000	-1.000000	-1.000000	-1.000000	-1.000000	138.620690	0.000000	-1.000000	-1.000000	244004.000000	1772918516.424981
-2505.780000	33477.255000	-14977.980000	-16819.020000	0.000000	0.000000	0.000000	0.000000	-20.423038	19.148540	-32.667158	-35.443489	0.000000	0.000000	-0.000000	0.000000	6.287120	-1.815940	1.617560	-0.016113	0.928831	0.355590	-1.000000	-1.000000	-1.000000	-1.000000	-1.000000	-1.000000	-1.000000	138.620690	0.000000	-1.000000	-1.000000	244005.000000	1772918516.424984
-2441.745000	33349.095000	-14901.525000	-16736.715000	0.000000	0.000000	0.000000	0.000000	-101.920798	-40.187119	-168.256417	-161.737995	0.000000	0.000000	-0.000000	0.000000	9.232300	-3.860780	1.770160	-0.016296	0.928464	0.357604	-1.000000	-1.000000	-1.000000	-1.000000	-1.000000	-1.000000	-1.000000	138.620690	0.000000	-1.000000	-1.000000	244006.000000	1772918516.428946
-2391.660000	33342.660000	-14823.810000	-16660.980000	0.000000	0.000000	0.000000	0.000000	-119.021031	-98.900526	-203.815610	-191.955472	0.000000	0.000000	-0.000000	0.000000	9.232300	-3.860780	1.770160	-0.016296	0.928464	0.357604	-1.000000	-1.000000	-1.000000	-1.000000	-1.000000	-1.000000	-1.000000	138.620690	0.000000	-1.000000	-1.000000	244007.000000	1772918516.428949
-2263.140000	33346.800000	-14630.085000	-16480.890000	0.000000	0.000000	0.000000	0.000000	-63.969585	-128.214848	-121.738952	-111.591972	0.000000	0.000000	-0.000000	0.000000	9.232300	-3.860780	1.770160	-0.016296	0.928464	0.357604	-1.000000	-1.000000	-1.000000	-1.000000	-1.000000	-1.000000	-1.000000	138.620690	0.000000	-1.000000	-1.000000	244008.000000	1772918516.432878
-2168.955000	33441.030000	-14455.485000	-16308.090000	0.000000	0.000000	0.000000	0.000000	28.522191	-104.733102	28.192619	30.543920	0.000000	0.000000	-0.000000	0.000000	9.232300	-3.860780	1.770160	-0.016296	0.928464	0.357604	-1.000000	-1.000000	-1.000000	-1.000000	-1.000000	-1.000000	-1.000000	138.620690	0.000000	-1.000000	-1.000000	244009.000000	1772918516.432881
-2197.575000	33495.975000	-14495.130000	-16355.475000	0.000000	0.000000	0.000000	0.000000	105.244882	-32.861874	162.063510	155.098783	0.000000	0.000000	-0.000000	0.000000	9.232300	-3.860780	1.770160	-0.016296	0.928464	0.357604	-1.000000	-1.000000	-1.000000	-1.000000	-1.000000	-1.000000	-1.000000	138.620690	0.000000	-1.000000	-1.000000	244010.000000	1772918516.437061
-2239.155000	33473.835000	-14572.260000	-16431.480000	0.000000	0.000000	0.000000	0.000000	122.771588	52.833945	205.271772	192.675738	0.000000	0.000000	-0.000000	0.000000	9.232300	-3.860780	1.770160	-0.016296	0.928464	0.357604	-1.000000	-1.000000	-1.000000	-1.000000	-1.000000	-1.000000	-1.000000	138.620690	0.000000	-1.000000	-1.000000	244011.000000	1772918516.437065
-2354.310000	33531.975000	-14747.310000	-16606.800000	0.000000	0.000000	0.000000	0.000000	71.366155	108.777273	133.759415	121.843398	0.000000	0.000000	-0.000000	0.000000	9.232300	-3.860780	1.770160	-0.016296	0.928464	0.357604	-1.000000	-1.000000	-1.000000	-1.000000	-1.000000	-1.000000	-1.000000	138.620690	0.000000	-1.000000	-1.000000	244012.000000	1772918516.440976
-2476.710000	33476.310000	-14957.910000	-16808.265000	0.000000	0.000000	0.000000	0.000000	-20.940584	111.825029	-12.822646	-18.566126	0.000000	0.000000	-0.000000	0.000000	9.232300	-3.860780	1.770160	-0.016296	0.928464	0.357604	-1.000000	-1.000000	-1.000000	-1.000000	-1.000000	-1.000000	-1.000000	138.620690	0.000000	-1.000000	-1.000000	244013.000000	1772918516.440979
-2489.985000	33478.425000	-14972.220000	-16814.520000	0.000000	0.000000	0.000000	0.000000	-105.822479	68.593451	-156.154872	-153.318347	0.000000	0.000000	-0.000000	0.000000	9.232300	-3.860780	1.770160	-0.016296	0.928464	0.357604	-1.000000	-1.000000	-1.000000	-1.000000	-1.000000	-1.000000	-1.000000	138.620690	0.000000	-1.000000	-1.000000	244014.000000	1772918516.445052
-2462.490000	33538.635000	-14919.120000	-16762.635000	0.000000	0.000000	0.000000	0.000000	-138.302186	6.635724	-218.910403	-208.921348	0.000000	0.000000	-0.000000	0.000000	9.232300	-3.860780	1.770160	-0.016296	0.928464	0.357604	-1.000000	-1.000000	-1.000000	-1.000000	-1.000000	-1.000000	-1.000000	138.620690	0.000000	-1.000000	-1.000000	244015.000000	1772918516.445055
-2357.460000	33514.560000	-14764.095000	-16612.020000	0.000000	0.000000	0.000000	0.000000	-99.873754	-41.634950	-165.758047	-153.333249	0.000000	0.000000	-0.000000	0.000000	12.543720	-2.685760	0.808780	-0.013977	0.924924	0.357787	-1.000000	-1.000000	-1.000000	-1.000000	-1.000000	-1.000000	-1.000000	138.620690	0.000000	-1.000000	-1.000000	244016.000000	1772918516.449005
-2213.145000	33616.080000	-14531.310000	-16385.355000	0.000000	0.000000	0.000000	0.000000	-8.569085	-58.181944	-23.405320	-14.373276	0.000000	0.000000	-0.000000	0.000000	12.543720	-2.685760	0.808780	-0.013977	0.924924	0.357787	-1.000000	-1.000000	-1.000000	-1.000000	-1.000000	-1.000000	-1.000000	138.620690	0.000000	-1.000000	-1.000000	244017.000000	1772918516.449008
-2200.680000	33748.020000	-14508.945000	-16358.040000	0.000000	0.000000	0.000000	0.000000	90.267660	-42.326373	134.845889	136.790757	0.000000	0.000000	-0.000000	0.000000	12.543720	-2.685760	0.808780	-0.013977	0.924924	0.357787	-1.000000	-1.000000	-1.000000	-1.000000	-1.000000	-1.000000	-1.000000	138.620690	0.000000	-1.000000	-1.000000	244018.000000	1772918516.453035
-2256.480000	33738.840000	-14597.190000	-16438.815000	0.000000	0.000000	0.000000	0.000000	144.143996	-6.461103	223.890153	219.363140	0.000000	0.000000	-0.000000	0.000000	12.543720	-2.685760	0.808780	-0.013977	0.924924	0.357787	-1.000000	-1.000000	-1.000000	-1.000000	-1.000000	-1.000000	-1.000000	138.620690	0.000000	-1.000000	-1.000000	244019.000000	1772918516.453037
-2331.495000	33693.345000	-14715.855000	-16556.715000	0.000000	0.000000	0.000000	0.000000	122.382474	23.319054	193.285507	186.299920	0.000000	0.000000	-0.000000	0.000000	12.543720	-2.685760	0.808780	-0.013977	0.924924	0.357787	-1.000000	-1.000000	-1.000000	-1.000000	-1.000000	-1.000000	-1.000000	138.620690	0.000000	-1.000000	-1.000000	244020.000000	1772918516.457019
-2471.895000	33680.250000	-14922.765000	-16771.860000	0.000000	0.000000	0.000000	0.000000	36.843142	23.483630	60.612818	55.080509	0.000000	0.000000	-0.000000	0.000000	12.543720	-2.685760	0.808780	-0.013977	0.924924	0.357787	-1.000000	-1.000000	-1.000000	-1.000000	-1.000000	-1.000000	-1.000000	138.620690	0.000000	-1.000000	-1.000000	244021.000000	1772918516.457022
-2484.315000	33668.955000	-14956.695000	-16802.145000	0.000000	0.000000	0.000000	0.000000	-65.792873	-4.066722	-100.505837	-103.300136	0.000000	0.000000	-0.000000	0.000000	12.543720	-2.685760	0.808780	-0.013977	0.924924	0.357787	-1.000000	-1.000000	-1.000000	-1.000000	-1.000000	-1.000000	-1.000000	138.620690	0.000000	-1.000000	-1.000000	244022.000000	1772918516.487802
-2428.920000	33648.120000	-14878.665000	-16719.615000	0.000000	0.000000	0.000000	0.000000	-129.732788	-36.112347	-202.398522	-203.034081	0.000000	0.000000	-0.000000	0.000000	12.543720	-2.685760	0.808780	-0.013977	0.924924	0.357787	-1.000000	-1.000000	-1.000000	-1.000000	-1.000000	-1.000000	-1.000000	138.620690	0.000000	-1.000000	-1.000000	244023.000000	1772918516.487806
-2409.930000	33681.060000	-14806.800000	-16667.865000	0.000000	0.000000	0.000000	0.000000	-121.653088	-49.942964	-191.895287	-191.393139	0.000000	0.000000	-0.000000	0.000000	12.543720	-2.685760	0.808780	-0.013977	0.924924	0.357787	-1.000000	-1.000000	-1.000000	-1.000000	-1.000000	-1.000000	-1.000000	138.620690	0.000000	-1.000000	-1.000000	244024.000000	1772918516.487812
-2308.140000	33762.195000	-14630.040000	-16493.760000	0.000000	0.000000	0.000000	0.000000	-51.508395	-35.699165	-81.388279	-81.225486	0.000000	0.000000	-0.000000	0.000000	12.543720	-2.685760	0.808780	-0.013977	0.924924	0.357787	-1.000000	-1.000000	-1.000000	-1.000000	-1.000000	-1.000000	-1.000000	138.620690	0.000000	-1.000000	-1.000000	244025.000000	1772918516.487814
-2221.920000	33777.495000	-14500.935000	-16362.540000	0.000000	0.000000	0.000000	0.000000	39.539634	0.828780	65.448135	64.233027	0.000000	0.000000	-0.000000	0.000000	15.717800	-2.701020	1.266580	-0.011475	0.913755	0.356689	-1.000000	-1.000000	-1.000000	-1.000000	-1.000000	-1.000000	-1.000000	138.620690	0.000000	-1.000000	-1.000000	244026.000000	1772918516.487817
-2249.955000	33759.135000	-14550.795000	-16419.375000	0.000000	0.000000	0.000000	0.000000	105.900487	38.839673	172.466722	170.673308	0.000000	0.000000	-0.000000	0.000000	15.717800	-2.701020	1.266580	-0.011475	0.913755	0.356689	-1.000000	-1.000000	-1.000000	-1.000000	-1.000000	-1.000000	-1.000000	138.620690	0.000000	-1.000000	-1.000000	244027.000000	1772918516.487818
-2320.290000	33859.035000	-14656.185000	-16525.080000	0.000000	0.000000	0.000000	0.000000	115.485918	56.850608	185.014885	184.392910	0.000000	0.000000	-0.000000	0.000000	15.717800	-2.701020	1.266580	-0.011475	0.913755	0.356689	-1.000000	-1.000000	-1.000000	-1.000000	-1.000000	-1.000000	-1.000000	138.620690	0.000000	-1.000000	-1.000000	244028.000000	1772918516.487821
-2466.180000	33861.600000	-14882.715000	-16739.910000	0.000000	0.000000	0.000000	0.000000	63.070057	50.519312	96.282802	98.074915	0.000000	0.000000	-0.000000	0.000000	15.717800	-2.701020	1.266580	-0.011475	0.913755	0.356689	-1.000000	-1.000000	-1.000000	-1.000000	-1.000000	-1.000000	-1.000000	138.620690	0.000000	-1.000000	-1.000000	244029.000000	1772918516.487823
-2553.795000	33874.110000	-15031.170000	-16884.045000	0.000000	0.000000	0.000000	0.000000	-24.813618	28.449647	-47.566178	-42.864569	0.000000	0.000000	-0.000000	0.000000	15.717800	-2.701020	1.266580	-0.011475	0.913755	0.356689	-1.000000	-1.000000	-1.000000	-1.000000	-1.000000	-1.000000	-1.000000	138.620690	0.000000	-1.000000	-1.000000	244030.000000	1772918516.487884
-2557.170000	33989.670000	-15015.690000	-16870.860000	0.000000	0.000000	0.000000	0.000000	-101.044430	1.979335	-169.287038	-162.441458	0.000000	0.000000	-0.000000	0.000000	15.717800	-2.701020	1.266580	-0.011475	0.913755	0.356689	-1.000000	-1.000000	-1.000000	-1.000000	-1.000000	-1.000000	-1.000000	138.620690	0.000000	-1.000000	-1.000000	244031.000000	1772918516.487887
-2505.960000	34046.550000	-14933.790000	-16797.015000	0.000000	0.000000	0.000000	0.000000	-122.437538	-15.943040	-199.953496	-193.610799	0.000000	0.000000	-0.000000	0.000000	15.717800	-2.701020	1.266580	-0.011475	0.913755	0.356689	-1.000000	-1.000000	-1.000000	-1.000000	-1.000000	-1.000000	-1.000000	138.620690	0.000000	-1.000000	-1.000000	244032.000000	1772918516.487994
-2362.005000	34086.330000	-14710.320000	-16591.185000	0.000000	0.000000	0.000000	0.000000	-75.109509	-19.209202	-119.336205	-117.135380	0.000000	0.000000	-0.000000	0.000000	15.717800	-2.701020	1.266580	-0.011475	0.913755	0.356689	-1.000000	-1.000000	-1.000000	-1.000000	-1.000000	-1.000000	-1.000000	138.620690	0.000000	-1.000000	-1.000000	244033.000000	1772918516.487996
-2262.285000	34199.910000	-14531.130000	-16416.720000	0.000000	0.000000	0.000000	0.000000	17.385834	-13.256767	32.047969	27.759451	0.000000	0.000000	-0.000000	0.000000	15.717800	-2.701020	1.266580	-0.011475	0.913755	0.356689	-1.000000	-1.000000	-1.000000	-1.000000	-1.000000	-1.000000	-1.000000	138.620690	0.000000	-1.000000	-1.000000	244034.000000	1772918516.488000
-2290.860000	34267.320000	-14568.795000	-16459.470000	0.000000	0.000000	0.000000	0.000000	104.901368	-5.115088	173.238565	163.561562	0.000000	0.000000	-0.000000	0.000000	15.717800	-2.701020	1.266580	-0.011475	0.913755	0.356689	-1.000000	-1.000000	-1.000000	-1.000000	-1.000000	-1.000000	-1.000000	138.620690	0.000000	-1.000000	-1.000000	244035.000000	1772918516.488002
-2344.950000	34308.090000	-14646.465000	-16541.325000	0.000000	0.000000	0.000000	0.000000	136.426655	0.467488	223.655210	212.985082	0.000000	0.000000	-0.000000	0.000000	21.074060	-6.867000	1.190280	-0.013428	0.920469	0.359374	-1.000000	-1.000000	-1.000000	-1.000000	-1.000000	-1.000000	-1.000000	138.620690	0.000000	-1.000000	-1.000000	244036.000000	1772918516.488776
-2476.215000	34374.060000	-14840.955000	-16725.375000	0.000000	0.000000	0.000000	0.000000	92.260544	-0.706155	152.284616	145.782741	0.000000	0.000000	-0.000000	0.000000	21.074060	-6.867000	1.190280	-0.013428	0.920469	0.359374	-1.000000	-1.000000	-1.000000	-1.000000	-1.000000	-1.000000	-1.000000	138.620690	0.000000	-1.000000	-1.000000	244037.000000	1772918516.488779
-2594.385000	34310.520000	-15051.060000	-16917.795000	0.000000	0.000000	0.000000	0.000000	-3.585887	-10.273388	-2.923065	-1.643270	0.000000	0.000000	-0.000000	0.000000	21.074060	-6.867000	1.190280	-0.013428	0.920469	0.359374	-1.000000	-1.000000	-1.000000	-1.000000	-1.000000	-1.000000	-1.000000	138.620690	0.000000	-1.000000	-1.000000	244038.000000	1772918516.515835
-2581.065000	34282.440000	-15041.070000	-16900.155000	0.000000	0.000000	0.000000	0.000000	-98.293397	-27.328546	-158.603625	-148.874528	0.000000	0.000000	-0.000000	0.000000	21.074060	-6.867000	1.190280	-0.013428	0.920469	0.359374	-1.000000	-1.000000	-1.000000	-1.000000	-1.000000	-1.000000	-1.000000	138.620690	0.000000	-1.000000	-1.000000	244039.000000	1772918516.515838
-2549.025000	34307.685000	-14978.295000	-16838.820000	0.000000	0.000000	0.000000	0.000000	-138.928730	-45.050386	-229.417489	-214.585172	0.000000	0.000000	-0.000000	0.000000	21.074060	-6.867000	1.190280	-0.013428	0.920469	0.359374	-1.000000	-1.000000	-1.000000	-1.000000	-1.000000	-1.000000	-1.000000	138.620690	0.000000	-1.000000	-1.000000	244040.000000	1772918516.515866
-2414.970000	34311.780000	-14783.895000	-16654.995000	0.000000	0.000000	0.000000	0.000000	-102.978361	-49.440969	-175.773322	-162.569323	0.000000	0.000000	-0.000000	0.000000	21.074060	-6.867000	1.190280	-0.013428	0.920469	0.359374	-1.000000	-1.000000	-1.000000	-1.000000	-1.000000	-1.000000	-1.000000	138.620690	0.000000	-1.000000	-1.000000	244041.000000	1772918516.515869
-2301.570000	34385.355000	-14568.660000	-16451.640000	0.000000	0.000000	0.000000	0.000000	-10.623126	-30.985618	-26.850979	-22.150677	0.000000	0.000000	-0.000000	0.000000	21.074060	-6.867000	1.190280	-0.013428	0.920469	0.359374	-1.000000	-1.000000	-1.000000	-1.000000	-1.000000	-1.000000	-1.000000	138.620690	0.000000	-1.000000	-1.000000	244042.000000	1772918516.515873
-2312.055000	34481.025000	-14568.075000	-16454.295000	0.000000	0.000000	0.000000	0.000000	87.208342	7.015548	136.611259	129.885138	0.000000	0.000000	-0.000000	0.000000	21.074060	-6.867000	1.190280	-0.013428	0.920469	0.359374	-1.000000	-1.000000	-1.000000	-1.000000	-1.000000	-1.000000	-1.000000	138.620690	0.000000	-1.000000	-1.000000	244043.000000	1772918516.515875
-2322.045000	34449.705000	-14622.255000	-16500.735000	0.000000	0.000000	0.000000	0.000000	136.002198	48.695925	224.196054	209.267590	0.000000	0.000000	-0.000000	0.000000	21.074060	-6.867000	1.190280	-0.013428	0.920469	0.359374	-1.000000	-1.000000	-1.000000	-1.000000	-1.000000	-1.000000	-1.000000	138.620690	0.000000	-1.000000	-1.000000	244044.000000	1772918516.515878
-2390.220000	34421.355000	-14739.975000	-16604.640000	0.000000	0.000000	0.000000	0.000000	110.719373	70.082255	188.514278	173.283018	0.000000	0.000000	-0.000000	0.000000	21.074060	-6.867000	1.190280	-0.013428	0.920469	0.359374	-1.000000	-1.000000	-1.000000	-1.000000	-1.000000	-1.000000	-1.000000	138.620690	0.000000	-1.000000	-1.000000	244045.000000	1772918516.515880
-2498.940000	34209.360000	-14946.615000	-16791.975000	0.000000	0.000000	0.000000	0.000000	28.842370	52.823660	53.148533	45.746306	0.000000	0.000000	-0.000000	0.000000	27.574820	-9.323860	2.716280	-0.016540	0.924985	0.359557	-1.000000	-1.000000	-1.000000	-1.000000	-1.000000	-1.000000	-1.000000	138.620690	0.000000	-1.000000	-1.000000	244046.000000	1772918516.515883
-2467.980000	33921.585000	-14946.435000	-16774.785000	0.000000	0.000000	0.000000	0.000000	-64.064048	-4.166739	-106.294675	-101.981188	0.000000	0.000000	-0.000000	0.000000	27.574820	-9.323860	2.716280	-0.016540	0.924985	0.359557	-1.000000	-1.000000	-1.000000	-1.000000	-1.000000	-1.000000	-1.000000	138.620690	0.000000	-1.000000	-1.000000	244047.000000	1772918516.515885
-2418.075000	33891.705000	-14882.580000	-16697.790000	0.000000	0.000000	0.000000	0.000000	-117.984457	-77.039788	-203.451323	-189.639325	0.000000	0.000000	-0.000000	0.000000	27.574820	-9.323860	2.716280	-0.016540	0.924985	0.359557	-1.000000	-1.000000	-1.000000	-1.000000	-1.000000	-1.000000	-1.000000	138.620690	0.000000	-1.000000	-1.000000	244048.000000	1772918516.515888
-2340.450000	33792.120000	-14812.245000	-16598.025000	0.000000	0.000000	0.000000	0.000000	-105.739491	-119.230517	-188.663934	-171.831501	0.000000	0.000000	-0.000000	0.000000	27.574820	-9.323860	2.716280	-0.016540	0.924985	0.359557	-1.000000	-1.000000	-1.000000	-1.000000	-1.000000	-1.000000	-1.000000	138.620690	0.000000	-1.000000	-1.000000	244049.000000	1772918516.515890
-2199.915000	33785.415000	-14605.695000	-16424.280000	0.000000	0.000000	0.000000	0.000000	-38.498088	-95.535168	-77.221243	-64.865891	0.000000	0.000000	-0.000000	0.000000	27.574820	-9.323860	2.716280	-0.016540	0.924985	0.359557	-1.000000	-1.000000	-1.000000	-1.000000	-1.000000	-1.000000	-1.000000	138.620690	0.000000	-1.000000	-1.000000	244050.000000	1772918516.517289
-2167.515000	34025.220000	-14512.005000	-16381.530000	0.000000	0.000000	0.000000	0.000000	44.670723	-9.429579	67.800190	68.230257	0.000000	0.000000	-0.000000	0.000000	27.574820	-9.323860	2.716280	-0.016540	0.924985	0.359557	-1.000000	-1.000000	-1.000000	-1.000000	-1.000000	-1.000000	-1.000000	138.620690	0.000000	-1.000000	-1.000000	244051.000000	1772918516.517292
-2217.870000	34096.770000	-14550.615000	-16450.515000	0.000000	0.000000	0.000000	0.000000	97.673169	105.302369	171.539315	154.678542	0.000000	0.000000	-0.000000	0.000000	27.574820	-9.323860	2.716280	-0.016540	0.924985	0.359557	-1.000000	-1.000000	-1.000000	-1.000000	-1.000000	-1.000000	-1.000000	138.620690	0.000000	-1.000000	-1.000000	244052.000000	1772918516.521081
-2311.200000	34079.310000	-14654.250000	-16542.675000	0.000000	0.000000	0.000000	0.000000	90.088370	194.529618	180.729337	149.491081	0.000000	0.000000	-0.000000	0.000000	27.574820	-9.323860	2.716280	-0.016540	0.924985	0.359557	-1.000000	-1.000000	-1.000000	-1.000000	-1.000000	-1.000000	-1.000000	138.620690	0.000000	-1.000000	-1.000000	244053.000000	1772918516.521084
-2486.745000	34058.385000	-14893.065000	-16764.750000	0.000000	0.000000	0.000000	0.000000	25.103952	205.133946	90.839368	59.289293	0.000000	0.000000	-0.000000	0.000000	27.574820	-9.323860	2.716280	-0.016540	0.924985	0.359557	-1.000000	-1.000000	-1.000000	-1.000000	-1.000000	-1.000000	-1.000000	138.620690	0.000000	-1.000000	-1.000000	244054.000000	1772918516.525119
-2549.925000	33988.050000	-14982.435000	-16864.920000	0.000000	0.000000	0.000000	0.000000	-61.791074	124.844640	-50.441533	-65.102999	0.000000	0.000000	-0.000000	0.000000	27.574820	-9.323860	2.716280	-0.016540	0.924985	0.359557	-1.000000	-1.000000	-1.000000	-1.000000	-1.000000	-1.000000	-1.000000	138.620690	0.000000	-1.000000	-1.000000	244055.000000	1772918516.525123
-2518.740000	34008.210000	-14932.980000	-16817.040000	0.000000	0.000000	0.000000	0.000000	-120.079896	-5.833576	-164.886108	-154.986378	0.000000	0.000000	-0.000000	0.000000	29.757000	-6.363420	2.533160	-0.011047	0.919920	0.350829	-1.000000	-1.000000	-1.000000	-1.000000	-1.000000	-1.000000	-1.000000	138.620690	0.000000	-1.000000	-1.000000	244056.000000	1772918516.529155
-2485.125000	34031.520000	-14879.115000	-16754.490000	0.000000	0.000000	0.000000	0.000000	-112.364743	-121.129106	-186.320068	-157.857834	0.000000	0.000000	-0.000000	0.000000	29.757000	-6.363420	2.533160	-0.011047	0.919920	0.350829	-1.000000	-1.000000	-1.000000	-1.000000	-1.000000	-1.000000	-1.000000	138.620690	0.000000	-1.000000	-1.000000	244057.000000	1772918516.529158
-2353.005000	34088.085000	-14659.920000	-16552.350000	0.000000	0.000000	0.000000	0.000000	-39.665373	-170.314003	-102.963033	-69.526826	0.000000	0.000000	-0.000000	0.000000	29.757000	-6.363420	2.533160	-0.011047	0.919920	0.350829	-1.000000	-1.000000	-1.000000	-1.000000	-1.000000	-1.000000	-1.000000	138.620690	0.000000	-1.000000	-1.000000	244058.000000	1772918516.533156
-2249.460000	34181.685000	-14466.240000	-16382.160000	0.000000	0.000000	0.000000	0.000000	61.050583	-142.865949	40.066966	64.787077	0.000000	0.000000	-0.000000	0.000000	29.757000	-6.363420	2.533160	-0.011047	0.919920	0.350829	-1.000000	-1.000000	-1.000000	-1.000000	-1.000000	-1.000000	-1.000000	138.620690	0.000000	-1.000000	-1.000000	244059.000000	1772918516.533158
-2252.970000	34143.075000	-14477.670000	-16395.210000	0.000000	0.000000	0.000000	0.000000	138.961821	-67.109058	168.076867	175.643326	0.000000	0.000000	-0.000000	0.000000	29.757000	-6.363420	2.533160	-0.011047	0.919920	0.350829	-1.000000	-1.000000	-1.000000	-1.000000	-1.000000	-1.000000	-1.000000	138.620690	0.000000	-1.000000	-1.000000	244060.000000	1772918516.537181
-2287.080000	34084.800000	-14552.370000	-16453.890000	0.000000	0.000000	0.000000	0.000000	153.098502	8.397948	210.258201	201.418981	0.000000	0.000000	-0.000000	0.000000	29.757000	-6.363420	2.533160	-0.011047	0.919920	0.350829	-1.000000	-1.000000	-1.000000	-1.000000	-1.000000	-1.000000	-1.000000	138.620690	0.000000	-1.000000	-1.000000	244061.000000	1772918516.537184
-2371.455000	33997.680000	-14719.005000	-16594.020000	0.000000	0.000000	0.000000	0.000000	94.509295	44.274271	139.401317	123.679372	0.000000	0.000000	-0.000000	0.000000	29.757000	-6.363420	2.533160	-0.011047	0.919920	0.350829	-1.000000	-1.000000	-1.000000	-1.000000	-1.000000	-1.000000	-1.000000	138.620690	0.000000	-1.000000	-1.000000	244062.000000	1772918516.541140
-2458.890000	33836.445000	-14935.185000	-16758.810000	0.000000	0.000000	0.000000	0.000000	-7.786682	32.141305	-9.464898	-19.593943	0.000000	0.000000	-0.000000	0.000000	29.757000	-6.363420	2.533160	-0.011047	0.919920	0.350829	-1.000000	-1.000000	-1.000000	-1.000000	-1.000000	-1.000000	-1.000000	138.620690	0.000000	-1.000000	-1.000000	244063.000000	1772918516.541142
-2435.805000	33778.305000	-14958.540000	-16708.680000	0.000000	0.000000	0.000000	0.000000	-102.969846	-7.533240	-159.337818	-154.976108	0.000000	0.000000	-0.000000	0.000000	29.757000	-6.363420	2.533160	-0.011047	0.919920	0.350829	-1.000000	-1.000000	-1.000000	-1.000000	-1.000000	-1.000000	-1.000000	138.620690	0.000000	-1.000000	-1.000000	244064.000000	1772918516.544933
-2376.630000	33686.730000	-14913.315000	-16661.925000	0.000000	0.000000	0.000000	0.000000	-143.862270	-41.364272	-230.406956	-211.102577	0.000000	0.000000	-0.000000	0.000000	29.757000	-6.363420	2.533160	-0.011047	0.919920	0.350829	-1.000000	-1.000000	-1.000000	-1.000000	-1.000000	-1.000000	-1.000000	138.620690	0.000000	-1.000000	-1.000000	244065.000000	1772918516.544935
-2260.530000	33643.530000	-14733.990000	-16483.230000	0.000000	0.000000	0.000000	0.000000	-111.780665	-44.205697	-182.523301	-159.005705	0.000000	0.000000	-0.000000	0.000000	20.768860	-4.486440	3.052000	-0.004211	0.924192	0.338988	-1.000000	-1.000000	-1.000000	-1.000000	-1.000000	-1.000000	-1.000000	138.620690	0.000000	-1.000000	-1.000000	244066.000000	1772918516.549265
-2126.790000	33712.245000	-14491.980000	-16300.665000	0.000000	0.000000	0.000000	0.000000	-26.353980	-11.793900	-37.974013	-28.198752	0.000000	0.000000	-0.000000	0.000000	20.768860	-4.486440	3.052000	-0.004211	0.924192	0.338988	-1.000000	-1.000000	-1.000000	-1.000000	-1.000000	-1.000000	-1.000000	138.620690	0.000000	-1.000000	-1.000000	244067.000000	1772918516.549268
-2142.720000	33727.230000	-14491.845000	-16392.195000	0.000000	0.000000	0.000000	0.000000	65.577703	42.540429	129.220261	109.935515	0.000000	0.000000	-0.000000	0.000000	20.768860	-4.486440	3.052000	-0.004211	0.924192	0.338988	-1.000000	-1.000000	-1.000000	-1.000000	-1.000000	-1.000000	-1.000000	138.620690	0.000000	-1.000000	-1.000000	244068.000000	1772918516.554935
-2207.880000	33780.375000	-14525.370000	-16419.690000	0.000000	0.000000	0.000000	0.000000	112.837163	93.978761	228.497832	178.093618	0.000000	0.000000	-0.000000	0.000000	20.768860	-4.486440	3.052000	-0.004211	0.924192	0.338988	-1.000000	-1.000000	-1.000000	-1.000000	-1.000000	-1.000000	-1.000000	138.620690	0.000000	-1.000000	-1.000000	244069.000000	1772918516.554938
-2232.855000	33872.895000	-14600.070000	-16493.670000	0.000000	0.000000	0.000000	0.000000	90.567972	118.069214	206.422852	142.732608	0.000000	0.000000	-0.000000	0.000000	20.768860	-4.486440	3.052000	-0.004211	0.924192	0.338988	-1.000000	-1.000000	-1.000000	-1.000000	-1.000000	-1.000000	-1.000000	138.620690	0.000000	-1.000000	-1.000000	244070.000000	1772918516.557289
-2395.665000	33868.305000	-14905.980000	-16768.710000	0.000000	0.000000	0.000000	0.000000	16.341356	104.396760	78.283282	32.111001	0.000000	0.000000	-0.000000	0.000000	20.768860	-4.486440	3.052000	-0.004211	0.924192	0.338988	-1.000000	-1.000000	-1.000000	-1.000000	-1.000000	-1.000000	-1.000000	138.620690	0.000000	-1.000000	-1.000000	244071.000000	1772918516.557291
-2487.105000	33820.020000	-15076.395000	-16875.405000	0.000000	0.000000	0.000000	0.000000	-67.802318	55.871234	-91.207911	-94.431237	0.000000	0.000000	-0.000000	0.000000	20.768860	-4.486440	3.052000	-0.004211	0.924192	0.338988	-1.000000	-1.000000	-1.000000	-1.000000	-1.000000	-1.000000	-1.000000	138.620690	0.000000	-1.000000	-1.000000	244072.000000	1772918516.561386
-2452.725000	33741.270000	-15047.100000	-16824.420000	0.000000	0.000000	0.000000	0.000000	-119.132937	-15.365729	-218.960819	-173.715986	0.000000	0.000000	-0.000000	0.000000	20.768860	-4.486440	3.052000	-0.004211	0.924192	0.338988	-1.000000	-1.000000	-1.000000	-1.000000	-1.000000	-1.000000	-1.000000	138.620690	0.000000	-1.000000	-1.000000	244073.000000	1772918516.561389
-2345.940000	33719.805000	-14888.970000	-16680.420000	0.000000	0.000000	0.000000	0.000000	-107.896615	-86.269618	-234.468656	-159.081968	0.000000	0.000000	-0.000000	0.000000	20.768860	-4.486440	3.052000	-0.004211	0.924192	0.338988	-1.000000	-1.000000	-1.000000	-1.000000	-1.000000	-1.000000	-1.000000	138.620690	0.000000	-1.000000	-1.000000	244074.000000	1772918516.565268
-2235.465000	33772.320000	-14636.745000	-16476.705000	0.000000	0.000000	0.000000	0.000000	-34.016101	-126.858594	-121.220886	-50.247681	0.000000	0.000000	-0.000000	0.000000	20.768860	-4.486440	3.052000	-0.004211	0.924192	0.338988	-1.000000	-1.000000	-1.000000	-1.000000	-1.000000	-1.000000	-1.000000	138.620690	0.000000	-1.000000	-1.000000	244075.000000	1772918516.565271
-2191.185000	33801.120000	-14512.320000	-16374.420000	0.000000	0.000000	0.000000	0.000000	65.401091	-116.437604	64.377186	98.153233	0.000000	0.000000	-0.000000	0.000000	24.690680	4.211760	4.761120	-0.004944	0.947874	0.333739	-1.000000	-1.000000	-1.000000	-1.000000	-1.000000	-1.000000	-1.000000	138.620690	0.000000	-1.000000	-1.000000	244076.000000	1772918516.569277
-2209.770000	33739.875000	-14694.525000	-16420.365000	0.000000	0.000000	0.000000	0.000000	135.084184	-62.509321	217.352964	204.117930	0.000000	0.000000	-0.000000	0.000000	24.690680	4.211760	4.761120	-0.004944	0.947874	0.333739	-1.000000	-1.000000	-1.000000	-1.000000	-1.000000	-1.000000	-1.000000	138.620690	0.000000	-1.000000	-1.000000	244077.000000	1772918516.569280
-2268.180000	33730.380000	-14848.830000	-16514.235000	0.000000	0.000000	0.000000	0.000000	136.087902	1.659471	244.348996	205.565140	0.000000	0.000000	-0.000000	0.000000	24.690680	4.211760	4.761120	-0.004944	0.947874	0.333739	-1.000000	-1.000000	-1.000000	-1.000000	-1.000000	-1.000000	-1.000000	138.620690	0.000000	-1.000000	-1.000000	244078.000000	1772918516.573341
-2392.740000	33625.170000	-15076.665000	-16764.840000	0.000000	0.000000	0.000000	0.000000	68.557137	43.067722	129.507954	97.843403	0.000000	0.000000	-0.000000	0.000000	24.690680	4.211760	4.761120	-0.004944	0.947874	0.333739	-1.000000	-1.000000	-1.000000	-1.000000	-1.000000	-1.000000	-1.000000	138.620690	0.000000	-1.000000	-1.000000	244079.000000	1772918516.573343
-2360.970000	33415.605000	-15110.865000	-16816.230000	0.000000	0.000000	0.000000	0.000000	-29.862935	46.176667	-52.699282	-63.717897	0.000000	0.000000	-0.000000	0.000000	24.690680	4.211760	4.761120	-0.004944	0.947874	0.333739	-1.000000	-1.000000	-1.000000	-1.000000	-1.000000	-1.000000	-1.000000	138.620690	0.000000	-1.000000	-1.000000	244080.000000	1772918516.577791
-2339.370000	33336.990000	-14987.790000	-16722.270000	0.000000	0.000000	0.000000	0.000000	-104.479185	15.576785	-189.065864	-190.615887	0.000000	0.000000	-0.000000	0.000000	24.690680	4.211760	4.761120	-0.004944	0.947874	0.333739	-1.000000	-1.000000	-1.000000	-1.000000	-1.000000	-1.000000	-1.000000	138.620690	0.000000	-1.000000	-1.000000	244081.000000	1772918516.577793
-2356.740000	33333.120000	-14780.610000	-16596.675000	0.000000	0.000000	0.000000	0.000000	-118.326500	-21.657280	-199.383616	-210.049049	0.000000	0.000000	-0.000000	0.000000	24.690680	4.211760	4.761120	-0.004944	0.947874	0.333739	-1.000000	-1.000000	-1.000000	-1.000000	-1.000000	-1.000000	-1.000000	138.620690	0.000000	-1.000000	-1.000000	244082.000000	1772918516.581362
-2182.545000	33299.820000	-14464.980000	-16350.120000	0.000000	0.000000	0.000000	0.000000	-73.132617	-31.696069	-82.600697	-112.646338	0.000000	0.000000	-0.000000	0.000000	24.690680	4.211760	4.761120	-0.004944	0.947874	0.333739	-1.000000	-1.000000	-1.000000	-1.000000	-1.000000	-1.000000	-1.000000	138.620690	0.000000	-1.000000	-1.000000	244083.000000	1772918516.581365
-2083.275000	33295.230000	-14284.530000	-16168.320000	0.000000	0.000000	0.000000	0.000000	3.969015	-4.308690	89.106764	44.877384	0.000000	0.000000	-0.000000	0.000000	24.690680	4.211760	4.761120	-0.004944	0.947874	0.333739	-1.000000	-1.000000	-1.000000	-1.000000	-1.000000	-1.000000	-1.000000	138.620690	0.000000	-1.000000	-1.000000	244084.000000	1772918516.585089
-2144.295000	33291.720000	-14357.565000	-16206.120000	0.000000	0.000000	0.000000	0.000000	74.589004	41.201525	212.540624	174.855318	0.000000	0.000000	-0.000000	0.000000	24.690680	4.211760	4.761120	-0.004944	0.947874	0.333739	-1.000000	-1.000000	-1.000000	-1.000000	-1.000000	-1.000000	-1.000000	138.620690	0.000000	-1.000000	-1.000000	244085.000000	1772918516.585091
-2146.050000	33286.275000	-14459.265000	-16330.230000	0.000000	0.000000	0.000000	0.000000	99.653832	76.237213	209.493369	202.773257	0.000000	0.000000	-0.000000	0.000000	3.265640	2.731540	10.956680	0.002869	0.993467	0.317687	-1.000000	-1.000000	-1.000000	-1.000000	-1.000000	-1.000000	-1.000000	138.620690	0.000000	-1.000000	-1.000000	244086.000000	1772918516.589240
-2240.190000	33278.355000	-14661.090000	-16555.500000	0.000000	0.000000	0.000000	0.000000	65.285648	82.159978	76.471917	109.571679	0.000000	0.000000	-0.000000	0.000000	3.265640	2.731540	10.956680	0.002869	0.993467	0.317687	-1.000000	-1.000000	-1.000000	-1.000000	-1.000000	-1.000000	-1.000000	138.620690	0.000000	-1.000000	-1.000000	244087.000000	1772918516.589243
-2382.120000	33240.825000	-14850.225000	-16729.110000	0.000000	0.000000	0.000000	0.000000	-7.749287	57.140798	-113.877018	-54.601119	0.000000	0.000000	-0.000000	0.000000	3.265640	2.731540	10.956680	0.002869	0.993467	0.317687	-1.000000	-1.000000	-1.000000	-1.000000	-1.000000	-1.000000	-1.000000	138.620690	0.000000	-1.000000	-1.000000	244088.000000	1772918516.592435
-2395.440000	33212.745000	-14837.625000	-16692.210000	0.000000	0.000000	0.000000	0.000000	-80.748125	12.923557	-259.343528	-197.581788	0.000000	0.000000	-0.000000	0.000000	3.265640	2.731540	10.956680	0.002869	0.993467	0.317687	-1.000000	-1.000000	-1.000000	-1.000000	-1.000000	-1.000000	-1.000000	138.620690	0.000000	-1.000000	-1.000000	244089.000000	1772918516.592438
-2343.870000	33195.555000	-14757.615000	-16595.190000	0.000000	0.000000	0.000000	0.000000	-113.785835	-32.115483	-281.843365	-235.900135	0.000000	0.000000	-0.000000	0.000000	3.265640	2.731540	10.956680	0.002869	0.993467	0.317687	-1.000000	-1.000000	-1.000000	-1.000000	-1.000000	-1.000000	-1.000000	138.620690	0.000000	-1.000000	-1.000000	244090.000000	1772918516.597396
-2161.845000	33253.695000	-14539.140000	-16391.070000	0.000000	0.000000	0.000000	0.000000	-83.059007	-59.495198	-166.628206	-144.819818	0.000000	0.000000	-0.000000	0.000000	3.265640	2.731540	10.956680	0.002869	0.993467	0.317687	-1.000000	-1.000000	-1.000000	-1.000000	-1.000000	-1.000000	-1.000000	138.620690	0.000000	-1.000000	-1.000000	244091.000000	1772918516.597399
-2105.640000	33421.095000	-14442.255000	-16263.720000	0.000000	0.000000	0.000000	0.000000	0.701721	-55.759237	29.123656	26.183438	0.000000	0.000000	-0.000000	0.000000	3.265640	2.731540	10.956680	0.002869	0.993467	0.317687	-1.000000	-1.000000	-1.000000	-1.000000	-1.000000	-1.000000	-1.000000	138.620690	0.000000	-1.000000	-1.000000	244092.000000	1772918516.618369
-2223.090000	33535.845000	-14673.645000	-16398.225000	0.000000	0.000000	0.000000	0.000000	88.392208	-19.749094	201.390201	180.995028	0.000000	0.000000	-0.000000	0.000000	3.265640	2.731540	10.956680	0.002869	0.993467	0.317687	-1.000000	-1.000000	-1.000000	-1.000000	-1.000000	-1.000000	-1.000000	138.620690	0.000000	-1.000000	-1.000000	244093.000000	1772918516.618372
-2313.270000	33599.205000	-14797.530000	-16488.090000	0.000000	0.000000	0.000000	0.000000	120.795668	29.035187	254.636992	231.282675	0.000000	0.000000	-0.000000	0.000000	3.265640	2.731540	10.956680	0.002869	0.993467	0.317687	-1.000000	-1.000000	-1.000000	-1.000000	-1.000000	-1.000000	-1.000000	138.620690	0.000000	-1.000000	-1.000000	244094.000000	1772918516.618376
-2343.960000	33638.985000	-14877.495000	-16560.045000	0.000000	0.000000	0.000000	0.000000	78.093741	58.214003	170.263570	155.607335	0.000000	0.000000	-0.000000	0.000000	3.265640	2.731540	10.956680	0.002869	0.993467	0.317687	-1.000000	-1.000000	-1.000000	-1.000000	-1.000000	-1.000000	-1.000000	138.620690	0.000000	-1.000000	-1.000000	244095.000000	1772918516.618379
-2414.475000	33496.920000	-15136.920000	-16759.395000	0.000000	0.000000	0.000000	0.000000	-4.692824	44.376002	15.142009	9.182264	0.000000	0.000000	-0.000000	0.000000	-11.170320	-5.798800	8.972880	0.008301	1.022947	0.329223	-1.000000	-1.000000	-1.000000	-1.000000	-1.000000	-1.000000	-1.000000	138.620690	0.000000	-1.000000	-1.000000	244096.000000	1772918516.618382
-2370.645000	33182.145000	-15356.070000	-16815.600000	0.000000	0.000000	0.000000	0.000000	-72.470423	-16.569696	-124.033719	-125.826175	0.000000	0.000000	-0.000000	0.000000	-11.170320	-5.798800	8.972880	0.008301	1.022947	0.329223	-1.000000	-1.000000	-1.000000	-1.000000	-1.000000	-1.000000	-1.000000	138.620690	0.000000	-1.000000	-1.000000	244097.000000	1772918516.618385
-2364.165000	33011.820000	-15285.015000	-16785.495000	0.000000	0.000000	0.000000	0.000000	-89.114709	-105.406224	-188.195745	-186.301465	0.000000	0.000000	-0.000000	0.000000	-11.170320	-5.798800	8.972880	0.008301	1.022947	0.329223	-1.000000	-1.000000	-1.000000	-1.000000	-1.000000	-1.000000	-1.000000	138.620690	0.000000	-1.000000	-1.000000	244098.000000	1772918516.618388
-2142.315000	32939.505000	-14906.205000	-16579.170000	0.000000	0.000000	0.000000	0.000000	-50.528293	-174.684488	-145.268689	-146.580287	0.000000	0.000000	-0.000000	0.000000	-11.170320	-5.798800	8.972880	0.008301	1.022947	0.329223	-1.000000	-1.000000	-1.000000	-1.000000	-1.000000	-1.000000	-1.000000	138.620690	0.000000	-1.000000	-1.000000	244099.000000	1772918516.618391
-1886.130000	32957.100000	-14418.765000	-16180.605000	0.000000	0.000000	0.000000	0.000000	24.778608	-170.974685	3.179076	-22.366295	0.000000	0.000000	-0.000000	0.000000	-11.170320	-5.798800	8.972880	0.008301	1.022947	0.329223	-1.000000	-1.000000	-1.000000	-1.000000	-1.000000	-1.000000	-1.000000	138.620690	0.000000	-1.000000	-1.000000	244100.000000	1772918516.618394
-1925.865000	33012.585000	-14240.340000	-16012.350000	0.000000	0.000000	0.000000	0.000000	101.149460	-78.206697	195.863765	132.959562	0.000000	0.000000	-0.000000	0.000000	-11.170320	-5.798800	8.972880	0.008301	1.022947	0.329223	-1.000000	-1.000000	-1.000000	-1.000000	-1.000000	-1.000000	-1.000000	138.620690	0.000000	-1.000000	-1.000000	244101.000000	1772918516.618395
-2030.490000	32935.410000	-14332.905000	-16085.610000	0.000000	0.000000	0.000000	0.000000	127.672548	63.072669	317.498432	236.904790	0.000000	0.000000	-0.000000	0.000000	-11.170320	-5.798800	8.972880	0.008301	1.022947	0.329223	-1.000000	-1.000000	-1.000000	-1.000000	-1.000000	-1.000000	-1.000000	138.620690	0.000000	-1.000000	-1.000000	244102.000000	1772918516.621475
-2159.865000	32886.720000	-14717.430000	-16418.835000	0.000000	0.000000	0.000000	0.000000	71.903886	179.360567	267.113108	213.001867	0.000000	0.000000	-0.000000	0.000000	-11.170320	-5.798800	8.972880	0.008301	1.022947	0.329223	-1.000000	-1.000000	-1.000000	-1.000000	-1.000000	-1.000000	-1.000000	138.620690	0.000000	-1.000000	-1.000000	244103.000000	1772918516.621478
-2303.280000	32782.320000	-15114.960000	-16795.935000	0.000000	0.000000	0.000000	0.000000	-43.516752	213.702293	39.212798	47.954357	0.000000	0.000000	-0.000000	0.000000	-11.170320	-5.798800	8.972880	0.008301	1.022947	0.329223	-1.000000	-1.000000	-1.000000	-1.000000	-1.000000	-1.000000	-1.000000	138.620690	0.000000	-1.000000	-1.000000	244104.000000	1772918516.625354
-2217.330000	32633.955000	-15013.080000	-16718.895000	0.000000	0.000000	0.000000	0.000000	-151.221994	158.407855	-250.068339	-176.261646	0.000000	0.000000	-0.000000	0.000000	-11.170320	-5.798800	8.972880	0.008301	1.022947	0.329223	-1.000000	-1.000000	-1.000000	-1.000000	-1.000000	-1.000000	-1.000000	138.620690	0.000000	-1.000000	-1.000000	244105.000000	1772918516.625357
-2200.590000	32541.255000	-14938.695000	-16632.765000	0.000000	0.000000	0.000000	0.000000	-184.072579	49.731923	-424.803589	-319.046656	0.000000	0.000000	-0.000000	0.000000	30.107980	-20.372100	21.409780	-0.020081	1.015073	0.369567	-1.000000	-1.000000	-1.000000	-1.000000	-1.000000	-1.000000	-1.000000	138.620690	0.000000	-1.000000	-1.000000	244106.000000	1772918516.629326
-2232.315000	32514.255000	-14833.485000	-16542.270000	0.000000	0.000000	0.000000	0.000000	-124.018833	-55.820991	-378.031310	-285.937397	0.000000	0.000000	-0.000000	0.000000	30.107980	-20.372100	21.409780	-0.020081	1.015073	0.369567	-1.000000	-1.000000	-1.000000	-1.000000	-1.000000	-1.000000	-1.000000	138.620690	0.000000	-1.000000	-1.000000	244107.000000	1772918516.629328
-2080.350000	32494.365000	-14598.990000	-16297.830000	0.000000	0.000000	0.000000	0.000000	-10.862245	-110.360558	-147.201236	-100.634769	0.000000	0.000000	-0.000000	0.000000	30.107980	-20.372100	21.409780	-0.020081	1.015073	0.369567	-1.000000	-1.000000	-1.000000	-1.000000	-1.000000	-1.000000	-1.000000	138.620690	0.000000	-1.000000	-1.000000	244108.000000	1772918516.633418
-1914.930000	32595.705000	-14553.540000	-16175.340000	0.000000	0.000000	0.000000	0.000000	100.143140	-97.492489	132.799195	128.963768	0.000000	0.000000	-0.000000	0.000000	30.107980	-20.372100	21.409780	-0.020081	1.015073	0.369567	-1.000000	-1.000000	-1.000000	-1.000000	-1.000000	-1.000000	-1.000000	138.620690	0.000000	-1.000000	-1.000000	244109.000000	1772918516.633421
-1948.365000	32602.320000	-14724.630000	-16291.215000	0.000000	0.000000	0.000000	0.000000	168.268374	-35.298520	317.893582	283.355377	0.000000	0.000000	-0.000000	0.000000	30.107980	-20.372100	21.409780	-0.020081	1.015073	0.369567	-1.000000	-1.000000	-1.000000	-1.000000	-1.000000	-1.000000	-1.000000	138.620690	0.000000	-1.000000	-1.000000	244110.000000	1772918516.637378
-2077.425000	32619.510000	-14946.255000	-16451.145000	0.000000	0.000000	0.000000	0.000000	165.183294	35.745208	323.591019	286.523208	0.000000	0.000000	-0.000000	0.000000	30.107980	-20.372100	21.409780	-0.020081	1.015073	0.369567	-1.000000	-1.000000	-1.000000	-1.000000	-1.000000	-1.000000	-1.000000	138.620690	0.000000	-1.000000	-1.000000	244111.000000	1772918516.637382
-2252.205000	32692.230000	-15129.045000	-16695.540000	0.000000	0.000000	0.000000	0.000000	84.495781	76.892137	166.603726	143.355321	0.000000	0.000000	-0.000000	0.000000	30.107980	-20.372100	21.409780	-0.020081	1.015073	0.369567	-1.000000	-1.000000	-1.000000	-1.000000	-1.000000	-1.000000	-1.000000	138.620690	0.000000	-1.000000	-1.000000	244112.000000	1772918516.641392
-2299.140000	32698.305000	-15070.050000	-16734.240000	0.000000	0.000000	0.000000	0.000000	-39.289910	74.196087	-46.582697	-62.095947	0.000000	0.000000	-0.000000	0.000000	30.107980	-20.372100	21.409780	-0.020081	1.015073	0.369567	-1.000000	-1.000000	-1.000000	-1.000000	-1.000000	-1.000000	-1.000000	138.620690	0.000000	-1.000000	-1.000000	244113.000000	1772918516.641395
-2277.540000	32721.570000	-14932.620000	-16700.490000	0.000000	0.000000	0.000000	0.000000	-140.027357	37.731922	-186.914251	-214.877021	0.000000	0.000000	-0.000000	0.000000	30.107980	-20.372100	21.409780	-0.020081	1.015073	0.369567	-1.000000	-1.000000	-1.000000	-1.000000	-1.000000	-1.000000	-1.000000	138.620690	0.000000	-1.000000	-1.000000	244114.000000	1772918516.645502
-2362.050000	32776.335000	-14814.270000	-16699.905000	0.000000	0.000000	0.000000	0.000000	-164.311442	-11.198717	-185.135209	-238.734168	0.000000	0.000000	-0.000000	0.000000	30.107980	-20.372100	21.409780	-0.020081	1.015073	0.369567	-1.000000	-1.000000	-1.000000	-1.000000	-1.000000	-1.000000	-1.000000	138.620690	0.000000	-1.000000	-1.000000	244115.000000	1772918516.645504
-2292.165000	32806.035000	-14789.385000	-16614.405000	0.000000	0.000000	0.000000	0.000000	-108.854484	-49.981457	-70.748930	-139.551183	0.000000	0.000000	-0.000000	0.000000	62.153980	-27.590080	47.672240	-0.037170	0.974912	0.393981	-1.000000	-1.000000	-1.000000	-1.000000	-1.000000	-1.000000	-1.000000	138.620690	0.000000	-1.000000	-1.000000	244116.000000	1772918516.649687
-2000.700000	32892.210000	-14742.045000	-16248.060000	0.000000	0.000000	0.000000	0.000000	-6.346300	-64.484352	63.874882	19.242476	0.000000	0.000000	-0.000000	0.000000	62.153980	-27.590080	47.672240	-0.037170	0.974912	0.393981	-1.000000	-1.000000	-1.000000	-1.000000	-1.000000	-1.000000	-1.000000	138.620690	0.000000	-1.000000	-1.000000	244117.000000	1772918516.649690
-2077.155000	32950.530000	-14957.910000	-16297.290000	0.000000	0.000000	0.000000	0.000000	101.251727	-53.548345	133.081964	164.505798	0.000000	0.000000	-0.000000	0.000000	62.153980	-27.590080	47.672240	-0.037170	0.974912	0.393981	-1.000000	-1.000000	-1.000000	-1.000000	-1.000000	-1.000000	-1.000000	138.620690	0.000000	-1.000000	-1.000000	244118.000000	1772918516.653532
-2156.040000	33017.670000	-15120.045000	-16502.850000	0.000000	0.000000	0.000000	0.000000	162.446424	-26.936560	102.006823	226.661316	0.000000	0.000000	-0.000000	0.000000	62.153980	-27.590080	47.672240	-0.037170	0.974912	0.393981	-1.000000	-1.000000	-1.000000	-1.000000	-1.000000	-1.000000	-1.000000	138.620690	0.000000	-1.000000	-1.000000	244119.000000	1772918516.653536
-2252.025000	33062.715000	-15212.115000	-16759.170000	0.000000	0.000000	0.000000	0.000000	138.159161	0.257926	-1.126423	162.301956	0.000000	0.000000	-0.000000	0.000000	62.153980	-27.590080	47.672240	-0.037170	0.974912	0.393981	-1.000000	-1.000000	-1.000000	-1.000000	-1.000000	-1.000000	-1.000000	138.620690	0.000000	-1.000000	-1.000000	244120.000000	1772918516.657494
-2289.915000	32900.130000	-15205.095000	-16831.710000	0.000000	0.000000	0.000000	0.000000	41.947228	12.131654	-103.239963	0.839811	0.000000	0.000000	-0.000000	0.000000	62.153980	-27.590080	47.672240	-0.037170	0.974912	0.393981	-1.000000	-1.000000	-1.000000	-1.000000	-1.000000	-1.000000	-1.000000	138.620690	0.000000	-1.000000	-1.000000	244121.000000	1772918516.657497
-2248.605000	32761.980000	-14975.775000	-16708.455000	0.000000	0.000000	0.000000	0.000000	-65.651920	-3.931562	-133.547160	-157.156081	0.000000	0.000000	-0.000000	0.000000	62.153980	-27.590080	47.672240	-0.037170	0.974912	0.393981	-1.000000	-1.000000	-1.000000	-1.000000	-1.000000	-1.000000	-1.000000	138.620690	0.000000	-1.000000	-1.000000	244122.000000	1772918516.661885
-2211.480000	32679.945000	-14857.515000	-16609.185000	0.000000	0.000000	0.000000	0.000000	-122.970396	-42.756699	-68.628623	-210.872245	0.000000	0.000000	-0.000000	0.000000	62.153980	-27.590080	47.672240	-0.037170	0.974912	0.393981	-1.000000	-1.000000	-1.000000	-1.000000	-1.000000	-1.000000	-1.000000	138.620690	0.000000	-1.000000	-1.000000	244123.000000	1772918516.661887
-2162.070000	32689.755000	-14865.705000	-16456.455000	0.000000	0.000000	0.000000	0.000000	-107.436044	-74.047338	48.684751	-134.563902	0.000000	0.000000	-0.000000	0.000000	62.153980	-27.590080	47.672240	-0.037170	0.974912	0.393981	-1.000000	-1.000000	-1.000000	-1.000000	-1.000000	-1.000000	-1.000000	138.620690	0.000000	-1.000000	-1.000000	244124.000000	1772918516.665580
-2080.215000	32773.365000	-14977.890000	-16267.050000	0.000000	0.000000	0.000000	0.000000	-41.118182	-63.825808	135.543678	14.748610	0.000000	0.000000	-0.000000	0.000000	62.153980	-27.590080	47.672240	-0.037170	0.974912	0.393981	-1.000000	-1.000000	-1.000000	-1.000000	-1.000000	-1.000000	-1.000000	138.620690	0.000000	-1.000000	-1.000000	244125.000000	1772918516.665583
-2084.715000	32871.870000	-14959.395000	-16241.265000	0.000000	0.000000	0.000000	0.000000	32.679613	-3.863868	134.486740	147.995120	0.000000	0.000000	-0.000000	0.000000	95.054540	-12.055400	53.028500	-0.011414	1.007627	0.404845	-1.000000	-1.000000	-1.000000	-1.000000	-1.000000	-1.000000	-1.000000	138.620690	0.000000	-1.000000	-1.000000	244126.000000	1772918516.754734
-2193.480000	32917.635000	-14814.990000	-16390.305000	0.000000	0.000000	0.000000	0.000000	73.216570	78.573869	59.800316	192.602935	0.000000	0.000000	-0.000000	0.000000	95.054540	-12.055400	53.028500	-0.011414	1.007627	0.404845	-1.000000	-1.000000	-1.000000	-1.000000	-1.000000	-1.000000	-1.000000	138.620690	0.000000	-1.000000	-1.000000	244127.000000	1772918516.754737
-2277.765000	32921.910000	-14873.490000	-16495.200000	0.000000	0.000000	0.000000	0.000000	60.044628	137.042519	-26.728445	124.612948	0.000000	0.000000	-0.000000	0.000000	95.054540	-12.055400	53.028500	-0.011414	1.007627	0.404845	-1.000000	-1.000000	-1.000000	-1.000000	-1.000000	-1.000000	-1.000000	138.620690	0.000000	-1.000000	-1.000000	244128.000000	1772918516.754743
-2382.435000	32817.420000	-15336.090000	-16631.820000	0.000000	0.000000	0.000000	0.000000	5.234544	135.423947	-87.538605	-16.067356	0.000000	0.000000	-0.000000	0.000000	95.054540	-12.055400	53.028500	-0.011414	1.007627	0.404845	-1.000000	-1.000000	-1.000000	-1.000000	-1.000000	-1.000000	-1.000000	138.620690	0.000000	-1.000000	-1.000000	244129.000000	1772918516.754746
-2386.845000	32662.170000	-15560.370000	-16726.905000	0.000000	0.000000	0.000000	0.000000	-53.661953	68.529653	-132.553253	-150.339664	0.000000	0.000000	-0.000000	0.000000	95.054540	-12.055400	53.028500	-0.011414	1.007627	0.404845	-1.000000	-1.000000	-1.000000	-1.000000	-1.000000	-1.000000	-1.000000	138.620690	0.000000	-1.000000	-1.000000	244130.000000	1772918516.754749
-2252.520000	32702.625000	-15831.585000	-16894.530000	0.000000	0.000000	0.000000	0.000000	-75.948823	-31.969444	-167.222314	-212.418127	0.000000	0.000000	-0.000000	0.000000	95.054540	-12.055400	53.028500	-0.011414	1.007627	0.404845	-1.000000	-1.000000	-1.000000	-1.000000	-1.000000	-1.000000	-1.000000	138.689655	0.000000	-1.000000	-1.000000	244131.000000	1772918516.754751
-2261.565000	32786.730000	-16453.395000	-16958.250000	0.000000	0.000000	0.000000	0.000000	-43.670645	-108.736315	-173.463611	-183.697180	0.000000	0.000000	-0.000000	0.000000	95.054540	-12.055400	53.028500	-0.011414	1.007627	0.404845	-1.000000	-1.000000	-1.000000	-1.000000	-1.000000	-1.000000	-1.000000	138.689655	0.000000	-1.000000	-1.000000	244132.000000	1772918516.754755
-2453.220000	32934.555000	-15812.730000	-16774.020000	0.000000	0.000000	0.000000	0.000000	17.593969	-115.349331	-126.651256	-83.632949	0.000000	0.000000	-0.000000	0.000000	95.054540	-12.055400	53.028500	-0.011414	1.007627	0.404845	-1.000000	-1.000000	-1.000000	-1.000000	-1.000000	-1.000000	-1.000000	138.689655	0.000000	-1.000000	-1.000000	244133.000000	1772918516.754757
-2406.870000	33118.560000	-14771.655000	-16529.940000	0.000000	0.000000	0.000000	0.000000	58.396227	-50.453938	21.840840	55.776660	0.000000	0.000000	-0.000000	0.000000	95.054540	-12.055400	53.028500	-0.011414	1.007627	0.404845	-1.000000	-1.000000	-1.000000	-1.000000	-1.000000	-1.000000	-1.000000	138.689655	0.000000	-1.000000	-1.000000	244134.000000	1772918516.754966
-2630.880000	33165.720000	-14471.595000	-16492.770000	0.000000	0.000000	0.000000	0.000000	53.921057	42.984939	283.786741	190.236157	0.000000	0.000000	-0.000000	0.000000	95.054540	-12.055400	53.028500	-0.011414	1.007627	0.404845	-1.000000	-1.000000	-1.000000	-1.000000	-1.000000	-1.000000	-1.000000	138.689655	0.000000	-1.000000	-1.000000	244135.000000	1772918516.754968
-2673.990000	33120.630000	-14316.480000	-16428.690000	0.000000	0.000000	0.000000	0.000000	15.384868	104.444294	526.301669	260.688785	0.000000	0.000000	-0.000000	0.000000	-9.110220	-6.363420	94.383100	0.030090	1.131467	0.356689	-1.000000	-1.000000	-1.000000	-1.000000	-1.000000	-1.000000	-1.000000	138.689655	0.000000	-1.000000	-1.000000	244136.000000	1772918516.754991
-2464.020000	32964.975000	-14706.180000	-16590.510000	0.000000	0.000000	0.000000	0.000000	-23.257661	91.756862	547.365466	224.922983	0.000000	0.000000	-0.000000	0.000000	-9.110220	-6.363420	94.383100	0.030090	1.131467	0.356689	-1.000000	-1.000000	-1.000000	-1.000000	-1.000000	-1.000000	-1.000000	138.689655	0.000000	-1.000000	-1.000000	244137.000000	1772918516.754994
-2235.240000	32797.485000	-14846.580000	-16573.770000	0.000000	0.000000	0.000000	0.000000	-20.408875	7.880117	269.828660	92.937714	0.000000	0.000000	-0.000000	0.000000	-9.110220	-6.363420	94.383100	0.030090	1.131467	0.356689	-1.000000	-1.000000	-1.000000	-1.000000	-1.000000	-1.000000	-1.000000	138.689655	0.000000	-1.000000	-1.000000	244138.000000	1772918516.754997
-2051.550000	32685.030000	-15137.280000	-16589.880000	0.000000	0.000000	0.000000	0.000000	35.436556	-100.111331	-179.931318	-71.279287	0.000000	0.000000	-0.000000	0.000000	-9.110220	-6.363420	94.383100	0.030090	1.131467	0.356689	-1.000000	-1.000000	-1.000000	-1.000000	-1.000000	-1.000000	-1.000000	138.689655	0.000000	-1.000000	-1.000000	244139.000000	1772918516.754999
-2194.830000	32669.370000	-15194.970000	-16664.355000	0.000000	0.000000	0.000000	0.000000	100.467144	-168.398095	-565.571069	-189.718072	0.000000	0.000000	-0.000000	0.000000	-9.110220	-6.363420	94.383100	0.030090	1.131467	0.356689	-1.000000	-1.000000	-1.000000	-1.000000	-1.000000	-1.000000	-1.000000	138.689655	0.000000	-1.000000	-1.000000	244140.000000	1772918516.755002
-1985.040000	32783.265000	-14564.970000	-16322.355000	0.000000	0.000000	0.000000	0.000000	112.622308	-152.670271	-688.215455	-214.481191	0.000000	0.000000	-0.000000	0.000000	-9.110220	-6.363420	94.383100	0.030090	1.131467	0.356689	-1.000000	-1.000000	-1.000000	-1.000000	-1.000000	-1.000000	-1.000000	138.689655	0.000000	-1.000000	-1.000000	244141.000000	1772918516.755004
-2161.845000	33013.530000	-14440.050000	-16155.765000	0.000000	0.000000	0.000000	0.000000	53.214158	-51.320881	-487.485266	-138.713663	0.000000	0.000000	-0.000000	0.000000	-9.110220	-6.363420	94.383100	0.030090	1.131467	0.356689	-1.000000	-1.000000	-1.000000	-1.000000	-1.000000	-1.000000	-1.000000	138.689655	0.000000	-1.000000	-1.000000	244142.000000	1772918516.755221
-2577.645000	33164.865000	-15108.165000	-16511.850000	0.000000	0.000000	0.000000	0.000000	-53.941148	92.745566	-100.433021	-11.327645	0.000000	0.000000	-0.000000	0.000000	-9.110220	-6.363420	94.383100	0.030090	1.131467	0.356689	-1.000000	-1.000000	-1.000000	-1.000000	-1.000000	-1.000000	-1.000000	138.689655	0.000000	-1.000000	-1.000000	244143.000000	1772918516.755224
-2657.475000	33152.085000	-15776.865000	-16770.825000	0.000000	0.000000	0.000000	0.000000	-171.895800	207.509604	206.995828	71.102071	0.000000	0.000000	-0.000000	0.000000	-9.110220	-6.363420	94.383100	0.030090	1.131467	0.356689	-1.000000	-1.000000	-1.000000	-1.000000	-1.000000	-1.000000	-1.000000	138.689655	0.000000	-1.000000	-1.000000	244144.000000	1772918516.755228
-2475.090000	33067.980000	-16429.140000	-16905.420000	0.000000	0.000000	0.000000	0.000000	-239.950731	226.938584	257.582489	50.845719	0.000000	0.000000	-0.000000	0.000000	-9.110220	-6.363420	94.383100	0.030090	1.131467	0.356689	-1.000000	-1.000000	-1.000000	-1.000000	-1.000000	-1.000000	-1.000000	138.689655	0.000000	-1.000000	-1.000000	244145.000000	1772918516.755231
-2487.870000	33019.155000	-16720.335000	-17084.340000	0.000000	0.000000	0.000000	0.000000	-197.351712	135.670219	98.895476	-32.950686	0.000000	0.000000	-0.000000	0.000000	-30.916760	0.579880	97.007820	0.051208	1.088742	0.346007	-1.000000	-1.000000	-1.000000	-1.000000	-1.000000	-1.000000	-1.000000	138.689655	0.000000	-1.000000	-1.000000	244146.000000	1772918516.755234
-2528.775000	33094.665000	-15489.630000	-16895.700000	0.000000	0.000000	0.000000	0.000000	-54.365622	-14.125706	-51.662466	-92.364456	0.000000	0.000000	-0.000000	0.000000	-30.916760	0.579880	97.007820	0.051208	1.088742	0.346007	-1.000000	-1.000000	-1.000000	-1.000000	-1.000000	-1.000000	-1.000000	138.689655	0.000000	-1.000000	-1.000000	244147.000000	1772918516.755237
-2823.885000	33089.580000	-14813.280000	-16699.725000	0.000000	0.000000	0.000000	0.000000	100.863519	-138.568247	19.816705	-63.235013	0.000000	0.000000	-0.000000	0.000000	-30.916760	0.579880	97.007820	0.051208	1.088742	0.346007	-1.000000	-1.000000	-1.000000	-1.000000	-1.000000	-1.000000	-1.000000	138.689655	0.000000	-1.000000	-1.000000	244148.000000	1772918516.755286
-2947.095000	33090.435000	-14248.665000	-16289.325000	0.000000	0.000000	0.000000	0.000000	176.650169	-182.678356	315.365332	56.044961	0.000000	0.000000	-0.000000	0.000000	-30.916760	0.579880	97.007820	0.051208	1.088742	0.346007	-1.000000	-1.000000	-1.000000	-1.000000	-1.000000	-1.000000	-1.000000	138.689655	0.000000	-1.000000	-1.000000	244149.000000	1772918516.755289
-2534.220000	33178.050000	-14117.445000	-16083.945000	0.000000	0.000000	0.000000	0.000000	159.123511	-145.941542	598.001270	203.829148	0.000000	0.000000	-0.000000	0.000000	-30.916760	0.579880	97.007820	0.051208	1.088742	0.346007	-1.000000	-1.000000	-1.000000	-1.000000	-1.000000	-1.000000	-1.000000	138.689655	0.000000	-1.000000	-1.000000	244150.000000	1772918516.755496
-2505.060000	33245.415000	-14396.040000	-16256.475000	0.000000	0.000000	0.000000	0.000000	112.847710	-61.694868	606.572608	284.746998	0.000000	0.000000	-0.000000	0.000000	-30.916760	0.579880	97.007820	0.051208	1.088742	0.346007	-1.000000	-1.000000	-1.000000	-1.000000	-1.000000	-1.000000	-1.000000	138.689655	0.000000	-1.000000	-1.000000	244151.000000	1772918516.755498
-2638.170000	33298.020000	-14576.220000	-16363.935000	0.000000	0.000000	0.000000	0.000000	84.714440	28.065277	268.125495	223.948054	0.000000	0.000000	-0.000000	0.000000	-30.916760	0.579880	97.007820	0.051208	1.088742	0.346007	-1.000000	-1.000000	-1.000000	-1.000000	-1.000000	-1.000000	-1.000000	138.689655	0.000000	-1.000000	-1.000000	244152.000000	1772918516.755502
-2751.705000	33362.370000	-14715.180000	-16521.930000	0.000000	0.000000	0.000000	0.000000	53.687351	87.995759	-255.529228	31.194703	0.000000	0.000000	-0.000000	0.000000	-30.916760	0.579880	97.007820	0.051208	1.088742	0.346007	-1.000000	-1.000000	-1.000000	-1.000000	-1.000000	-1.000000	-1.000000	138.689655	0.000000	-1.000000	-1.000000	244153.000000	1772918516.755504
-2638.215000	33276.510000	-14660.820000	-16458.930000	0.000000	0.000000	0.000000	0.000000	-4.941663	99.595948	-686.378961	-191.978230	0.000000	0.000000	-0.000000	0.000000	-30.916760	0.579880	97.007820	0.051208	1.088742	0.346007	-1.000000	-1.000000	-1.000000	-1.000000	-1.000000	-1.000000	-1.000000	138.689655	0.000000	-1.000000	-1.000000	244154.000000	1772918516.755577
-2525.580000	33171.120000	-14693.355000	-16449.840000	0.000000	0.000000	0.000000	0.000000	-66.658065	62.261150	-816.452357	-323.108058	0.000000	0.000000	-0.000000	0.000000	-30.916760	0.579880	97.007820	0.051208	1.088742	0.346007	-1.000000	-1.000000	-1.000000	-1.000000	-1.000000	-1.000000	-1.000000	138.689655	0.000000	-1.000000	-1.000000	244155.000000	1772918516.755579
-2826.360000	33152.985000	-15185.700000	-16766.685000	0.000000	0.000000	0.000000	0.000000	-96.807003	-5.084700	-629.698046	-308.610319	0.000000	0.000000	-0.000000	0.000000	-16.328200	-20.967240	70.546980	0.012634	0.909238	0.349425	-1.000000	-1.000000	-1.000000	-1.000000	-1.000000	-1.000000	-1.000000	138.689655	0.000000	-1.000000	-1.000000	244156.000000	1772918516.755796
-2776.185000	33190.335000	-15399.045000	-16778.070000	0.000000	0.000000	0.000000	0.000000	-97.698849	-64.520571	-279.568426	-190.282288	0.000000	0.000000	-0.000000	0.000000	-16.328200	-20.967240	70.546980	0.012634	0.909238	0.349425	-1.000000	-1.000000	-1.000000	-1.000000	-1.000000	-1.000000	-1.000000	138.689655	0.000000	-1.000000	-1.000000	244157.000000	1772918516.755799
-2570.490000	33339.195000	-14980.545000	-16483.230000	0.000000	0.000000	0.000000	0.000000	-79.436173	-78.551647	65.212939	-36.174515	0.000000	0.000000	-0.000000	0.000000	-16.328200	-20.967240	70.546980	0.012634	0.909238	0.349425	-1.000000	-1.000000	-1.000000	-1.000000	-1.000000	-1.000000	-1.000000	138.689655	0.000000	-1.000000	-1.000000	244158.000000	1772918516.755802
-2689.470000	33482.385000	-14882.760000	-16439.850000	0.000000	0.000000	0.000000	0.000000	-36.481363	-35.949978	331.264510	115.274059	0.000000	0.000000	-0.000000	0.000000	-16.328200	-20.967240	70.546980	0.012634	0.909238	0.349425	-1.000000	-1.000000	-1.000000	-1.000000	-1.000000	-1.000000	-1.000000	138.689655	0.000000	-1.000000	-1.000000	244159.000000	1772918516.755805
-2905.290000	33546.780000	-14997.600000	-16543.170000	0.000000	0.000000	0.000000	0.000000	14.073279	37.901734	489.695484	226.396677	0.000000	0.000000	-0.000000	0.000000	-16.328200	-20.967240	70.546980	0.012634	0.909238	0.349425	-1.000000	-1.000000	-1.000000	-1.000000	-1.000000	-1.000000	-1.000000	138.689655	0.000000	-1.000000	-1.000000	244160.000000	1772918516.756056
-2897.370000	33612.795000	-15107.715000	-16555.365000	0.000000	0.000000	0.000000	0.000000	35.174276	95.849808	498.887616	249.560604	0.000000	0.000000	-0.000000	0.000000	-16.328200	-20.967240	70.546980	0.012634	0.909238	0.349425	-1.000000	-1.000000	-1.000000	-1.000000	-1.000000	-1.000000	-1.000000	138.689655	0.000000	-1.000000	-1.000000	244161.000000	1772918516.756058
-2960.910000	33651.360000	-15335.730000	-16760.115000	0.000000	0.000000	0.000000	0.000000	21.458823	102.552382	348.911556	171.999841	0.000000	0.000000	-0.000000	0.000000	-16.328200	-20.967240	70.546980	0.012634	0.909238	0.349425	-1.000000	-1.000000	-1.000000	-1.000000	-1.000000	-1.000000	-1.000000	138.689655	0.000000	-1.000000	-1.000000	244162.000000	1772918516.756062
-2649.915000	33515.910000	-15197.265000	-16608.375000	0.000000	0.000000	0.000000	0.000000	6.583778	53.982446	106.238451	37.127495	0.000000	0.000000	-0.000000	0.000000	-16.328200	-20.967240	70.546980	0.012634	0.909238	0.349425	-1.000000	-1.000000	-1.000000	-1.000000	-1.000000	-1.000000	-1.000000	138.689655	0.000000	-1.000000	-1.000000	244163.000000	1772918516.756064
-2725.425000	33408.945000	-15760.665000	-16615.260000	0.000000	0.000000	0.000000	0.000000	21.910846	-29.520007	-123.153478	-80.488692	0.000000	0.000000	-0.000000	0.000000	-16.328200	-20.967240	70.546980	0.012634	0.909238	0.349425	-1.000000	-1.000000	-1.000000	-1.000000	-1.000000	-1.000000	-1.000000	138.689655	0.000000	-1.000000	-1.000000	244164.000000	1772918516.756068
-2715.030000	33459.345000	-15888.780000	-16692.255000	0.000000	0.000000	0.000000	0.000000	56.798128	-110.223486	-269.375689	-128.793463	0.000000	0.000000	-0.000000	0.000000	-16.328200	-20.967240	70.546980	0.012634	0.909238	0.349425	-1.000000	-1.000000	-1.000000	-1.000000	-1.000000	-1.000000	-1.000000	138.689655	0.000000	-1.000000	-1.000000	244165.000000	1772918516.756070
-2507.535000	33534.810000	-15048.810000	-16567.245000	0.000000	0.000000	0.000000	0.000000	75.303750	-142.481606	-292.921151	-109.423695	0.000000	0.000000	-0.000000	0.000000	-5.661460	-13.856080	60.475380	0.011047	0.843260	0.306823	-1.000000	-1.000000	-1.000000	-1.000000	-1.000000	-1.000000	-1.000000	138.689655	0.000000	-1.000000	-1.000000	244166.000000	1772918516.756178
-2724.615000	33573.555000	-14369.670000	-16315.515000	0.000000	0.000000	0.000000	0.000000	59.926311	-103.831687	-151.633797	-48.213103	0.000000	0.000000	-0.000000	0.000000	-5.661460	-13.856080	60.475380	0.011047	0.843260	0.306823	-1.000000	-1.000000	-1.000000	-1.000000	-1.000000	-1.000000	-1.000000	138.689655	0.000000	-1.000000	-1.000000	244167.000000	1772918516.756181
-2938.275000	33467.355000	-14526.990000	-16397.055000	0.000000	0.000000	0.000000	0.000000	7.860173	-19.633490	110.070097	27.072112	0.000000	0.000000	-0.000000	0.000000	-5.661460	-13.856080	60.475380	0.011047	0.843260	0.306823	-1.000000	-1.000000	-1.000000	-1.000000	-1.000000	-1.000000	-1.000000	138.689655	0.000000	-1.000000	-1.000000	244168.000000	1772918516.756184
-2559.690000	33519.105000	-14872.140000	-16486.200000	0.000000	0.000000	0.000000	0.000000	-63.722951	57.079969	306.751450	75.168074	0.000000	0.000000	-0.000000	0.000000	-5.661460	-13.856080	60.475380	0.011047	0.843260	0.306823	-1.000000	-1.000000	-1.000000	-1.000000	-1.000000	-1.000000	-1.000000	138.689655	0.000000	-1.000000	-1.000000	244169.000000	1772918516.756187
-2577.015000	33567.795000	-15105.870000	-16688.475000	0.000000	0.000000	0.000000	0.000000	-101.979135	92.633982	269.499562	59.304073	0.000000	0.000000	-0.000000	0.000000	-5.661460	-13.856080	60.475380	0.011047	0.843260	0.306823	-1.000000	-1.000000	-1.000000	-1.000000	-1.000000	-1.000000	-1.000000	138.689655	0.000000	-1.000000	-1.000000	244170.000000	1772918516.759734
-2818.170000	33422.535000	-15213.735000	-16818.615000	0.000000	0.000000	0.000000	0.000000	-79.845217	86.260546	20.005894	-15.075917	0.000000	0.000000	-0.000000	0.000000	-5.661460	-13.856080	60.475380	0.011047	0.843260	0.306823	-1.000000	-1.000000	-1.000000	-1.000000	-1.000000	-1.000000	-1.000000	138.689655	0.000000	-1.000000	-1.000000	244171.000000	1772918516.759736
-2829.060000	33351.210000	-15079.905000	-16642.395000	0.000000	0.000000	0.000000	0.000000	-35.681784	48.202406	-257.360238	-94.609658	0.000000	0.000000	-0.000000	0.000000	-5.661460	-13.856080	60.475380	0.011047	0.843260	0.306823	-1.000000	-1.000000	-1.000000	-1.000000	-1.000000	-1.000000	-1.000000	138.689655	0.000000	-1.000000	-1.000000	244172.000000	1772918516.763167
-2570.175000	33397.245000	-14758.650000	-16471.845000	0.000000	0.000000	0.000000	0.000000	-4.298028	-3.581212	-374.036526	-111.716824	0.000000	0.000000	-0.000000	0.000000	-5.661460	-13.856080	60.475380	0.011047	0.843260	0.306823	-1.000000	-1.000000	-1.000000	-1.000000	-1.000000	-1.000000	-1.000000	138.689655	0.000000	-1.000000	-1.000000	244173.000000	1772918516.763169
-2628.855000	33445.755000	-14827.905000	-16446.555000	0.000000	0.000000	0.000000	0.000000	23.181284	-38.807982	-270.797532	-43.832714	0.000000	0.000000	-0.000000	0.000000	-5.661460	-13.856080	60.475380	0.011047	0.843260	0.306823	-1.000000	-1.000000	-1.000000	-1.000000	-1.000000	-1.000000	-1.000000	138.689655	0.000000	-1.000000	-1.000000	244174.000000	1772918516.765700
