Channel1	Channel2	Channel3	Channel4	Channel5	Channel6	Channel7	Channel8	FilteredChannel1	FilteredChannel2	FilteredChannel3	FilteredChannel4	FilteredChannel5	FilteredChannel6	FilteredChannel7	FilteredChannel8	GyroX	GyroY	GyroZ	AccX	AccY	AccZ	PPG1	PPG2	rawPPG1	rawPPG2	rawPPG3	Hr	Hrv	Battery	Trigger	PhysicalTrigger	AutoTrigger	NumMeasurements	Timestamp
-16149.555000	-10034.235000	-16176.780000	-12707.775000	0.000000	0.000000	0.000000	0.000000	-5.820538	30.144395	-9.806099	-11.981193	-0.000000	-0.000000	-0.000000	-0.000000	3.937080	-0.106820	1.846460	0.004700	0.979490	-0.073181	-1.000000	-1.000000	-1.000000	-1.000000	-1.000000	-1.000000	-1.000000	146.344828	0.000000	-1.000000	-1.000000	203546.000000	1772311064.962886
-16138.125000	-10015.740000	-16161.165000	-12682.395000	0.000000	0.000000	0.000000	0.000000	2.940422	15.714157	0.263750	0.155906	-0.000000	-0.000000	-0.000000	-0.000000	3.937080	-0.106820	1.846460	0.004700	0.979490	-0.073181	-1.000000	-1.000000	-1.000000	-1.000000	-1.000000	-1.000000	-1.000000	146.344828	0.000000	-1.000000	-1.000000	203547.000000	1772311064.962889
-16151.310000	-9995.895000	-16173.090000	-12699.315000	0.000000	0.000000	0.000000	0.000000	11.334287	-0.714331	11.620866	15.076465	-0.000000	-0.000000	-0.000000	-0.000000	3.937080	-0.106820	1.846460	0.004700	0.979490	-0.073181	-1.000000	-1.000000	-1.000000	-1.000000	-1.000000	-1.000000	-1.000000	146.344828	0.000000	-1.000000	-1.000000	203548.000000	1772311064.963311
-16141.365000	-10004.805000	-16164.315000	-12696.705000	0.000000	0.000000	0.000000	0.000000	14.648042	-10.305557	17.755201	23.045047	-0.000000	-0.000000	-0.000000	-0.000000	3.937080	-0.106820	1.846460	0.004700	0.979490	-0.073181	-1.000000	-1.000000	-1.000000	-1.000000	-1.000000	-1.000000	-1.000000	146.344828	0.000000	-1.000000	-1.000000	203549.000000	1772311064.963314
-16135.380000	-10022.805000	-16159.185000	-12691.845000	0.000000	0.000000	0.000000	0.000000	11.638674	-12.237696	15.628803	18.743191	-0.000000	-0.000000	-0.000000	-0.000000	3.753960	-0.274680	1.770160	0.004883	0.979673	-0.074341	-1.000000	-1.000000	-1.000000	-1.000000	-1.000000	-1.000000	-1.000000	146.344828	0.000000	-1.000000	-1.000000	203550.000000	1772311064.966782
-16135.245000	-10036.440000	-16161.615000	-12691.980000	0.000000	0.000000	0.000000	0.000000	5.050214	-11.261333	7.594012	5.903139	-0.000000	-0.000000	-0.000000	-0.000000	3.753960	-0.274680	1.770160	0.004883	0.979673	-0.074341	-1.000000	-1.000000	-1.000000	-1.000000	-1.000000	-1.000000	-1.000000	146.344828	0.000000	-1.000000	-1.000000	203551.000000	1772311064.966785
-16129.845000	-10021.770000	-16160.265000	-12692.115000	0.000000	0.000000	0.000000	0.000000	-1.680683	-10.111947	-1.913836	-7.597452	-0.000000	-0.000000	-0.000000	-0.000000	3.753960	-0.274680	1.770160	0.004883	0.979673	-0.074341	-1.000000	-1.000000	-1.000000	-1.000000	-1.000000	-1.000000	-1.000000	146.344828	0.000000	-1.000000	-1.000000	203552.000000	1772311064.972046
-16130.520000	-10013.040000	-16161.030000	-12694.230000	0.000000	0.000000	0.000000	0.000000	-6.415805	-7.094246	-9.227721	-15.882225	-0.000000	-0.000000	-0.000000	-0.000000	3.753960	-0.274680	1.770160	0.004883	0.979673	-0.074341	-1.000000	-1.000000	-1.000000	-1.000000	-1.000000	-1.000000	-1.000000	146.344828	0.000000	-1.000000	-1.000000	203553.000000	1772311064.972049
-16133.805000	-10020.015000	-16161.255000	-12692.655000	0.000000	0.000000	0.000000	0.000000	-8.496903	-0.829935	-12.326238	-17.054008	-0.000000	-0.000000	-0.000000	-0.000000	3.753960	-0.274680	1.770160	0.004883	0.979673	-0.074341	-1.000000	-1.000000	-1.000000	-1.000000	-1.000000	-1.000000	-1.000000	146.344828	0.000000	-1.000000	-1.000000	203554.000000	1772311064.975299
-16135.020000	-10026.585000	-16162.110000	-12695.895000	0.000000	0.000000	0.000000	0.000000	-8.409298	5.931246	-11.134354	-12.489439	-0.000000	-0.000000	-0.000000	-0.000000	3.753960	-0.274680	1.770160	0.004883	0.979673	-0.074341	-1.000000	-1.000000	-1.000000	-1.000000	-1.000000	-1.000000	-1.000000	146.344828	0.000000	-1.000000	-1.000000	203555.000000	1772311064.975302
-16137.405000	-10009.170000	-16159.005000	-12695.445000	0.000000	0.000000	0.000000	0.000000	-6.862200	9.491565	-7.006080	-5.273920	-0.000000	-0.000000	-0.000000	-0.000000	3.753960	-0.274680	1.770160	0.004883	0.979673	-0.074341	-1.000000	-1.000000	-1.000000	-1.000000	-1.000000	-1.000000	-1.000000	146.344828	0.000000	-1.000000	-1.000000	203556.000000	1772311064.978826
-16145.370000	-9994.005000	-16169.355000	-12702.780000	0.000000	0.000000	0.000000	0.000000	-4.467609	9.654737	-1.983890	1.398108	-0.000000	-0.000000	-0.000000	-0.000000	3.753960	-0.274680	1.770160	0.004883	0.979673	-0.074341	-1.000000	-1.000000	-1.000000	-1.000000	-1.000000	-1.000000	-1.000000	146.344828	0.000000	-1.000000	-1.000000	203557.000000	1772311064.978829
-16128.945000	-10005.615000	-16155.720000	-12688.245000	0.000000	0.000000	0.000000	0.000000	-1.588880	8.052333	2.091018	5.701261	-0.000000	-0.000000	-0.000000	-0.000000	3.753960	-0.274680	1.770160	0.004883	0.979673	-0.074341	-1.000000	-1.000000	-1.000000	-1.000000	-1.000000	-1.000000	-1.000000	146.344828	0.000000	-1.000000	-1.000000	203558.000000	1772311064.983000
-16117.515000	-10008.405000	-16141.680000	-12675.420000	0.000000	0.000000	0.000000	0.000000	2.122224	4.625141	4.941440	7.965962	-0.000000	-0.000000	-0.000000	-0.000000	3.753960	-0.274680	1.770160	0.004883	0.979673	-0.074341	-1.000000	-1.000000	-1.000000	-1.000000	-1.000000	-1.000000	-1.000000	146.344828	0.000000	-1.000000	-1.000000	203559.000000	1772311064.983002
-16119.180000	-10003.590000	-16149.645000	-12682.800000	0.000000	0.000000	0.000000	0.000000	6.356763	-0.782797	6.974149	8.968521	-0.000000	-0.000000	-0.000000	-0.000000	3.006220	0.167860	1.037680	0.007690	0.980649	-0.076355	-1.000000	-1.000000	-1.000000	-1.000000	-1.000000	-1.000000	-1.000000	146.344828	0.000000	-1.000000	-1.000000	203560.000000	1772311064.986566
-16136.055000	-10000.440000	-16167.465000	-12699.225000	0.000000	0.000000	0.000000	0.000000	8.508627	-5.947826	6.818205	7.583547	-0.000000	-0.000000	-0.000000	-0.000000	3.006220	0.167860	1.037680	0.007690	0.980649	-0.076355	-1.000000	-1.000000	-1.000000	-1.000000	-1.000000	-1.000000	-1.000000	146.344828	0.000000	-1.000000	-1.000000	203561.000000	1772311064.986569
-16164.405000	-10039.680000	-16195.455000	-12730.545000	0.000000	0.000000	0.000000	0.000000	5.496684	-8.886456	2.401355	2.038905	-0.000000	-0.000000	-0.000000	-0.000000	3.006220	0.167860	1.037680	0.007690	0.980649	-0.076355	-1.000000	-1.000000	-1.000000	-1.000000	-1.000000	-1.000000	-1.000000	146.344828	0.000000	-1.000000	-1.000000	203562.000000	1772311064.990971
-16144.335000	-10042.200000	-16173.900000	-12710.745000	0.000000	0.000000	0.000000	0.000000	-1.914516	-10.232861	-4.852771	-6.133802	-0.000000	-0.000000	-0.000000	-0.000000	3.006220	0.167860	1.037680	0.007690	0.980649	-0.076355	-1.000000	-1.000000	-1.000000	-1.000000	-1.000000	-1.000000	-1.000000	146.344828	0.000000	-1.000000	-1.000000	203563.000000	1772311064.990974
-16112.430000	-10017.765000	-16140.645000	-12671.280000	0.000000	0.000000	0.000000	0.000000	-7.386744	-9.649563	-8.675309	-10.497312	-0.000000	-0.000000	-0.000000	-0.000000	3.006220	0.167860	1.037680	0.007690	0.980649	-0.076355	-1.000000	-1.000000	-1.000000	-1.000000	-1.000000	-1.000000	-1.000000	146.344828	0.000000	-1.000000	-1.000000	203564.000000	1772311064.997190
-16124.220000	-10025.415000	-16152.165000	-12681.900000	0.000000	0.000000	0.000000	0.000000	-5.291325	-4.684108	-4.348118	-5.864780	-0.000000	-0.000000	-0.000000	-0.000000	3.006220	0.167860	1.037680	0.007690	0.980649	-0.076355	-1.000000	-1.000000	-1.000000	-1.000000	-1.000000	-1.000000	-1.000000	146.344828	0.000000	-1.000000	-1.000000	203565.000000	1772311064.997193
-16129.755000	-10052.865000	-16154.955000	-12681.000000	0.000000	0.000000	0.000000	0.000000	1.740160	3.311524	4.355728	4.047215	-0.000000	-0.000000	-0.000000	-0.000000	3.006220	0.167860	1.037680	0.007690	0.980649	-0.076355	-1.000000	-1.000000	-1.000000	-1.000000	-1.000000	-1.000000	-1.000000	146.344828	0.000000	-1.000000	-1.000000	203566.000000	1772311064.998872
-16123.545000	-10047.330000	-16151.670000	-12677.985000	0.000000	0.000000	0.000000	0.000000	6.540729	8.743326	9.560976	10.612681	-0.000000	-0.000000	-0.000000	-0.000000	3.006220	0.167860	1.037680	0.007690	0.980649	-0.076355	-1.000000	-1.000000	-1.000000	-1.000000	-1.000000	-1.000000	-1.000000	146.344828	0.000000	-1.000000	-1.000000	203567.000000	1772311064.998875
-16124.940000	-10056.600000	-16156.665000	-12685.230000	0.000000	0.000000	0.000000	0.000000	5.976942	8.895353	7.972598	9.563655	-0.000000	-0.000000	-0.000000	-0.000000	3.006220	0.167860	1.037680	0.007690	0.980649	-0.076355	-1.000000	-1.000000	-1.000000	-1.000000	-1.000000	-1.000000	-1.000000	146.344828	0.000000	-1.000000	-1.000000	203568.000000	1772311065.002829
-16123.905000	-10067.220000	-16157.205000	-12686.985000	0.000000	0.000000	0.000000	0.000000	1.904664	5.629706	1.849456	2.693722	-0.000000	-0.000000	-0.000000	-0.000000	3.006220	0.167860	1.037680	0.007690	0.980649	-0.076355	-1.000000	-1.000000	-1.000000	-1.000000	-1.000000	-1.000000	-1.000000	146.344828	0.000000	-1.000000	-1.000000	203569.000000	1772311065.002831
-16127.190000	-10063.440000	-16160.265000	-12687.975000	0.000000	0.000000	0.000000	0.000000	-2.570710	1.758339	-4.648838	-5.334058	-0.000000	-0.000000	-0.000000	-0.000000	1.922760	0.412020	-0.320460	0.009460	0.980771	-0.079040	-1.000000	-1.000000	-1.000000	-1.000000	-1.000000	-1.000000	-1.000000	146.344828	0.000000	-1.000000	-1.000000	203570.000000	1772311065.007251
-16124.085000	-10054.170000	-16153.740000	-12677.940000	0.000000	0.000000	0.000000	0.000000	-5.273606	-0.349463	-8.134686	-9.930891	-0.000000	-0.000000	-0.000000	-0.000000	1.922760	0.412020	-0.320460	0.009460	0.980771	-0.079040	-1.000000	-1.000000	-1.000000	-1.000000	-1.000000	-1.000000	-1.000000	146.344828	0.000000	-1.000000	-1.000000	203571.000000	1772311065.007254
-16115.355000	-10027.080000	-16142.445000	-12669.525000	0.000000	0.000000	0.000000	0.000000	-5.222956	0.892180	-7.110448	-8.815911	-0.000000	-0.000000	-0.000000	-0.000000	1.922760	0.412020	-0.320460	0.009460	0.980771	-0.079040	-1.000000	-1.000000	-1.000000	-1.000000	-1.000000	-1.000000	-1.000000	146.344828	0.000000	-1.000000	-1.000000	203572.000000	1772311065.010882
-16118.505000	-10003.230000	-16144.830000	-12676.635000	0.000000	0.000000	0.000000	0.000000	-2.694700	5.242173	-2.477653	-3.350506	-0.000000	-0.000000	-0.000000	-0.000000	1.922760	0.412020	-0.320460	0.009460	0.980771	-0.079040	-1.000000	-1.000000	-1.000000	-1.000000	-1.000000	-1.000000	-1.000000	146.344828	0.000000	-1.000000	-1.000000	203573.000000	1772311065.010890
-16112.790000	-9967.815000	-16144.065000	-12678.030000	0.000000	0.000000	0.000000	0.000000	0.650760	10.359193	2.640739	2.306547	-0.000000	-0.000000	-0.000000	-0.000000	1.922760	0.412020	-0.320460	0.009460	0.980771	-0.079040	-1.000000	-1.000000	-1.000000	-1.000000	-1.000000	-1.000000	-1.000000	146.344828	0.000000	-1.000000	-1.000000	203574.000000	1772311065.015106
-16101.585000	-9938.070000	-16131.555000	-12661.470000	0.000000	0.000000	0.000000	0.000000	3.126821	13.093438	5.337488	5.033712	-0.000000	-0.000000	-0.000000	-0.000000	1.922760	0.412020	-0.320460	0.009460	0.980771	-0.079040	-1.000000	-1.000000	-1.000000	-1.000000	-1.000000	-1.000000	-1.000000	146.344828	0.000000	-1.000000	-1.000000	203575.000000	1772311065.015109
-16137.945000	-9933.615000	-16167.465000	-12694.365000	0.000000	0.000000	0.000000	0.000000	3.565509	10.845641	4.554616	4.538563	-0.000000	-0.000000	-0.000000	-0.000000	1.922760	0.412020	-0.320460	0.009460	0.980771	-0.079040	-1.000000	-1.000000	-1.000000	-1.000000	-1.000000	-1.000000	-1.000000	146.344828	0.000000	-1.000000	-1.000000	203576.000000	1772311065.018874
-16159.635000	-9958.860000	-16193.970000	-12726.630000	0.000000	0.000000	0.000000	0.000000	0.388880	1.868386	-0.206282	0.690297	-0.000000	-0.000000	-0.000000	-0.000000	1.922760	0.412020	-0.320460	0.009460	0.980771	-0.079040	-1.000000	-1.000000	-1.000000	-1.000000	-1.000000	-1.000000	-1.000000	146.344828	0.000000	-1.000000	-1.000000	203577.000000	1772311065.018876
-16132.815000	-9953.280000	-16167.690000	-12700.215000	0.000000	0.000000	0.000000	0.000000	-5.319071	-12.709243	-7.044971	-5.384448	-0.000000	-0.000000	-0.000000	-0.000000	1.922760	0.412020	-0.320460	0.009460	0.980771	-0.079040	-1.000000	-1.000000	-1.000000	-1.000000	-1.000000	-1.000000	-1.000000	146.344828	0.000000	-1.000000	-1.000000	203578.000000	1772311065.023567
-16148.880000	-9934.695000	-16183.080000	-12710.745000	0.000000	0.000000	0.000000	0.000000	-8.165977	-26.113517	-10.214841	-8.598844	-0.000000	-0.000000	-0.000000	-0.000000	1.922760	0.412020	-0.320460	0.009460	0.980771	-0.079040	-1.000000	-1.000000	-1.000000	-1.000000	-1.000000	-1.000000	-1.000000	146.344828	0.000000	-1.000000	-1.000000	203579.000000	1772311065.023570
-16159.230000	-9919.620000	-16191.630000	-12718.530000	0.000000	0.000000	0.000000	0.000000	-5.220672	-29.508982	-6.598633	-5.443728	-0.000000	-0.000000	-0.000000	-0.000000	0.427280	0.457800	-0.503580	0.009033	0.980344	-0.078735	-1.000000	-1.000000	-1.000000	-1.000000	-1.000000	-1.000000	-1.000000	146.344828	0.000000	-1.000000	-1.000000	203580.000000	1772311065.029062
-16148.115000	-9891.225000	-16178.760000	-12707.820000	0.000000	0.000000	0.000000	0.000000	0.794384	-19.831648	0.884361	1.626642	-0.000000	-0.000000	-0.000000	-0.000000	0.427280	0.457800	-0.503580	0.009033	0.980344	-0.078735	-1.000000	-1.000000	-1.000000	-1.000000	-1.000000	-1.000000	-1.000000	146.344828	0.000000	-1.000000	-1.000000	203581.000000	1772311065.029065
-16143.615000	-9884.430000	-16171.695000	-12700.620000	0.000000	0.000000	0.000000	0.000000	6.546946	-2.259950	8.244972	8.462101	-0.000000	-0.000000	-0.000000	-0.000000	0.427280	0.457800	-0.503580	0.009033	0.980344	-0.078735	-1.000000	-1.000000	-1.000000	-1.000000	-1.000000	-1.000000	-1.000000	146.344828	0.000000	-1.000000	-1.000000	203582.000000	1772311065.030984
-16129.305000	-9890.370000	-16160.805000	-12691.845000	0.000000	0.000000	0.000000	0.000000	10.534761	13.470815	13.145817	12.558301	-0.000000	-0.000000	-0.000000	-0.000000	0.427280	0.457800	-0.503580	0.009033	0.980344	-0.078735	-1.000000	-1.000000	-1.000000	-1.000000	-1.000000	-1.000000	-1.000000	146.344828	0.000000	-1.000000	-1.000000	203583.000000	1772311065.030986
-16115.040000	-9898.380000	-16150.185000	-12681.540000	0.000000	0.000000	0.000000	0.000000	12.048085	19.169632	14.204634	12.782073	-0.000000	-0.000000	-0.000000	-0.000000	0.427280	0.457800	-0.503580	0.009033	0.980344	-0.078735	-1.000000	-1.000000	-1.000000	-1.000000	-1.000000	-1.000000	-1.000000	146.344828	0.000000	-1.000000	-1.000000	203584.000000	1772311065.035001
-16146.720000	-9908.370000	-16185.465000	-12722.265000	0.000000	0.000000	0.000000	0.000000	10.045817	13.410555	10.380455	8.439505	-0.000000	-0.000000	-0.000000	-0.000000	0.427280	0.457800	-0.503580	0.009033	0.980344	-0.078735	-1.000000	-1.000000	-1.000000	-1.000000	-1.000000	-1.000000	-1.000000	146.344828	0.000000	-1.000000	-1.000000	203585.000000	1772311065.035004
-16133.220000	-9877.995000	-16170.480000	-12701.880000	0.000000	0.000000	0.000000	0.000000	3.481409	2.256090	1.627912	-0.273710	-0.000000	-0.000000	-0.000000	-0.000000	0.427280	0.457800	-0.503580	0.009033	0.980344	-0.078735	-1.000000	-1.000000	-1.000000	-1.000000	-1.000000	-1.000000	-1.000000	146.344828	0.000000	-1.000000	-1.000000	203586.000000	1772311065.045757
-16141.995000	-9843.345000	-16178.490000	-12708.630000	0.000000	0.000000	0.000000	0.000000	-5.588479	-4.892083	-8.550633	-9.584055	-0.000000	-0.000000	-0.000000	-0.000000	0.427280	0.457800	-0.503580	0.009033	0.980344	-0.078735	-1.000000	-1.000000	-1.000000	-1.000000	-1.000000	-1.000000	-1.000000	146.344828	0.000000	-1.000000	-1.000000	203587.000000	1772311065.045760
-16146.720000	-9845.370000	-16182.810000	-12714.165000	0.000000	0.000000	0.000000	0.000000	-12.474566	-3.111421	-14.749539	-14.204350	-0.000000	-0.000000	-0.000000	-0.000000	0.427280	0.457800	-0.503580	0.009033	0.980344	-0.078735	-1.000000	-1.000000	-1.000000	-1.000000	-1.000000	-1.000000	-1.000000	146.344828	0.000000	-1.000000	-1.000000	203588.000000	1772311065.046192
-16150.590000	-9840.600000	-16184.070000	-12713.670000	0.000000	0.000000	0.000000	0.000000	-14.259429	3.403580	-14.581635	-12.604984	-0.000000	-0.000000	-0.000000	-0.000000	0.427280	0.457800	-0.503580	0.009033	0.980344	-0.078735	-1.000000	-1.000000	-1.000000	-1.000000	-1.000000	-1.000000	-1.000000	146.344828	0.000000	-1.000000	-1.000000	203589.000000	1772311065.046194
-16138.530000	-9843.795000	-16169.895000	-12699.090000	0.000000	0.000000	0.000000	0.000000	-10.779462	6.845894	-9.024520	-6.561715	-0.000000	-0.000000	-0.000000	-0.000000	0.137340	0.259420	-0.747740	0.009216	0.980100	-0.077209	-1.000000	-1.000000	-1.000000	-1.000000	-1.000000	-1.000000	-1.000000	146.344828	0.000000	-1.000000	-1.000000	203590.000000	1772311065.046999
-16123.005000	-9825.255000	-16158.375000	-12689.865000	0.000000	0.000000	0.000000	0.000000	-3.248439	4.192912	-0.353202	1.516330	-0.000000	-0.000000	-0.000000	-0.000000	0.137340	0.259420	-0.747740	0.009216	0.980100	-0.077209	-1.000000	-1.000000	-1.000000	-1.000000	-1.000000	-1.000000	-1.000000	146.344828	0.000000	-1.000000	-1.000000	203591.000000	1772311065.047002
-16118.550000	-9821.295000	-16153.920000	-12684.150000	0.000000	0.000000	0.000000	0.000000	5.742791	-1.471811	8.210674	8.755477	-0.000000	-0.000000	-0.000000	-0.000000	0.137340	0.259420	-0.747740	0.009216	0.980100	-0.077209	-1.000000	-1.000000	-1.000000	-1.000000	-1.000000	-1.000000	-1.000000	146.344828	0.000000	-1.000000	-1.000000	203592.000000	1772311065.052358
-16125.165000	-9841.050000	-16163.370000	-12690.450000	0.000000	0.000000	0.000000	0.000000	12.020670	-6.198078	12.734532	11.952348	-0.000000	-0.000000	-0.000000	-0.000000	0.137340	0.259420	-0.747740	0.009216	0.980100	-0.077209	-1.000000	-1.000000	-1.000000	-1.000000	-1.000000	-1.000000	-1.000000	146.344828	0.000000	-1.000000	-1.000000	203593.000000	1772311065.052361
-16118.055000	-9882.810000	-16156.845000	-12683.025000	0.000000	0.000000	0.000000	0.000000	12.174722	-9.707862	10.839276	9.491237	-0.000000	-0.000000	-0.000000	-0.000000	0.137340	0.259420	-0.747740	0.009216	0.980100	-0.077209	-1.000000	-1.000000	-1.000000	-1.000000	-1.000000	-1.000000	-1.000000	146.344828	0.000000	-1.000000	-1.000000	203594.000000	1772311065.054929
-16108.515000	-9909.450000	-16149.825000	-12677.805000	0.000000	0.000000	0.000000	0.000000	6.860927	-13.500699	4.232556	3.154741	-0.000000	-0.000000	-0.000000	-0.000000	0.137340	0.259420	-0.747740	0.009216	0.980100	-0.077209	-1.000000	-1.000000	-1.000000	-1.000000	-1.000000	-1.000000	-1.000000	146.344828	0.000000	-1.000000	-1.000000	203595.000000	1772311065.054932
-16103.880000	-9920.430000	-16141.635000	-12668.715000	0.000000	0.000000	0.000000	0.000000	0.095447	-16.074918	-2.523187	-3.097981	-0.000000	-0.000000	-0.000000	-0.000000	0.137340	0.259420	-0.747740	0.009216	0.980100	-0.077209	-1.000000	-1.000000	-1.000000	-1.000000	-1.000000	-1.000000	-1.000000	146.344828	0.000000	-1.000000	-1.000000	203596.000000	1772311065.058918
-16138.260000	-9934.695000	-16176.015000	-12700.710000	0.000000	0.000000	0.000000	0.000000	-5.336710	-13.295265	-6.675294	-6.944737	-0.000000	-0.000000	-0.000000	-0.000000	0.137340	0.259420	-0.747740	0.009216	0.980100	-0.077209	-1.000000	-1.000000	-1.000000	-1.000000	-1.000000	-1.000000	-1.000000	146.344828	0.000000	-1.000000	-1.000000	203597.000000	1772311065.058921
-16134.255000	-9964.215000	-16167.510000	-12693.735000	0.000000	0.000000	0.000000	0.000000	-9.532959	-3.972604	-8.905411	-9.015352	-0.000000	-0.000000	-0.000000	-0.000000	0.137340	0.259420	-0.747740	0.009216	0.980100	-0.077209	-1.000000	-1.000000	-1.000000	-1.000000	-1.000000	-1.000000	-1.000000	146.344828	0.000000	-1.000000	-1.000000	203598.000000	1772311065.063169
-16130.115000	-9967.635000	-16164.045000	-12691.530000	0.000000	0.000000	0.000000	0.000000	-11.763383	7.983635	-9.405140	-9.463806	-0.000000	-0.000000	-0.000000	-0.000000	0.137340	0.259420	-0.747740	0.009216	0.980100	-0.077209	-1.000000	-1.000000	-1.000000	-1.000000	-1.000000	-1.000000	-1.000000	146.344828	0.000000	-1.000000	-1.000000	203599.000000	1772311065.063172
-16134.705000	-9962.460000	-16169.895000	-12695.130000	0.000000	0.000000	0.000000	0.000000	-9.714755	17.933269	-6.745929	-6.903237	-0.000000	-0.000000	-0.000000	-0.000000	1.190280	0.137340	-1.052940	0.008118	0.978452	-0.074219	-1.000000	-1.000000	-1.000000	-1.000000	-1.000000	-1.000000	-1.000000	146.344828	0.000000	-1.000000	-1.000000	203600.000000	1772311065.068846
-16133.040000	-9962.235000	-16172.640000	-12695.490000	0.000000	0.000000	0.000000	0.000000	-3.458628	23.695282	-1.449088	-1.619885	-0.000000	-0.000000	-0.000000	-0.000000	1.190280	0.137340	-1.052940	0.008118	0.978452	-0.074219	-1.000000	-1.000000	-1.000000	-1.000000	-1.000000	-1.000000	-1.000000	146.344828	0.000000	-1.000000	-1.000000	203601.000000	1772311065.068848
-16133.580000	-9961.200000	-16175.205000	-12698.280000	0.000000	0.000000	0.000000	0.000000	3.932720	24.286948	3.778182	3.923943	-0.000000	-0.000000	-0.000000	-0.000000	1.190280	0.137340	-1.052940	0.008118	0.978452	-0.074219	-1.000000	-1.000000	-1.000000	-1.000000	-1.000000	-1.000000	-1.000000	146.344828	0.000000	-1.000000	-1.000000	203602.000000	1772311065.071956
-16138.530000	-10003.770000	-16176.690000	-12700.755000	0.000000	0.000000	0.000000	0.000000	9.079411	18.507820	6.785306	7.341503	-0.000000	-0.000000	-0.000000	-0.000000	1.190280	0.137340	-1.052940	0.008118	0.978452	-0.074219	-1.000000	-1.000000	-1.000000	-1.000000	-1.000000	-1.000000	-1.000000	146.344828	0.000000	-1.000000	-1.000000	203603.000000	1772311065.071958
-16129.485000	-10020.690000	-16166.790000	-12690.270000	0.000000	0.000000	0.000000	0.000000	10.288432	6.021636	7.281643	7.894017	-0.000000	-0.000000	-0.000000	-0.000000	1.190280	0.137340	-1.052940	0.008118	0.978452	-0.074219	-1.000000	-1.000000	-1.000000	-1.000000	-1.000000	-1.000000	-1.000000	146.344828	0.000000	-1.000000	-1.000000	203604.000000	1772311065.076453
-16109.730000	-10032.255000	-16147.350000	-12658.815000	0.000000	0.000000	0.000000	0.000000	8.585550	-9.434458	6.669080	7.124265	-0.000000	-0.000000	-0.000000	-0.000000	1.190280	0.137340	-1.052940	0.008118	0.978452	-0.074219	-1.000000	-1.000000	-1.000000	-1.000000	-1.000000	-1.000000	-1.000000	146.344828	0.000000	-1.000000	-1.000000	203605.000000	1772311065.076455
-16072.830000	-10037.340000	-16108.155000	-12618.225000	0.000000	0.000000	0.000000	0.000000	6.906437	-20.338716	6.963686	7.714931	-0.000000	-0.000000	-0.000000	-0.000000	1.190280	0.137340	-1.052940	0.008118	0.978452	-0.074219	-1.000000	-1.000000	-1.000000	-1.000000	-1.000000	-1.000000	-1.000000	146.344828	0.000000	-1.000000	-1.000000	203606.000000	1772311065.079028
-16046.235000	-10042.335000	-16084.665000	-12622.815000	0.000000	0.000000	0.000000	0.000000	7.260400	-21.245781	8.904615	9.817028	-0.000000	-0.000000	-0.000000	-0.000000	1.190280	0.137340	-1.052940	0.008118	0.978452	-0.074219	-1.000000	-1.000000	-1.000000	-1.000000	-1.000000	-1.000000	-1.000000	146.344828	0.000000	-1.000000	-1.000000	203607.000000	1772311065.079031
-16075.935000	-10058.580000	-16119.270000	-12671.145000	0.000000	0.000000	0.000000	0.000000	7.505748	-13.095944	9.455718	8.321515	-0.000000	-0.000000	-0.000000	-0.000000	1.190280	0.137340	-1.052940	0.008118	0.978452	-0.074219	-1.000000	-1.000000	-1.000000	-1.000000	-1.000000	-1.000000	-1.000000	146.344828	0.000000	-1.000000	-1.000000	203608.000000	1772311065.082992
-16124.940000	-10078.740000	-16169.040000	-12702.195000	0.000000	0.000000	0.000000	0.000000	1.702882	-1.970120	2.551240	-2.414083	-0.000000	-0.000000	-0.000000	-0.000000	1.190280	0.137340	-1.052940	0.008118	0.978452	-0.074219	-1.000000	-1.000000	-1.000000	-1.000000	-1.000000	-1.000000	-1.000000	146.344828	0.000000	-1.000000	-1.000000	203609.000000	1772311065.082995
-16108.335000	-10100.115000	-16150.455000	-12671.730000	0.000000	0.000000	0.000000	0.000000	-11.942831	5.682185	-12.667602	-18.793188	-0.000000	-0.000000	-0.000000	-0.000000	2.548420	0.091560	-1.068200	0.007568	0.978635	-0.072510	-1.000000	-1.000000	-1.000000	-1.000000	-1.000000	-1.000000	-1.000000	146.344828	0.000000	-1.000000	-1.000000	203610.000000	1772311065.087146
-16136.280000	-10115.370000	-16176.240000	-12691.980000	0.000000	0.000000	0.000000	0.000000	-25.424860	7.310975	-26.843178	-28.515574	-0.000000	-0.000000	-0.000000	-0.000000	2.548420	0.091560	-1.068200	0.007568	0.978635	-0.072510	-1.000000	-1.000000	-1.000000	-1.000000	-1.000000	-1.000000	-1.000000	146.344828	0.000000	-1.000000	-1.000000	203611.000000	1772311065.087149
-16123.860000	-10134.270000	-16162.920000	-12687.165000	0.000000	0.000000	0.000000	0.000000	-28.624782	4.708121	-29.331645	-23.905445	-0.000000	-0.000000	-0.000000	-0.000000	2.548420	0.091560	-1.068200	0.007568	0.978635	-0.072510	-1.000000	-1.000000	-1.000000	-1.000000	-1.000000	-1.000000	-1.000000	146.344828	0.000000	-1.000000	-1.000000	203612.000000	1772311065.091190
-16123.995000	-10150.920000	-16164.315000	-12689.370000	0.000000	0.000000	0.000000	0.000000	-18.626911	1.245562	-17.926725	-8.503667	-0.000000	-0.000000	-0.000000	-0.000000	2.548420	0.091560	-1.068200	0.007568	0.978635	-0.072510	-1.000000	-1.000000	-1.000000	-1.000000	-1.000000	-1.000000	-1.000000	146.344828	0.000000	-1.000000	-1.000000	203613.000000	1772311065.091193
-16127.640000	-10152.810000	-16165.980000	-12693.195000	0.000000	0.000000	0.000000	0.000000	-0.499824	-0.493101	1.160146	8.726503	-0.000000	-0.000000	-0.000000	-0.000000	2.548420	0.091560	-1.068200	0.007568	0.978635	-0.072510	-1.000000	-1.000000	-1.000000	-1.000000	-1.000000	-1.000000	-1.000000	146.344828	0.000000	-1.000000	-1.000000	203614.000000	1772311065.095159
-16128.855000	-10160.775000	-16164.585000	-12691.935000	0.000000	0.000000	0.000000	0.000000	16.565556	0.598419	18.241307	20.035263	-0.000000	-0.000000	-0.000000	-0.000000	2.548420	0.091560	-1.068200	0.007568	0.978635	-0.072510	-1.000000	-1.000000	-1.000000	-1.000000	-1.000000	-1.000000	-1.000000	146.344828	0.000000	-1.000000	-1.000000	203615.000000	1772311065.095162
-16097.040000	-10160.865000	-16134.705000	-12658.590000	0.000000	0.000000	0.000000	0.000000	25.733705	3.761617	26.733205	22.853619	-0.000000	-0.000000	-0.000000	-0.000000	2.548420	0.091560	-1.068200	0.007568	0.978635	-0.072510	-1.000000	-1.000000	-1.000000	-1.000000	-1.000000	-1.000000	-1.000000	146.344828	0.000000	-1.000000	-1.000000	203616.000000	1772311065.104251
-16106.805000	-10158.435000	-16144.605000	-12663.540000	0.000000	0.000000	0.000000	0.000000	25.978460	6.940935	25.958246	19.571515	-0.000000	-0.000000	-0.000000	-0.000000	2.548420	0.091560	-1.068200	0.007568	0.978635	-0.072510	-1.000000	-1.000000	-1.000000	-1.000000	-1.000000	-1.000000	-1.000000	146.344828	0.000000	-1.000000	-1.000000	203617.000000	1772311065.104254
-16122.465000	-10172.340000	-16162.560000	-12680.595000	0.000000	0.000000	0.000000	0.000000	18.659584	8.049444	17.535518	12.409307	-0.000000	-0.000000	-0.000000	-0.000000	2.548420	0.091560	-1.068200	0.007568	0.978635	-0.072510	-1.000000	-1.000000	-1.000000	-1.000000	-1.000000	-1.000000	-1.000000	146.344828	0.000000	-1.000000	-1.000000	203618.000000	1772311065.104258
-16109.550000	-10152.720000	-16151.805000	-12673.170000	0.000000	0.000000	0.000000	0.000000	5.897061	6.145107	3.893964	2.003104	-0.000000	-0.000000	-0.000000	-0.000000	2.548420	0.091560	-1.068200	0.007568	0.978635	-0.072510	-1.000000	-1.000000	-1.000000	-1.000000	-1.000000	-1.000000	-1.000000	146.344828	0.000000	-1.000000	-1.000000	203619.000000	1772311065.104260
-16099.515000	-10179.675000	-16142.850000	-12666.645000	0.000000	0.000000	0.000000	0.000000	-7.051626	2.029779	-9.407981	-8.663602	-0.000000	-0.000000	-0.000000	-0.000000	2.990960	0.167860	-0.991900	0.007019	0.979429	-0.072204	-1.000000	-1.000000	-1.000000	-1.000000	-1.000000	-1.000000	-1.000000	146.344828	0.000000	-1.000000	-1.000000	203620.000000	1772311065.110236
-16102.800000	-10203.975000	-16142.895000	-12664.080000	0.000000	0.000000	0.000000	0.000000	-14.340981	-3.558191	-16.254986	-14.768217	-0.000000	-0.000000	-0.000000	-0.000000	2.990960	0.167860	-0.991900	0.007019	0.979429	-0.072204	-1.000000	-1.000000	-1.000000	-1.000000	-1.000000	-1.000000	-1.000000	146.344828	0.000000	-1.000000	-1.000000	203621.000000	1772311065.110240
-16111.800000	-10211.670000	-16148.655000	-12669.795000	0.000000	0.000000	0.000000	0.000000	-14.829293	-10.041085	-15.369034	-14.445032	-0.000000	-0.000000	-0.000000	-0.000000	2.990960	0.167860	-0.991900	0.007019	0.979429	-0.072204	-1.000000	-1.000000	-1.000000	-1.000000	-1.000000	-1.000000	-1.000000	146.344828	0.000000	-1.000000	-1.000000	203622.000000	1772311065.111033
-16114.680000	-10208.790000	-16148.205000	-12672.630000	0.000000	0.000000	0.000000	0.000000	-11.523450	-14.356798	-10.095766	-9.903993	-0.000000	-0.000000	-0.000000	-0.000000	2.990960	0.167860	-0.991900	0.007019	0.979429	-0.072204	-1.000000	-1.000000	-1.000000	-1.000000	-1.000000	-1.000000	-1.000000	146.344828	0.000000	-1.000000	-1.000000	203623.000000	1772311065.111037
-16120.440000	-10215.270000	-16154.235000	-12677.715000	0.000000	0.000000	0.000000	0.000000	-7.379974	-12.780444	-4.312889	-4.536368	-0.000000	-0.000000	-0.000000	-0.000000	2.990960	0.167860	-0.991900	0.007019	0.979429	-0.072204	-1.000000	-1.000000	-1.000000	-1.000000	-1.000000	-1.000000	-1.000000	146.344828	0.000000	-1.000000	-1.000000	203624.000000	1772311065.115157
-16117.695000	-10221.030000	-16151.895000	-12674.520000	0.000000	0.000000	0.000000	0.000000	-3.430488	-5.514526	-0.055440	-0.306629	-0.000000	-0.000000	-0.000000	-0.000000	2.990960	0.167860	-0.991900	0.007019	0.979429	-0.072204	-1.000000	-1.000000	-1.000000	-1.000000	-1.000000	-1.000000	-1.000000	146.344828	0.000000	-1.000000	-1.000000	203625.000000	1772311065.115161
-16107.300000	-10200.735000	-16145.235000	-12667.950000	0.000000	0.000000	0.000000	0.000000	0.616333	3.730388	2.606714	2.722338	-0.000000	-0.000000	-0.000000	-0.000000	2.990960	0.167860	-0.991900	0.007019	0.979429	-0.072204	-1.000000	-1.000000	-1.000000	-1.000000	-1.000000	-1.000000	-1.000000	146.344828	0.000000	-1.000000	-1.000000	203626.000000	1772311065.119152
-16099.470000	-10180.125000	-16142.490000	-12667.680000	0.000000	0.000000	0.000000	0.000000	5.068082	11.762528	4.501350	5.108345	-0.000000	-0.000000	-0.000000	-0.000000	2.990960	0.167860	-0.991900	0.007019	0.979429	-0.072204	-1.000000	-1.000000	-1.000000	-1.000000	-1.000000	-1.000000	-1.000000	146.344828	0.000000	-1.000000	-1.000000	203627.000000	1772311065.119155
-16108.560000	-10187.595000	-16148.250000	-12670.065000	0.000000	0.000000	0.000000	0.000000	8.741286	16.439589	5.671814	6.511982	-0.000000	-0.000000	-0.000000	-0.000000	2.990960	0.167860	-0.991900	0.007019	0.979429	-0.072204	-1.000000	-1.000000	-1.000000	-1.000000	-1.000000	-1.000000	-1.000000	146.344828	0.000000	-1.000000	-1.000000	203628.000000	1772311065.123131
-16116.705000	-10190.430000	-16157.700000	-12677.535000	0.000000	0.000000	0.000000	0.000000	9.110882	15.150856	5.033123	5.867322	-0.000000	-0.000000	-0.000000	-0.000000	2.990960	0.167860	-0.991900	0.007019	0.979429	-0.072204	-1.000000	-1.000000	-1.000000	-1.000000	-1.000000	-1.000000	-1.000000	146.344828	0.000000	-1.000000	-1.000000	203629.000000	1772311065.123134
-16117.470000	-10192.635000	-16158.240000	-12680.685000	0.000000	0.000000	0.000000	0.000000	5.134143	7.091136	2.115333	2.889933	-0.000000	-0.000000	-0.000000	-0.000000	3.982860	0.015260	-0.885080	0.006531	0.978879	-0.072326	-1.000000	-1.000000	-1.000000	-1.000000	-1.000000	-1.000000	-1.000000	146.344828	0.000000	-1.000000	-1.000000	203630.000000	1772311065.129968
-16106.175000	-10195.470000	-16143.435000	-12670.020000	0.000000	0.000000	0.000000	0.000000	-0.668118	-4.303286	-1.283081	-0.853669	-0.000000	-0.000000	-0.000000	-0.000000	3.982860	0.015260	-0.885080	0.006531	0.978879	-0.072326	-1.000000	-1.000000	-1.000000	-1.000000	-1.000000	-1.000000	-1.000000	146.344828	0.000000	-1.000000	-1.000000	203631.000000	1772311065.129971
-16075.980000	-10205.235000	-16111.395000	-12639.105000	0.000000	0.000000	0.000000	0.000000	-3.767520	-13.710370	-1.835600	-2.307370	-0.000000	-0.000000	-0.000000	-0.000000	3.982860	0.015260	-0.885080	0.006531	0.978879	-0.072326	-1.000000	-1.000000	-1.000000	-1.000000	-1.000000	-1.000000	-1.000000	146.344828	0.000000	-1.000000	-1.000000	203632.000000	1772311065.133119
-16072.200000	-10229.940000	-16109.415000	-12635.145000	0.000000	0.000000	0.000000	0.000000	-1.711874	-17.979496	1.829037	0.350558	-0.000000	-0.000000	-0.000000	-0.000000	3.982860	0.015260	-0.885080	0.006531	0.978879	-0.072326	-1.000000	-1.000000	-1.000000	-1.000000	-1.000000	-1.000000	-1.000000	146.344828	0.000000	-1.000000	-1.000000	203633.000000	1772311065.133122
-16071.525000	-10284.300000	-16109.865000	-12632.580000	0.000000	0.000000	0.000000	0.000000	2.899189	-17.948095	6.375532	4.713922	-0.000000	-0.000000	-0.000000	-0.000000	3.982860	0.015260	-0.885080	0.006531	0.978879	-0.072326	-1.000000	-1.000000	-1.000000	-1.000000	-1.000000	-1.000000	-1.000000	146.344828	0.000000	-1.000000	-1.000000	203634.000000	1772311065.136533
-16104.780000	-10298.610000	-16142.805000	-12664.665000	0.000000	0.000000	0.000000	0.000000	4.292019	-16.072536	6.130301	5.491976	-0.000000	-0.000000	-0.000000	-0.000000	3.982860	0.015260	-0.885080	0.006531	0.978879	-0.072326	-1.000000	-1.000000	-1.000000	-1.000000	-1.000000	-1.000000	-1.000000	146.344828	0.000000	-1.000000	-1.000000	203635.000000	1772311065.136536
-16100.955000	-10315.395000	-16140.420000	-12662.055000	0.000000	0.000000	0.000000	0.000000	-0.720086	-12.084954	-1.105278	-0.177730	-0.000000	-0.000000	-0.000000	-0.000000	3.982860	0.015260	-0.885080	0.006531	0.978879	-0.072326	-1.000000	-1.000000	-1.000000	-1.000000	-1.000000	-1.000000	-1.000000	146.344828	0.000000	-1.000000	-1.000000	203636.000000	1772311065.141883
-16103.160000	-10311.210000	-16140.240000	-12663.180000	0.000000	0.000000	0.000000	0.000000	-8.783517	-3.587857	-10.811674	-8.899549	-0.000000	-0.000000	-0.000000	-0.000000	3.982860	0.015260	-0.885080	0.006531	0.978879	-0.072326	-1.000000	-1.000000	-1.000000	-1.000000	-1.000000	-1.000000	-1.000000	146.344828	0.000000	-1.000000	-1.000000	203637.000000	1772311065.141886
-16122.240000	-10292.940000	-16157.115000	-12679.200000	0.000000	0.000000	0.000000	0.000000	-13.509122	9.639532	-15.883777	-14.184615	-0.000000	-0.000000	-0.000000	-0.000000	3.982860	0.015260	-0.885080	0.006531	0.978879	-0.072326	-1.000000	-1.000000	-1.000000	-1.000000	-1.000000	-1.000000	-1.000000	146.344828	0.000000	-1.000000	-1.000000	203638.000000	1772311065.144684
-16132.230000	-10278.720000	-16164.315000	-12686.670000	0.000000	0.000000	0.000000	0.000000	-12.217611	24.013848	-13.635281	-13.053248	-0.000000	-0.000000	-0.000000	-0.000000	3.982860	0.015260	-0.885080	0.006531	0.978879	-0.072326	-1.000000	-1.000000	-1.000000	-1.000000	-1.000000	-1.000000	-1.000000	146.344828	0.000000	-1.000000	-1.000000	203639.000000	1772311065.144686
-16132.095000	-10263.825000	-16160.715000	-12685.860000	0.000000	0.000000	0.000000	0.000000	-6.415682	33.532197	-6.225596	-6.934154	-0.000000	-0.000000	-0.000000	-0.000000	4.059160	0.228900	-0.747740	0.006592	0.979856	-0.073730	-1.000000	-1.000000	-1.000000	-1.000000	-1.000000	-1.000000	-1.000000	146.344828	0.000000	-1.000000	-1.000000	203640.000000	1772311065.148578
-16121.745000	-10267.245000	-16156.170000	-12687.615000	0.000000	0.000000	0.000000	0.000000	1.698689	32.871591	3.121065	1.379656	-0.000000	-0.000000	-0.000000	-0.000000	4.059160	0.228900	-0.747740	0.006592	0.979856	-0.073730	-1.000000	-1.000000	-1.000000	-1.000000	-1.000000	-1.000000	-1.000000	146.344828	0.000000	-1.000000	-1.000000	203641.000000	1772311065.148581
-16110.405000	-10275.075000	-16150.005000	-12682.080000	0.000000	0.000000	0.000000	0.000000	10.207377	20.587880	11.480586	9.077936	-0.000000	-0.000000	-0.000000	-0.000000	4.059160	0.228900	-0.747740	0.006592	0.979856	-0.073730	-1.000000	-1.000000	-1.000000	-1.000000	-1.000000	-1.000000	-1.000000	146.344828	0.000000	-1.000000	-1.000000	203642.000000	1772311065.151336
-16103.430000	-10259.595000	-16142.265000	-12670.425000	0.000000	0.000000	0.000000	0.000000	16.660485	0.951459	16.315117	14.004548	-0.000000	-0.000000	-0.000000	-0.000000	4.059160	0.228900	-0.747740	0.006592	0.979856	-0.073730	-1.000000	-1.000000	-1.000000	-1.000000	-1.000000	-1.000000	-1.000000	146.344828	0.000000	-1.000000	-1.000000	203643.000000	1772311065.151339
-16080.975000	-10241.955000	-16119.360000	-12645.945000	0.000000	0.000000	0.000000	0.000000	18.657566	-17.093647	16.541452	15.570571	-0.000000	-0.000000	-0.000000	-0.000000	4.059160	0.228900	-0.747740	0.006592	0.979856	-0.073730	-1.000000	-1.000000	-1.000000	-1.000000	-1.000000	-1.000000	-1.000000	146.344828	0.000000	-1.000000	-1.000000	203644.000000	1772311065.155569
-16133.940000	-10205.325000	-16171.470000	-12687.570000	0.000000	0.000000	0.000000	0.000000	14.456490	-25.146699	11.940536	13.386072	-0.000000	-0.000000	-0.000000	-0.000000	4.059160	0.228900	-0.747740	0.006592	0.979856	-0.073730	-1.000000	-1.000000	-1.000000	-1.000000	-1.000000	-1.000000	-1.000000	146.344828	0.000000	-1.000000	-1.000000	203645.000000	1772311065.155572
-16109.145000	-10206.855000	-16146.360000	-12661.470000	0.000000	0.000000	0.000000	0.000000	3.717727	-21.291148	2.471686	6.444654	-0.000000	-0.000000	-0.000000	-0.000000	4.059160	0.228900	-0.747740	0.006592	0.979856	-0.073730	-1.000000	-1.000000	-1.000000	-1.000000	-1.000000	-1.000000	-1.000000	146.344828	0.000000	-1.000000	-1.000000	203646.000000	1772311065.159234
-16099.155000	-10229.985000	-16135.740000	-12663.315000	0.000000	0.000000	0.000000	0.000000	-8.888075	-11.838376	-8.108576	-3.150165	-0.000000	-0.000000	-0.000000	-0.000000	4.059160	0.228900	-0.747740	0.006592	0.979856	-0.073730	-1.000000	-1.000000	-1.000000	-1.000000	-1.000000	-1.000000	-1.000000	146.344828	0.000000	-1.000000	-1.000000	203647.000000	1772311065.159237
-16130.070000	-10254.060000	-16163.280000	-12693.330000	0.000000	0.000000	0.000000	0.000000	-16.227086	-6.015141	-13.811519	-10.877853	-0.000000	-0.000000	-0.000000	-0.000000	4.059160	0.228900	-0.747740	0.006592	0.979856	-0.073730	-1.000000	-1.000000	-1.000000	-1.000000	-1.000000	-1.000000	-1.000000	146.344828	0.000000	-1.000000	-1.000000	203648.000000	1772311065.163227
-16126.290000	-10251.765000	-16161.165000	-12685.005000	0.000000	0.000000	0.000000	0.000000	-16.564996	-7.082972	-13.559184	-14.802606	-0.000000	-0.000000	-0.000000	-0.000000	4.059160	0.228900	-0.747740	0.006592	0.979856	-0.073730	-1.000000	-1.000000	-1.000000	-1.000000	-1.000000	-1.000000	-1.000000	146.344828	0.000000	-1.000000	-1.000000	203649.000000	1772311065.163230
-16117.920000	-10244.655000	-16153.065000	-12676.905000	0.000000	0.000000	0.000000	0.000000	-12.119968	-9.848243	-9.734280	-14.240537	-0.000000	-0.000000	-0.000000	-0.000000	2.594200	-0.015260	-0.915600	0.006836	0.981077	-0.076416	-1.000000	-1.000000	-1.000000	-1.000000	-1.000000	-1.000000	-1.000000	146.344828	0.000000	-1.000000	-1.000000	203650.000000	1772311065.170440
-16114.860000	-10229.580000	-16151.490000	-12675.735000	0.000000	0.000000	0.000000	0.000000	-4.501241	-7.302536	-3.685511	-8.471173	-0.000000	-0.000000	-0.000000	-0.000000	2.594200	-0.015260	-0.915600	0.006836	0.981077	-0.076416	-1.000000	-1.000000	-1.000000	-1.000000	-1.000000	-1.000000	-1.000000	146.344828	0.000000	-1.000000	-1.000000	203651.000000	1772311065.170443
-16110.090000	-10232.415000	-16150.455000	-12675.690000	0.000000	0.000000	0.000000	0.000000	4.122565	1.880983	3.056908	0.384659	-0.000000	-0.000000	-0.000000	-0.000000	2.594200	-0.015260	-0.915600	0.006836	0.981077	-0.076416	-1.000000	-1.000000	-1.000000	-1.000000	-1.000000	-1.000000	-1.000000	146.344828	0.000000	-1.000000	-1.000000	203652.000000	1772311065.171283
-16115.040000	-10235.025000	-16157.835000	-12684.780000	0.000000	0.000000	0.000000	0.000000	10.362464	12.398657	7.787692	7.732681	-0.000000	-0.000000	-0.000000	-0.000000	2.594200	-0.015260	-0.915600	0.006836	0.981077	-0.076416	-1.000000	-1.000000	-1.000000	-1.000000	-1.000000	-1.000000	-1.000000	146.344828	0.000000	-1.000000	-1.000000	203653.000000	1772311065.171285
-16120.080000	-10202.220000	-16158.960000	-12686.355000	0.000000	0.000000	0.000000	0.000000	11.561701	18.245020	8.467578	10.081582	-0.000000	-0.000000	-0.000000	-0.000000	2.594200	-0.015260	-0.915600	0.006836	0.981077	-0.076416	-1.000000	-1.000000	-1.000000	-1.000000	-1.000000	-1.000000	-1.000000	146.344828	0.000000	-1.000000	-1.000000	203654.000000	1772311065.175387
-16131.690000	-10194.615000	-16166.790000	-12689.325000	0.000000	0.000000	0.000000	0.000000	7.461722	18.128118	5.339400	7.412513	-0.000000	-0.000000	-0.000000	-0.000000	2.594200	-0.015260	-0.915600	0.006836	0.981077	-0.076416	-1.000000	-1.000000	-1.000000	-1.000000	-1.000000	-1.000000	-1.000000	146.344828	0.000000	-1.000000	-1.000000	203655.000000	1772311065.175391
-16127.820000	-10187.235000	-16163.010000	-12682.170000	0.000000	0.000000	0.000000	0.000000	0.565048	13.671474	0.668888	2.661238	-0.000000	-0.000000	-0.000000	-0.000000	2.594200	-0.015260	-0.915600	0.006836	0.981077	-0.076416	-1.000000	-1.000000	-1.000000	-1.000000	-1.000000	-1.000000	-1.000000	146.344828	0.000000	-1.000000	-1.000000	203656.000000	1772311065.182979
-16124.445000	-10170.630000	-16158.555000	-12680.865000	0.000000	0.000000	0.000000	0.000000	-5.026886	6.365961	-2.692859	-0.836143	-0.000000	-0.000000	-0.000000	-0.000000	2.594200	-0.015260	-0.915600	0.006836	0.981077	-0.076416	-1.000000	-1.000000	-1.000000	-1.000000	-1.000000	-1.000000	-1.000000	146.344828	0.000000	-1.000000	-1.000000	203657.000000	1772311065.182982
-16118.730000	-10160.055000	-16155.405000	-12676.365000	0.000000	0.000000	0.000000	0.000000	-6.254925	-1.719005	-3.042212	-1.661194	-0.000000	-0.000000	-0.000000	-0.000000	2.594200	-0.015260	-0.915600	0.006836	0.981077	-0.076416	-1.000000	-1.000000	-1.000000	-1.000000	-1.000000	-1.000000	-1.000000	146.344828	0.000000	-1.000000	-1.000000	203658.000000	1772311065.182986
-16120.170000	-10155.465000	-16159.185000	-12679.740000	0.000000	0.000000	0.000000	0.000000	-3.313845	-8.201793	-1.046194	-0.719661	-0.000000	-0.000000	-0.000000	-0.000000	2.594200	-0.015260	-0.915600	0.006836	0.981077	-0.076416	-1.000000	-1.000000	-1.000000	-1.000000	-1.000000	-1.000000	-1.000000	146.344828	0.000000	-1.000000	-1.000000	203659.000000	1772311065.182988
-16119.270000	-10145.205000	-16160.265000	-12679.965000	0.000000	0.000000	0.000000	0.000000	0.915525	-11.836220	1.015258	0.129094	-0.000000	-0.000000	-0.000000	-0.000000	1.480220	0.061040	-0.915600	0.006897	0.980893	-0.077087	-1.000000	-1.000000	-1.000000	-1.000000	-1.000000	-1.000000	-1.000000	146.620690	0.000000	-1.000000	-1.000000	203660.000000	1772311065.187354
-16113.780000	-10155.690000	-16152.570000	-12669.750000	0.000000	0.000000	0.000000	0.000000	3.597830	-12.652267	1.615195	-0.007328	-0.000000	-0.000000	-0.000000	-0.000000	1.480220	0.061040	-0.915600	0.006897	0.980893	-0.077087	-1.000000	-1.000000	-1.000000	-1.000000	-1.000000	-1.000000	-1.000000	146.620690	0.000000	-1.000000	-1.000000	203661.000000	1772311065.187358
-16119.180000	-10160.640000	-16159.635000	-12676.455000	0.000000	0.000000	0.000000	0.000000	3.748619	-11.675083	0.967189	-0.603348	-0.000000	-0.000000	-0.000000	-0.000000	1.480220	0.061040	-0.915600	0.006897	0.980893	-0.077087	-1.000000	-1.000000	-1.000000	-1.000000	-1.000000	-1.000000	-1.000000	146.620690	0.000000	-1.000000	-1.000000	203662.000000	1772311065.191509
-16114.860000	-10196.595000	-16154.865000	-12672.540000	0.000000	0.000000	0.000000	0.000000	1.879586	-10.395407	-0.181168	-1.144349	-0.000000	-0.000000	-0.000000	-0.000000	1.480220	0.061040	-0.915600	0.006897	0.980893	-0.077087	-1.000000	-1.000000	-1.000000	-1.000000	-1.000000	-1.000000	-1.000000	146.620690	0.000000	-1.000000	-1.000000	203663.000000	1772311065.191512
-16112.655000	-10232.235000	-16143.930000	-12657.420000	0.000000	0.000000	0.000000	0.000000	-0.656631	-10.083838	-1.018188	-1.301915	-0.000000	-0.000000	-0.000000	-0.000000	1.480220	0.061040	-0.915600	0.006897	0.980893	-0.077087	-1.000000	-1.000000	-1.000000	-1.000000	-1.000000	-1.000000	-1.000000	146.620690	0.000000	-1.000000	-1.000000	203664.000000	1772311065.195410
-16117.155000	-10231.110000	-16151.085000	-12674.790000	0.000000	0.000000	0.000000	0.000000	-2.468537	-10.016358	-0.854789	-0.782777	-0.000000	-0.000000	-0.000000	-0.000000	1.480220	0.061040	-0.915600	0.006897	0.980893	-0.077087	-1.000000	-1.000000	-1.000000	-1.000000	-1.000000	-1.000000	-1.000000	146.620690	0.000000	-1.000000	-1.000000	203665.000000	1772311065.195413
-16113.465000	-10194.930000	-16149.960000	-12681.900000	0.000000	0.000000	0.000000	0.000000	-3.087586	-5.857104	-0.255494	-0.649977	-0.000000	-0.000000	-0.000000	-0.000000	1.480220	0.061040	-0.915600	0.006897	0.980893	-0.077087	-1.000000	-1.000000	-1.000000	-1.000000	-1.000000	-1.000000	-1.000000	146.620690	0.000000	-1.000000	-1.000000	203666.000000	1772311065.202094
-16114.185000	-10176.525000	-16150.680000	-12676.365000	0.000000	0.000000	0.000000	0.000000	-2.668768	6.183093	-0.308654	-1.894599	-0.000000	-0.000000	-0.000000	-0.000000	1.480220	0.061040	-0.915600	0.006897	0.980893	-0.077087	-1.000000	-1.000000	-1.000000	-1.000000	-1.000000	-1.000000	-1.000000	146.620690	0.000000	-1.000000	-1.000000	203667.000000	1772311065.202097
-16125.120000	-10145.115000	-16164.045000	-12682.620000	0.000000	0.000000	0.000000	0.000000	-1.721684	22.830162	-1.260251	-3.215114	-0.000000	-0.000000	-0.000000	-0.000000	1.480220	0.061040	-0.915600	0.006897	0.980893	-0.077087	-1.000000	-1.000000	-1.000000	-1.000000	-1.000000	-1.000000	-1.000000	146.620690	0.000000	-1.000000	-1.000000	203668.000000	1772311065.203274
-16119.585000	-10107.540000	-16162.020000	-12680.640000	0.000000	0.000000	0.000000	0.000000	-0.997990	35.338907	-2.687864	-2.893492	-0.000000	-0.000000	-0.000000	-0.000000	1.480220	0.061040	-0.915600	0.006897	0.980893	-0.077087	-1.000000	-1.000000	-1.000000	-1.000000	-1.000000	-1.000000	-1.000000	146.620690	0.000000	-1.000000	-1.000000	203669.000000	1772311065.203277
-16115.400000	-10092.015000	-16158.015000	-12680.370000	0.000000	0.000000	0.000000	0.000000	-0.374308	36.619799	-3.404988	-0.806259	-0.000000	-0.000000	-0.000000	-0.000000	1.526000	0.274680	-0.717220	0.006470	0.981748	-0.076538	-1.000000	-1.000000	-1.000000	-1.000000	-1.000000	-1.000000	-1.000000	146.620690	0.000000	-1.000000	-1.000000	203670.000000	1772311065.207367
-16115.805000	-10112.805000	-16156.440000	-12680.280000	0.000000	0.000000	0.000000	0.000000	0.868411	24.241201	-2.075044	2.009985	-0.000000	-0.000000	-0.000000	-0.000000	1.526000	0.274680	-0.717220	0.006470	0.981748	-0.076538	-1.000000	-1.000000	-1.000000	-1.000000	-1.000000	-1.000000	-1.000000	146.620690	0.000000	-1.000000	-1.000000	203671.000000	1772311065.207370
-16117.290000	-10132.515000	-16154.865000	-12675.465000	0.000000	0.000000	0.000000	0.000000	2.401600	0.534886	1.041649	4.261327	-0.000000	-0.000000	-0.000000	-0.000000	1.526000	0.274680	-0.717220	0.006470	0.981748	-0.076538	-1.000000	-1.000000	-1.000000	-1.000000	-1.000000	-1.000000	-1.000000	146.620690	0.000000	-1.000000	-1.000000	203672.000000	1772311065.211376
-16115.715000	-10149.840000	-16152.570000	-12673.215000	0.000000	0.000000	0.000000	0.000000	3.104758	-26.489840	4.136651	5.161215	-0.000000	-0.000000	-0.000000	-0.000000	1.526000	0.274680	-0.717220	0.006470	0.981748	-0.076538	-1.000000	-1.000000	-1.000000	-1.000000	-1.000000	-1.000000	-1.000000	146.620690	0.000000	-1.000000	-1.000000	203673.000000	1772311065.211379
-16114.815000	-10160.460000	-16150.860000	-12669.750000	0.000000	0.000000	0.000000	0.000000	2.533039	-45.320946	5.529167	4.605244	-0.000000	-0.000000	-0.000000	-0.000000	1.526000	0.274680	-0.717220	0.006470	0.981748	-0.076538	-1.000000	-1.000000	-1.000000	-1.000000	-1.000000	-1.000000	-1.000000	146.620690	0.000000	-1.000000	-1.000000	203674.000000	1772311065.215977
-16110.540000	-10190.790000	-16149.105000	-12665.160000	0.000000	0.000000	0.000000	0.000000	1.239899	-47.878866	4.714266	2.933491	-0.000000	-0.000000	-0.000000	-0.000000	1.526000	0.274680	-0.717220	0.006470	0.981748	-0.076538	-1.000000	-1.000000	-1.000000	-1.000000	-1.000000	-1.000000	-1.000000	146.620690	0.000000	-1.000000	-1.000000	203675.000000	1772311065.215980
-16085.835000	-10231.245000	-16121.385000	-12635.910000	0.000000	0.000000	0.000000	0.000000	0.476440	-35.064368	2.778942	1.247245	-0.000000	-0.000000	-0.000000	-0.000000	1.526000	0.274680	-0.717220	0.006470	0.981748	-0.076538	-1.000000	-1.000000	-1.000000	-1.000000	-1.000000	-1.000000	-1.000000	146.620690	0.000000	-1.000000	-1.000000	203676.000000	1772311065.219370
-16063.560000	-10252.755000	-16103.520000	-12628.215000	0.000000	0.000000	0.000000	0.000000	1.650131	-14.692320	1.909422	0.990113	-0.000000	-0.000000	-0.000000	-0.000000	1.526000	0.274680	-0.717220	0.006470	0.981748	-0.076538	-1.000000	-1.000000	-1.000000	-1.000000	-1.000000	-1.000000	-1.000000	146.620690	0.000000	-1.000000	-1.000000	203677.000000	1772311065.219372
-16088.580000	-10272.195000	-16131.915000	-12666.105000	0.000000	0.000000	0.000000	0.000000	3.877266	5.440202	2.154722	1.019692	-0.000000	-0.000000	-0.000000	-0.000000	1.526000	0.274680	-0.717220	0.006470	0.981748	-0.076538	-1.000000	-1.000000	-1.000000	-1.000000	-1.000000	-1.000000	-1.000000	146.620690	0.000000	-1.000000	-1.000000	203678.000000	1772311065.223331
-16122.465000	-10299.870000	-16164.090000	-12689.235000	0.000000	0.000000	0.000000	0.000000	2.652729	20.770311	-0.348355	-2.642394	-0.000000	-0.000000	-0.000000	-0.000000	1.526000	0.274680	-0.717220	0.006470	0.981748	-0.076538	-1.000000	-1.000000	-1.000000	-1.000000	-1.000000	-1.000000	-1.000000	146.620690	0.000000	-1.000000	-1.000000	203679.000000	1772311065.223333
-16113.870000	-10332.765000	-16151.580000	-12675.780000	0.000000	0.000000	0.000000	0.000000	-4.570844	28.621190	-7.539828	-10.215840	-0.000000	-0.000000	-0.000000	-0.000000	2.258480	3.891300	-0.289940	0.005310	0.979734	-0.074585	-1.000000	-1.000000	-1.000000	-1.000000	-1.000000	-1.000000	-1.000000	146.620690	0.000000	-1.000000	-1.000000	203680.000000	1772311065.227417
-16113.015000	-10344.420000	-16148.790000	-12669.615000	0.000000	0.000000	0.000000	0.000000	-12.815659	28.218135	-14.208802	-15.124370	-0.000000	-0.000000	-0.000000	-0.000000	2.258480	3.891300	-0.289940	0.005310	0.979734	-0.074585	-1.000000	-1.000000	-1.000000	-1.000000	-1.000000	-1.000000	-1.000000	146.620690	0.000000	-1.000000	-1.000000	203681.000000	1772311065.227420
-16099.740000	-10348.830000	-16135.830000	-12655.530000	0.000000	0.000000	0.000000	0.000000	-14.399129	22.189647	-13.464292	-11.329474	-0.000000	-0.000000	-0.000000	-0.000000	2.258480	3.891300	-0.289940	0.005310	0.979734	-0.074585	-1.000000	-1.000000	-1.000000	-1.000000	-1.000000	-1.000000	-1.000000	146.620690	0.000000	-1.000000	-1.000000	203682.000000	1772311065.232761
-16090.965000	-10360.170000	-16125.435000	-12644.640000	0.000000	0.000000	0.000000	0.000000	-7.055703	14.874440	-4.430164	0.029205	-0.000000	-0.000000	-0.000000	-0.000000	2.258480	3.891300	-0.289940	0.005310	0.979734	-0.074585	-1.000000	-1.000000	-1.000000	-1.000000	-1.000000	-1.000000	-1.000000	146.620690	0.000000	-1.000000	-1.000000	203683.000000	1772311065.232764
-16094.610000	-10390.095000	-16130.880000	-12650.265000	0.000000	0.000000	0.000000	0.000000	4.630594	8.257324	7.430079	12.091920	-0.000000	-0.000000	-0.000000	-0.000000	2.258480	3.891300	-0.289940	0.005310	0.979734	-0.074585	-1.000000	-1.000000	-1.000000	-1.000000	-1.000000	-1.000000	-1.000000	146.620690	0.000000	-1.000000	-1.000000	203684.000000	1772311065.236862
-16104.015000	-10389.510000	-16145.370000	-12672.855000	0.000000	0.000000	0.000000	0.000000	13.176216	1.764328	14.638600	17.246531	-0.000000	-0.000000	-0.000000	-0.000000	2.258480	3.891300	-0.289940	0.005310	0.979734	-0.074585	-1.000000	-1.000000	-1.000000	-1.000000	-1.000000	-1.000000	-1.000000	146.620690	0.000000	-1.000000	-1.000000	203685.000000	1772311065.236864
-16114.005000	-10388.745000	-16157.745000	-12693.780000	0.000000	0.000000	0.000000	0.000000	13.625366	-3.992907	12.872013	11.942201	-0.000000	-0.000000	-0.000000	-0.000000	2.258480	3.891300	-0.289940	0.005310	0.979734	-0.074585	-1.000000	-1.000000	-1.000000	-1.000000	-1.000000	-1.000000	-1.000000	146.620690	0.000000	-1.000000	-1.000000	203686.000000	1772311065.239363
-16099.245000	-10390.365000	-16140.870000	-12677.355000	0.000000	0.000000	0.000000	0.000000	7.106654	-6.838323	4.420858	-0.065813	-0.000000	-0.000000	-0.000000	-0.000000	2.258480	3.891300	-0.289940	0.005310	0.979734	-0.074585	-1.000000	-1.000000	-1.000000	-1.000000	-1.000000	-1.000000	-1.000000	146.620690	0.000000	-1.000000	-1.000000	203687.000000	1772311065.239365
-16096.140000	-10398.780000	-16135.965000	-12665.970000	0.000000	0.000000	0.000000	0.000000	-0.563818	-6.397915	-3.650680	-9.650631	-0.000000	-0.000000	-0.000000	-0.000000	2.258480	3.891300	-0.289940	0.005310	0.979734	-0.074585	-1.000000	-1.000000	-1.000000	-1.000000	-1.000000	-1.000000	-1.000000	146.620690	0.000000	-1.000000	-1.000000	203688.000000	1772311065.243486
-16115.220000	-10398.195000	-16144.335000	-12654.225000	0.000000	0.000000	0.000000	0.000000	-4.845179	-4.644956	-6.305873	-10.093236	-0.000000	-0.000000	-0.000000	-0.000000	2.258480	3.891300	-0.289940	0.005310	0.979734	-0.074585	-1.000000	-1.000000	-1.000000	-1.000000	-1.000000	-1.000000	-1.000000	146.620690	0.000000	-1.000000	-1.000000	203689.000000	1772311065.243488
-16122.645000	-10396.080000	-16147.530000	-12654.270000	0.000000	0.000000	0.000000	0.000000	-6.056240	-3.291797	-4.488939	-2.727916	-0.000000	-0.000000	-0.000000	-0.000000	3.631880	-0.167860	-0.152600	0.005432	0.978879	-0.072998	-1.000000	-1.000000	-1.000000	-1.000000	-1.000000	-1.000000	-1.000000	146.620690	0.000000	-1.000000	-1.000000	203690.000000	1772311065.247435
-16124.535000	-10383.435000	-16152.480000	-12657.330000	0.000000	0.000000	0.000000	0.000000	-6.110847	-2.340116	-1.851860	5.516651	-0.000000	-0.000000	-0.000000	-0.000000	3.631880	-0.167860	-0.152600	0.005432	0.978879	-0.072998	-1.000000	-1.000000	-1.000000	-1.000000	-1.000000	-1.000000	-1.000000	146.620690	0.000000	-1.000000	-1.000000	203691.000000	1772311065.247439
-16122.600000	-10341.855000	-16153.155000	-12664.260000	0.000000	0.000000	0.000000	0.000000	-5.021762	-0.413893	-0.452828	8.484442	-0.000000	-0.000000	-0.000000	-0.000000	3.631880	-0.167860	-0.152600	0.005432	0.978879	-0.072998	-1.000000	-1.000000	-1.000000	-1.000000	-1.000000	-1.000000	-1.000000	146.620690	0.000000	-1.000000	-1.000000	203692.000000	1772311065.251469
-16112.610000	-10303.605000	-16155.630000	-12687.075000	0.000000	0.000000	0.000000	0.000000	-1.894133	3.935565	-0.146688	4.555699	-0.000000	-0.000000	-0.000000	-0.000000	3.631880	-0.167860	-0.152600	0.005432	0.978879	-0.072998	-1.000000	-1.000000	-1.000000	-1.000000	-1.000000	-1.000000	-1.000000	146.620690	0.000000	-1.000000	-1.000000	203693.000000	1772311065.251472
-16125.255000	-10280.835000	-16171.020000	-12712.095000	0.000000	0.000000	0.000000	0.000000	2.676823	9.545321	-0.262068	-3.895810	-0.000000	-0.000000	-0.000000	-0.000000	3.631880	-0.167860	-0.152600	0.005432	0.978879	-0.072998	-1.000000	-1.000000	-1.000000	-1.000000	-1.000000	-1.000000	-1.000000	146.620690	0.000000	-1.000000	-1.000000	203694.000000	1772311065.256966
-16139.655000	-10264.410000	-16182.090000	-12717.540000	0.000000	0.000000	0.000000	0.000000	5.853719	11.921620	-0.849082	-12.201444	-0.000000	-0.000000	-0.000000	-0.000000	3.631880	-0.167860	-0.152600	0.005432	0.978879	-0.072998	-1.000000	-1.000000	-1.000000	-1.000000	-1.000000	-1.000000	-1.000000	146.620690	0.000000	-1.000000	-1.000000	203695.000000	1772311065.256969
-16109.190000	-10244.880000	-16148.745000	-12669.435000	0.000000	0.000000	0.000000	0.000000	5.719490	7.375908	-1.158990	-14.181700	-0.000000	-0.000000	-0.000000	-0.000000	3.631880	-0.167860	-0.152600	0.005432	0.978879	-0.072998	-1.000000	-1.000000	-1.000000	-1.000000	-1.000000	-1.000000	-1.000000	146.620690	0.000000	-1.000000	-1.000000	203696.000000	1772311065.259413
-16083.405000	-10259.955000	-16118.280000	-12633.885000	0.000000	0.000000	0.000000	0.000000	4.661503	-3.452052	1.585428	-5.165549	-0.000000	-0.000000	-0.000000	-0.000000	3.631880	-0.167860	-0.152600	0.005432	0.978879	-0.072998	-1.000000	-1.000000	-1.000000	-1.000000	-1.000000	-1.000000	-1.000000	146.620690	0.000000	-1.000000	-1.000000	203697.000000	1772311065.259416
-16127.730000	-10251.270000	-16164.990000	-12684.105000	0.000000	0.000000	0.000000	0.000000	4.783933	-16.464986	7.191994	10.752852	-0.000000	-0.000000	-0.000000	-0.000000	3.631880	-0.167860	-0.152600	0.005432	0.978879	-0.072998	-1.000000	-1.000000	-1.000000	-1.000000	-1.000000	-1.000000	-1.000000	146.620690	0.000000	-1.000000	-1.000000	203698.000000	1772311065.263527
-16128.405000	-10212.390000	-16166.070000	-12689.370000	0.000000	0.000000	0.000000	0.000000	2.998879	-25.232068	9.324389	20.468494	-0.000000	-0.000000	-0.000000	-0.000000	3.631880	-0.167860	-0.152600	0.005432	0.978879	-0.072998	-1.000000	-1.000000	-1.000000	-1.000000	-1.000000	-1.000000	-1.000000	146.620690	0.000000	-1.000000	-1.000000	203699.000000	1772311065.263530
-16110.090000	-10199.250000	-16149.015000	-12674.745000	0.000000	0.000000	0.000000	0.000000	-2.537170	-23.689808	4.209932	16.026538	-0.000000	-0.000000	-0.000000	-0.000000	4.455920	-0.152600	-0.091560	0.005981	0.979734	-0.071960	-1.000000	-1.000000	-1.000000	-1.000000	-1.000000	-1.000000	-1.000000	146.620690	0.000000	-1.000000	-1.000000	203700.000000	1772311065.270022
-16111.575000	-10218.195000	-16151.040000	-12672.990000	0.000000	0.000000	0.000000	0.000000	-7.496966	-12.712516	-3.409328	3.184319	-0.000000	-0.000000	-0.000000	-0.000000	4.455920	-0.152600	-0.091560	0.005981	0.979734	-0.071960	-1.000000	-1.000000	-1.000000	-1.000000	-1.000000	-1.000000	-1.000000	146.620690	0.000000	-1.000000	-1.000000	203701.000000	1772311065.270024
-16115.715000	-10249.245000	-16154.505000	-12673.080000	0.000000	0.000000	0.000000	0.000000	-7.915617	-1.104788	-7.616732	-7.789173	-0.000000	-0.000000	-0.000000	-0.000000	4.455920	-0.152600	-0.091560	0.005981	0.979734	-0.071960	-1.000000	-1.000000	-1.000000	-1.000000	-1.000000	-1.000000	-1.000000	146.620690	0.000000	-1.000000	-1.000000	203702.000000	1772311065.271463
-16100.145000	-10264.095000	-16141.455000	-12661.470000	0.000000	0.000000	0.000000	0.000000	-4.510665	3.226372	-7.173736	-11.788632	-0.000000	-0.000000	-0.000000	-0.000000	4.455920	-0.152600	-0.091560	0.005981	0.979734	-0.071960	-1.000000	-1.000000	-1.000000	-1.000000	-1.000000	-1.000000	-1.000000	146.620690	0.000000	-1.000000	-1.000000	203703.000000	1772311065.271466
-16100.055000	-10286.190000	-16139.385000	-12656.880000	0.000000	0.000000	0.000000	0.000000	0.261194	0.551447	-3.576689	-9.194357	-0.000000	-0.000000	-0.000000	-0.000000	4.455920	-0.152600	-0.091560	0.005981	0.979734	-0.071960	-1.000000	-1.000000	-1.000000	-1.000000	-1.000000	-1.000000	-1.000000	146.620690	0.000000	-1.000000	-1.000000	203704.000000	1772311065.275568
-16115.670000	-10329.480000	-16151.085000	-12668.445000	0.000000	0.000000	0.000000	0.000000	3.794403	-3.674522	0.598429	-3.594549	-0.000000	-0.000000	-0.000000	-0.000000	4.455920	-0.152600	-0.091560	0.005981	0.979734	-0.071960	-1.000000	-1.000000	-1.000000	-1.000000	-1.000000	-1.000000	-1.000000	146.620690	0.000000	-1.000000	-1.000000	203705.000000	1772311065.275571
-16114.680000	-10371.645000	-16148.205000	-12669.030000	0.000000	0.000000	0.000000	0.000000	3.816192	-5.647327	2.549483	0.559925	-0.000000	-0.000000	-0.000000	-0.000000	4.455920	-0.152600	-0.091560	0.005981	0.979734	-0.071960	-1.000000	-1.000000	-1.000000	-1.000000	-1.000000	-1.000000	-1.000000	146.620690	0.000000	-1.000000	-1.000000	203706.000000	1772311065.280825
-16099.695000	-10449.810000	-16134.300000	-12656.745000	0.000000	0.000000	0.000000	0.000000	1.027062	-5.348336	1.907030	1.514249	-0.000000	-0.000000	-0.000000	-0.000000	4.455920	-0.152600	-0.091560	0.005981	0.979734	-0.071960	-1.000000	-1.000000	-1.000000	-1.000000	-1.000000	-1.000000	-1.000000	146.620690	0.000000	-1.000000	-1.000000	203707.000000	1772311065.280828
-16085.115000	-10488.555000	-16118.910000	-12640.770000	0.000000	0.000000	0.000000	0.000000	-0.891749	-4.169783	1.155277	1.311068	-0.000000	-0.000000	-0.000000	-0.000000	4.455920	-0.152600	-0.091560	0.005981	0.979734	-0.071960	-1.000000	-1.000000	-1.000000	-1.000000	-1.000000	-1.000000	-1.000000	146.620690	0.000000	-1.000000	-1.000000	203708.000000	1772311065.283621
-16088.445000	-10469.520000	-16124.445000	-12644.055000	0.000000	0.000000	0.000000	0.000000	0.208291	-0.458641	1.946788	2.177207	-0.000000	-0.000000	-0.000000	-0.000000	4.455920	-0.152600	-0.091560	0.005981	0.979734	-0.071960	-1.000000	-1.000000	-1.000000	-1.000000	-1.000000	-1.000000	-1.000000	146.620690	0.000000	-1.000000	-1.000000	203709.000000	1772311065.283624
-16097.220000	-10489.050000	-16133.850000	-12653.055000	0.000000	0.000000	0.000000	0.000000	2.248783	9.704672	2.620246	3.179337	-0.000000	-0.000000	-0.000000	-0.000000	4.135460	-0.198380	-0.320460	0.007446	0.979673	-0.074096	-1.000000	-1.000000	-1.000000	-1.000000	-1.000000	-1.000000	-1.000000	146.620690	0.000000	-1.000000	-1.000000	203710.000000	1772311065.288896
-16102.215000	-10525.320000	-16139.250000	-12659.220000	0.000000	0.000000	0.000000	0.000000	1.845553	23.960683	0.697716	1.888713	-0.000000	-0.000000	-0.000000	-0.000000	4.135460	-0.198380	-0.320460	0.007446	0.979673	-0.074096	-1.000000	-1.000000	-1.000000	-1.000000	-1.000000	-1.000000	-1.000000	146.620690	0.000000	-1.000000	-1.000000	203711.000000	1772311065.288900
-16096.005000	-10521.945000	-16135.830000	-12656.430000	0.000000	0.000000	0.000000	0.000000	-1.333104	33.048256	-3.343481	-1.754576	-0.000000	-0.000000	-0.000000	-0.000000	4.135460	-0.198380	-0.320460	0.007446	0.979673	-0.074096	-1.000000	-1.000000	-1.000000	-1.000000	-1.000000	-1.000000	-1.000000	146.620690	0.000000	-1.000000	-1.000000	203712.000000	1772311065.291705
-16097.265000	-10503.540000	-16134.480000	-12654.495000	0.000000	0.000000	0.000000	0.000000	-4.426488	31.718769	-6.325256	-4.965627	-0.000000	-0.000000	-0.000000	-0.000000	4.135460	-0.198380	-0.320460	0.007446	0.979673	-0.074096	-1.000000	-1.000000	-1.000000	-1.000000	-1.000000	-1.000000	-1.000000	146.620690	0.000000	-1.000000	-1.000000	203713.000000	1772311065.291713
-16098.885000	-10489.185000	-16133.130000	-12654.315000	0.000000	0.000000	0.000000	0.000000	-4.960254	23.016580	-5.818296	-5.185607	-0.000000	-0.000000	-0.000000	-0.000000	4.135460	-0.198380	-0.320460	0.007446	0.979673	-0.074096	-1.000000	-1.000000	-1.000000	-1.000000	-1.000000	-1.000000	-1.000000	146.620690	0.000000	-1.000000	-1.000000	203714.000000	1772311065.295513
-16099.920000	-10439.100000	-16135.110000	-12655.485000	0.000000	0.000000	0.000000	0.000000	-3.005370	12.673088	-2.270815	-2.453790	-0.000000	-0.000000	-0.000000	-0.000000	4.135460	-0.198380	-0.320460	0.007446	0.979673	-0.074096	-1.000000	-1.000000	-1.000000	-1.000000	-1.000000	-1.000000	-1.000000	146.620690	0.000000	-1.000000	-1.000000	203715.000000	1772311065.295516
-16090.965000	-10407.555000	-16126.785000	-12645.090000	0.000000	0.000000	0.000000	0.000000	0.038544	4.579315	2.062118	1.386789	-0.000000	-0.000000	-0.000000	-0.000000	4.135460	-0.198380	-0.320460	0.007446	0.979673	-0.074096	-1.000000	-1.000000	-1.000000	-1.000000	-1.000000	-1.000000	-1.000000	146.620690	0.000000	-1.000000	-1.000000	203716.000000	1772311065.299501
-16104.330000	-10406.790000	-16143.705000	-12661.380000	0.000000	0.000000	0.000000	0.000000	2.765966	-1.466034	4.935872	4.323395	-0.000000	-0.000000	-0.000000	-0.000000	4.135460	-0.198380	-0.320460	0.007446	0.979673	-0.074096	-1.000000	-1.000000	-1.000000	-1.000000	-1.000000	-1.000000	-1.000000	146.620690	0.000000	-1.000000	-1.000000	203717.000000	1772311065.299503
-16126.065000	-10415.970000	-16164.810000	-12679.920000	0.000000	0.000000	0.000000	0.000000	3.394586	-9.372939	4.487272	4.368140	-0.000000	-0.000000	-0.000000	-0.000000	4.135460	-0.198380	-0.320460	0.007446	0.979673	-0.074096	-1.000000	-1.000000	-1.000000	-1.000000	-1.000000	-1.000000	-1.000000	146.620690	0.000000	-1.000000	-1.000000	203718.000000	1772311065.303570
-16114.635000	-10415.745000	-16155.900000	-12670.560000	0.000000	0.000000	0.000000	0.000000	1.120075	-21.105576	0.666011	1.094988	-0.000000	-0.000000	-0.000000	-0.000000	4.135460	-0.198380	-0.320460	0.007446	0.979673	-0.074096	-1.000000	-1.000000	-1.000000	-1.000000	-1.000000	-1.000000	-1.000000	146.620690	0.000000	-1.000000	-1.000000	203719.000000	1772311065.303572
-16105.050000	-10397.250000	-16148.565000	-12665.565000	0.000000	0.000000	0.000000	0.000000	-1.466535	-32.159965	-3.046755	-2.440536	-0.000000	-0.000000	-0.000000	-0.000000	2.533160	-0.061040	-0.885080	0.007507	0.979673	-0.076660	-1.000000	-1.000000	-1.000000	-1.000000	-1.000000	-1.000000	-1.000000	146.620690	0.000000	-1.000000	-1.000000	203720.000000	1772311065.307712
-16096.770000	-10403.595000	-16139.025000	-12656.565000	0.000000	0.000000	0.000000	0.000000	-0.842090	-35.250152	-2.679084	-2.538274	-0.000000	-0.000000	-0.000000	-0.000000	2.533160	-0.061040	-0.885080	0.007507	0.979673	-0.076660	-1.000000	-1.000000	-1.000000	-1.000000	-1.000000	-1.000000	-1.000000	146.620690	0.000000	-1.000000	-1.000000	203721.000000	1772311065.307715
-16100.190000	-10408.095000	-16139.385000	-12654.180000	0.000000	0.000000	0.000000	0.000000	2.814819	-27.913037	1.696769	0.998471	-0.000000	-0.000000	-0.000000	-0.000000	2.533160	-0.061040	-0.885080	0.007507	0.979673	-0.076660	-1.000000	-1.000000	-1.000000	-1.000000	-1.000000	-1.000000	-1.000000	146.620690	0.000000	-1.000000	-1.000000	203722.000000	1772311065.313164
-16111.620000	-10413.630000	-16149.555000	-12659.490000	0.000000	0.000000	0.000000	0.000000	5.719046	-14.194709	6.077798	4.967203	-0.000000	-0.000000	-0.000000	-0.000000	2.533160	-0.061040	-0.885080	0.007507	0.979673	-0.076660	-1.000000	-1.000000	-1.000000	-1.000000	-1.000000	-1.000000	-1.000000	146.620690	0.000000	-1.000000	-1.000000	203723.000000	1772311065.313167
-16095.510000	-10431.270000	-16133.760000	-12640.995000	0.000000	0.000000	0.000000	0.000000	4.926523	-0.294267	6.781000	6.242972	-0.000000	-0.000000	-0.000000	-0.000000	2.533160	-0.061040	-0.885080	0.007507	0.979673	-0.076660	-1.000000	-1.000000	-1.000000	-1.000000	-1.000000	-1.000000	-1.000000	146.620690	0.000000	-1.000000	-1.000000	203724.000000	1772311065.315713
-16093.305000	-10425.465000	-16129.170000	-12636.810000	0.000000	0.000000	0.000000	0.000000	1.552685	9.488347	4.052085	4.673029	-0.000000	-0.000000	-0.000000	-0.000000	2.533160	-0.061040	-0.885080	0.007507	0.979673	-0.076660	-1.000000	-1.000000	-1.000000	-1.000000	-1.000000	-1.000000	-1.000000	146.620690	0.000000	-1.000000	-1.000000	203725.000000	1772311065.315716
-16114.455000	-10411.875000	-16157.295000	-12679.920000	0.000000	0.000000	0.000000	0.000000	-1.884748	14.728297	-0.000585	1.059350	-0.000000	-0.000000	-0.000000	-0.000000	2.533160	-0.061040	-0.885080	0.007507	0.979673	-0.076660	-1.000000	-1.000000	-1.000000	-1.000000	-1.000000	-1.000000	-1.000000	146.620690	0.000000	-1.000000	-1.000000	203726.000000	1772311065.319604
-16114.365000	-10404.360000	-16161.210000	-12686.670000	0.000000	0.000000	0.000000	0.000000	-4.856290	17.425196	-4.757925	-5.079333	-0.000000	-0.000000	-0.000000	-0.000000	2.533160	-0.061040	-0.885080	0.007507	0.979673	-0.076660	-1.000000	-1.000000	-1.000000	-1.000000	-1.000000	-1.000000	-1.000000	146.620690	0.000000	-1.000000	-1.000000	203727.000000	1772311065.319607
-16128.405000	-10409.670000	-16173.000000	-12694.365000	0.000000	0.000000	0.000000	0.000000	-7.235672	18.124027	-9.327917	-12.011712	-0.000000	-0.000000	-0.000000	-0.000000	2.533160	-0.061040	-0.885080	0.007507	0.979673	-0.076660	-1.000000	-1.000000	-1.000000	-1.000000	-1.000000	-1.000000	-1.000000	146.620690	0.000000	-1.000000	-1.000000	203728.000000	1772311065.323515
-16127.370000	-10451.970000	-16170.210000	-12693.240000	0.000000	0.000000	0.000000	0.000000	-7.838416	14.528238	-11.084533	-14.730770	-0.000000	-0.000000	-0.000000	-0.000000	2.533160	-0.061040	-0.885080	0.007507	0.979673	-0.076660	-1.000000	-1.000000	-1.000000	-1.000000	-1.000000	-1.000000	-1.000000	146.620690	0.000000	-1.000000	-1.000000	203729.000000	1772311065.323518
-16113.465000	-10456.110000	-16153.515000	-12674.160000	0.000000	0.000000	0.000000	0.000000	-5.351889	4.911265	-7.766805	-9.779462	-0.000000	-0.000000	-0.000000	-0.000000	1.526000	0.228900	-0.839300	0.008484	0.979978	-0.077453	-1.000000	-1.000000	-1.000000	-1.000000	-1.000000	-1.000000	-1.000000	146.620690	0.000000	-1.000000	-1.000000	203730.000000	1772311065.331601
-16116.795000	-10472.805000	-16153.560000	-12671.505000	0.000000	0.000000	0.000000	0.000000	0.316914	-7.322073	0.250952	1.473389	-0.000000	-0.000000	-0.000000	-0.000000	1.526000	0.228900	-0.839300	0.008484	0.979978	-0.077453	-1.000000	-1.000000	-1.000000	-1.000000	-1.000000	-1.000000	-1.000000	146.620690	0.000000	-1.000000	-1.000000	203731.000000	1772311065.331604
-16120.665000	-10481.940000	-16156.125000	-12674.430000	0.000000	0.000000	0.000000	0.000000	6.596095	-15.395412	8.985171	13.150922	-0.000000	-0.000000	-0.000000	-0.000000	1.526000	0.228900	-0.839300	0.008484	0.979978	-0.077453	-1.000000	-1.000000	-1.000000	-1.000000	-1.000000	-1.000000	-1.000000	146.620690	0.000000	-1.000000	-1.000000	203732.000000	1772311065.331608
-16124.805000	-10480.365000	-16163.595000	-12685.140000	0.000000	0.000000	0.000000	0.000000	9.643243	-15.119590	13.155458	18.368804	-0.000000	-0.000000	-0.000000	-0.000000	1.526000	0.228900	-0.839300	0.008484	0.979978	-0.077453	-1.000000	-1.000000	-1.000000	-1.000000	-1.000000	-1.000000	-1.000000	146.620690	0.000000	-1.000000	-1.000000	203733.000000	1772311065.331611
-16115.580000	-10458.045000	-16155.405000	-12675.690000	0.000000	0.000000	0.000000	0.000000	8.089714	-6.754454	10.693651	14.542301	-0.000000	-0.000000	-0.000000	-0.000000	1.526000	0.228900	-0.839300	0.008484	0.979978	-0.077453	-1.000000	-1.000000	-1.000000	-1.000000	-1.000000	-1.000000	-1.000000	146.620690	0.000000	-1.000000	-1.000000	203734.000000	1772311065.335668
-16073.955000	-10428.435000	-16116.120000	-12630.735000	0.000000	0.000000	0.000000	0.000000	4.693780	6.457523	4.888646	6.010097	-0.000000	-0.000000	-0.000000	-0.000000	1.526000	0.228900	-0.839300	0.008484	0.979978	-0.077453	-1.000000	-1.000000	-1.000000	-1.000000	-1.000000	-1.000000	-1.000000	146.620690	0.000000	-1.000000	-1.000000	203735.000000	1772311065.335671
-16090.380000	-10418.580000	-16133.715000	-12645.495000	0.000000	0.000000	0.000000	0.000000	3.017666	19.077311	0.711969	-0.415548	-0.000000	-0.000000	-0.000000	-0.000000	1.526000	0.228900	-0.839300	0.008484	0.979978	-0.077453	-1.000000	-1.000000	-1.000000	-1.000000	-1.000000	-1.000000	-1.000000	146.620690	0.000000	-1.000000	-1.000000	203736.000000	1772311065.339543
-16100.595000	-10394.865000	-16140.780000	-12652.605000	0.000000	0.000000	0.000000	0.000000	2.105940	24.919421	-1.423146	-3.351934	-0.000000	-0.000000	-0.000000	-0.000000	1.526000	0.228900	-0.839300	0.008484	0.979978	-0.077453	-1.000000	-1.000000	-1.000000	-1.000000	-1.000000	-1.000000	-1.000000	146.620690	0.000000	-1.000000	-1.000000	203737.000000	1772311065.339545
-16111.305000	-10341.630000	-16149.510000	-12660.615000	0.000000	0.000000	0.000000	0.000000	-1.701043	21.541405	-4.532740	-6.270597	-0.000000	-0.000000	-0.000000	-0.000000	1.526000	0.228900	-0.839300	0.008484	0.979978	-0.077453	-1.000000	-1.000000	-1.000000	-1.000000	-1.000000	-1.000000	-1.000000	146.620690	0.000000	-1.000000	-1.000000	203738.000000	1772311065.345105
-16111.080000	-10337.670000	-16145.460000	-12658.005000	0.000000	0.000000	0.000000	0.000000	-8.236713	11.873766	-8.857747	-10.316850	-0.000000	-0.000000	-0.000000	-0.000000	1.526000	0.228900	-0.839300	0.008484	0.979978	-0.077453	-1.000000	-1.000000	-1.000000	-1.000000	-1.000000	-1.000000	-1.000000	146.620690	0.000000	-1.000000	-1.000000	203739.000000	1772311065.345108
-16094.565000	-10382.220000	-16135.875000	-12661.605000	0.000000	0.000000	0.000000	0.000000	-12.795402	-1.536345	-11.069427	-12.814928	-0.000000	-0.000000	-0.000000	-0.000000	0.885080	0.106820	-0.869820	0.007263	0.979673	-0.077575	-1.000000	-1.000000	-1.000000	-1.000000	-1.000000	-1.000000	-1.000000	146.620690	0.000000	-1.000000	-1.000000	203740.000000	1772311065.348664
-16101.180000	-10382.310000	-16145.865000	-12671.820000	0.000000	0.000000	0.000000	0.000000	-11.233996	-18.201100	-8.647457	-11.416277	-0.000000	-0.000000	-0.000000	-0.000000	0.885080	0.106820	-0.869820	0.007263	0.979673	-0.077575	-1.000000	-1.000000	-1.000000	-1.000000	-1.000000	-1.000000	-1.000000	146.620690	0.000000	-1.000000	-1.000000	203741.000000	1772311065.348667
-16111.980000	-10370.115000	-16153.560000	-12674.565000	0.000000	0.000000	0.000000	0.000000	-4.621323	-33.025315	-3.106937	-6.634411	-0.000000	-0.000000	-0.000000	-0.000000	0.885080	0.106820	-0.869820	0.007263	0.979673	-0.077575	-1.000000	-1.000000	-1.000000	-1.000000	-1.000000	-1.000000	-1.000000	146.620690	0.000000	-1.000000	-1.000000	203742.000000	1772311065.351830
-16087.410000	-10355.220000	-16133.130000	-12656.925000	0.000000	0.000000	0.000000	0.000000	2.581852	-36.668587	2.294169	-0.207505	-0.000000	-0.000000	-0.000000	-0.000000	0.885080	0.106820	-0.869820	0.007263	0.979673	-0.077575	-1.000000	-1.000000	-1.000000	-1.000000	-1.000000	-1.000000	-1.000000	146.620690	0.000000	-1.000000	-1.000000	203743.000000	1772311065.351832
-16096.410000	-10333.710000	-16139.610000	-12652.920000	0.000000	0.000000	0.000000	0.000000	7.606815	-24.995941	6.202707	6.662537	-0.000000	-0.000000	-0.000000	-0.000000	0.885080	0.106820	-0.869820	0.007263	0.979673	-0.077575	-1.000000	-1.000000	-1.000000	-1.000000	-1.000000	-1.000000	-1.000000	146.620690	0.000000	-1.000000	-1.000000	203744.000000	1772311065.355596
-16115.040000	-10334.520000	-16149.330000	-12643.830000	0.000000	0.000000	0.000000	0.000000	9.102773	-3.674923	7.955923	12.298176	-0.000000	-0.000000	-0.000000	-0.000000	0.885080	0.106820	-0.869820	0.007263	0.979673	-0.077575	-1.000000	-1.000000	-1.000000	-1.000000	-1.000000	-1.000000	-1.000000	146.620690	0.000000	-1.000000	-1.000000	203745.000000	1772311065.355599
-16116.480000	-10349.370000	-16158.735000	-12668.715000	0.000000	0.000000	0.000000	0.000000	6.010383	15.683700	6.309106	13.833126	-0.000000	-0.000000	-0.000000	-0.000000	0.885080	0.106820	-0.869820	0.007263	0.979673	-0.077575	-1.000000	-1.000000	-1.000000	-1.000000	-1.000000	-1.000000	-1.000000	146.620690	0.000000	-1.000000	-1.000000	203746.000000	1772311065.359597
-16121.655000	-10370.790000	-16162.605000	-12682.845000	0.000000	0.000000	0.000000	0.000000	0.044006	23.192866	1.667857	8.971262	-0.000000	-0.000000	-0.000000	-0.000000	0.885080	0.106820	-0.869820	0.007263	0.979673	-0.077575	-1.000000	-1.000000	-1.000000	-1.000000	-1.000000	-1.000000	-1.000000	146.620690	0.000000	-1.000000	-1.000000	203747.000000	1772311065.359600
-16110.090000	-10364.265000	-16147.035000	-12656.745000	0.000000	0.000000	0.000000	0.000000	-4.553427	17.436478	-2.857411	-0.295594	-0.000000	-0.000000	-0.000000	-0.000000	0.885080	0.106820	-0.869820	0.007263	0.979673	-0.077575	-1.000000	-1.000000	-1.000000	-1.000000	-1.000000	-1.000000	-1.000000	146.620690	0.000000	-1.000000	-1.000000	203748.000000	1772311065.363594
-16116.615000	-10393.920000	-16152.840000	-12658.140000	0.000000	0.000000	0.000000	0.000000	-4.821755	5.226511	-3.956431	-7.431290	-0.000000	-0.000000	-0.000000	-0.000000	0.885080	0.106820	-0.869820	0.007263	0.979673	-0.077575	-1.000000	-1.000000	-1.000000	-1.000000	-1.000000	-1.000000	-1.000000	146.620690	0.000000	-1.000000	-1.000000	203749.000000	1772311065.363597
-16116.120000	-10434.960000	-16155.405000	-12669.750000	0.000000	0.000000	0.000000	0.000000	-1.515654	-6.042870	-1.591513	-8.299175	-0.000000	-0.000000	-0.000000	-0.000000	1.236060	0.366240	-0.991900	0.006470	0.978818	-0.075683	-1.000000	-1.000000	-1.000000	-1.000000	-1.000000	-1.000000	-1.000000	146.620690	0.000000	-1.000000	-1.000000	203750.000000	1772311065.367736
-16094.430000	-10437.705000	-16142.850000	-12674.745000	0.000000	0.000000	0.000000	0.000000	2.666392	-12.763975	1.585894	-5.165426	-0.000000	-0.000000	-0.000000	-0.000000	1.236060	0.366240	-0.991900	0.006470	0.978818	-0.075683	-1.000000	-1.000000	-1.000000	-1.000000	-1.000000	-1.000000	-1.000000	146.620690	0.000000	-1.000000	-1.000000	203751.000000	1772311065.367738
-16073.730000	-10462.635000	-16123.005000	-12652.830000	0.000000	0.000000	0.000000	0.000000	6.366896	-12.991890	4.035148	-1.590992	-0.000000	-0.000000	-0.000000	-0.000000	1.236060	0.366240	-0.991900	0.006470	0.978818	-0.075683	-1.000000	-1.000000	-1.000000	-1.000000	-1.000000	-1.000000	-1.000000	146.620690	0.000000	-1.000000	-1.000000	203752.000000	1772311065.371728
-16086.105000	-10496.340000	-16129.845000	-12650.085000	0.000000	0.000000	0.000000	0.000000	8.684623	-7.047340	5.560372	1.772003	-0.000000	-0.000000	-0.000000	-0.000000	1.236060	0.366240	-0.991900	0.006470	0.978818	-0.075683	-1.000000	-1.000000	-1.000000	-1.000000	-1.000000	-1.000000	-1.000000	146.620690	0.000000	-1.000000	-1.000000	203753.000000	1772311065.371730
-16098.435000	-10509.705000	-16139.970000	-12657.645000	0.000000	0.000000	0.000000	0.000000	7.065230	1.288424	4.828125	4.639970	-0.000000	-0.000000	-0.000000	-0.000000	1.236060	0.366240	-0.991900	0.006470	0.978818	-0.075683	-1.000000	-1.000000	-1.000000	-1.000000	-1.000000	-1.000000	-1.000000	146.620690	0.000000	-1.000000	-1.000000	203754.000000	1772311065.375729
-16082.370000	-10509.930000	-16119.765000	-12635.190000	0.000000	0.000000	0.000000	0.000000	0.526676	8.646084	0.924667	5.563545	-0.000000	-0.000000	-0.000000	-0.000000	1.236060	0.366240	-0.991900	0.006470	0.978818	-0.075683	-1.000000	-1.000000	-1.000000	-1.000000	-1.000000	-1.000000	-1.000000	146.620690	0.000000	-1.000000	-1.000000	203755.000000	1772311065.375731
-16080.480000	-10500.570000	-16117.515000	-12631.545000	0.000000	0.000000	0.000000	0.000000	-7.035453	14.491654	-3.731936	4.465480	-0.000000	-0.000000	-0.000000	-0.000000	1.236060	0.366240	-0.991900	0.006470	0.978818	-0.075683	-1.000000	-1.000000	-1.000000	-1.000000	-1.000000	-1.000000	-1.000000	146.620690	0.000000	-1.000000	-1.000000	203756.000000	1772311065.379817
-16099.830000	-10519.965000	-16139.295000	-12660.660000	0.000000	0.000000	0.000000	0.000000	-11.072452	18.394776	-6.420587	1.891076	-0.000000	-0.000000	-0.000000	-0.000000	1.236060	0.366240	-0.991900	0.006470	0.978818	-0.075683	-1.000000	-1.000000	-1.000000	-1.000000	-1.000000	-1.000000	-1.000000	146.620690	0.000000	-1.000000	-1.000000	203757.000000	1772311065.379820
-16110.720000	-10526.445000	-16149.870000	-12678.930000	0.000000	0.000000	0.000000	0.000000	-11.256089	17.973968	-7.674143	-3.087213	-0.000000	-0.000000	-0.000000	-0.000000	1.236060	0.366240	-0.991900	0.006470	0.978818	-0.075683	-1.000000	-1.000000	-1.000000	-1.000000	-1.000000	-1.000000	-1.000000	146.620690	0.000000	-1.000000	-1.000000	203758.000000	1772311065.383912
-16113.690000	-10523.295000	-16152.255000	-12673.305000	0.000000	0.000000	0.000000	0.000000	-9.310447	11.900386	-8.486090	-9.600970	-0.000000	-0.000000	-0.000000	-0.000000	1.236060	0.366240	-0.991900	0.006470	0.978818	-0.075683	-1.000000	-1.000000	-1.000000	-1.000000	-1.000000	-1.000000	-1.000000	146.620690	0.000000	-1.000000	-1.000000	203759.000000	1772311065.383915
-16108.380000	-10516.005000	-16149.915000	-12664.845000	0.000000	0.000000	0.000000	0.000000	-5.537650	2.910609	-7.529196	-12.824673	-0.000000	-0.000000	-0.000000	-0.000000	2.762060	0.091560	-0.763000	0.005371	0.978757	-0.072693	-1.000000	-1.000000	-1.000000	-1.000000	-1.000000	-1.000000	-1.000000	146.620690	0.000000	-1.000000	-1.000000	203760.000000	1772311065.387734
-16103.115000	-10497.690000	-16140.510000	-12651.165000	0.000000	0.000000	0.000000	0.000000	0.405817	-4.306647	-3.158507	-8.666615	-0.000000	-0.000000	-0.000000	-0.000000	2.762060	0.091560	-0.763000	0.005371	0.978757	-0.072693	-1.000000	-1.000000	-1.000000	-1.000000	-1.000000	-1.000000	-1.000000	146.620690	0.000000	-1.000000	-1.000000	203761.000000	1772311065.387737
-16100.775000	-10498.095000	-16139.880000	-12652.740000	0.000000	0.000000	0.000000	0.000000	7.297360	-7.150280	3.888395	1.342290	-0.000000	-0.000000	-0.000000	-0.000000	2.762060	0.091560	-0.763000	0.005371	0.978757	-0.072693	-1.000000	-1.000000	-1.000000	-1.000000	-1.000000	-1.000000	-1.000000	146.620690	0.000000	-1.000000	-1.000000	203762.000000	1772311065.392172
-16113.645000	-10502.505000	-16149.645000	-12665.205000	0.000000	0.000000	0.000000	0.000000	12.041200	-6.931009	10.148545	10.780288	-0.000000	-0.000000	-0.000000	-0.000000	2.762060	0.091560	-0.763000	0.005371	0.978757	-0.072693	-1.000000	-1.000000	-1.000000	-1.000000	-1.000000	-1.000000	-1.000000	146.620690	0.000000	-1.000000	-1.000000	203763.000000	1772311065.392175
-16116.345000	-10495.215000	-16159.995000	-12691.395000	0.000000	0.000000	0.000000	0.000000	11.762807	-6.636245	11.691049	13.149863	-0.000000	-0.000000	-0.000000	-0.000000	2.762060	0.091560	-0.763000	0.005371	0.978757	-0.072693	-1.000000	-1.000000	-1.000000	-1.000000	-1.000000	-1.000000	-1.000000	146.620690	0.000000	-1.000000	-1.000000	203764.000000	1772311065.397724
-16109.505000	-10471.500000	-16153.200000	-12678.570000	0.000000	0.000000	0.000000	0.000000	6.787175	-6.838562	7.709178	7.283131	-0.000000	-0.000000	-0.000000	-0.000000	2.762060	0.091560	-0.763000	0.005371	0.978757	-0.072693	-1.000000	-1.000000	-1.000000	-1.000000	-1.000000	-1.000000	-1.000000	146.620690	0.000000	-1.000000	-1.000000	203765.000000	1772311065.397726
-16110.630000	-10447.335000	-16155.630000	-12680.010000	0.000000	0.000000	0.000000	0.000000	0.663742	-5.399701	1.460022	-1.322284	-0.000000	-0.000000	-0.000000	-0.000000	2.762060	0.091560	-0.763000	0.005371	0.978757	-0.072693	-1.000000	-1.000000	-1.000000	-1.000000	-1.000000	-1.000000	-1.000000	146.620690	0.000000	-1.000000	-1.000000	203766.000000	1772311065.399483
-16094.700000	-10419.885000	-16138.935000	-12665.340000	0.000000	0.000000	0.000000	0.000000	-3.096886	-1.045894	-2.825417	-5.846331	-0.000000	-0.000000	-0.000000	-0.000000	2.762060	0.091560	-0.763000	0.005371	0.978757	-0.072693	-1.000000	-1.000000	-1.000000	-1.000000	-1.000000	-1.000000	-1.000000	146.620690	0.000000	-1.000000	-1.000000	203767.000000	1772311065.399486
-16067.655000	-10419.030000	-16111.575000	-12635.730000	0.000000	0.000000	0.000000	0.000000	-2.861928	4.112601	-2.705137	-3.578955	-0.000000	-0.000000	-0.000000	-0.000000	2.762060	0.091560	-0.763000	0.005371	0.978757	-0.072693	-1.000000	-1.000000	-1.000000	-1.000000	-1.000000	-1.000000	-1.000000	146.620690	0.000000	-1.000000	-1.000000	203768.000000	1772311065.403818
-16095.015000	-10449.900000	-16137.540000	-12656.340000	0.000000	0.000000	0.000000	0.000000	0.162468	5.213053	0.800365	2.945557	-0.000000	-0.000000	-0.000000	-0.000000	2.762060	0.091560	-0.763000	0.005371	0.978757	-0.072693	-1.000000	-1.000000	-1.000000	-1.000000	-1.000000	-1.000000	-1.000000	146.620690	0.000000	-1.000000	-1.000000	203769.000000	1772311065.403820
-16127.370000	-10484.505000	-16168.545000	-12687.345000	0.000000	0.000000	0.000000	0.000000	1.039327	-1.607909	2.395613	6.879604	-0.000000	-0.000000	-0.000000	-0.000000	3.769220	0.122080	-0.457800	0.004822	0.978818	-0.072143	-1.000000	-1.000000	-1.000000	-1.000000	-1.000000	-1.000000	-1.000000	146.620690	0.000000	-1.000000	-1.000000	203770.000000	1772311065.407857
-16094.115000	-10502.145000	-16137.090000	-12656.205000	0.000000	0.000000	0.000000	0.000000	-3.324055	-14.203309	-1.573434	3.479171	-0.000000	-0.000000	-0.000000	-0.000000	3.769220	0.122080	-0.457800	0.004822	0.978818	-0.072143	-1.000000	-1.000000	-1.000000	-1.000000	-1.000000	-1.000000	-1.000000	146.620690	0.000000	-1.000000	-1.000000	203771.000000	1772311065.407860
-16091.190000	-10505.700000	-16132.725000	-12652.155000	0.000000	0.000000	0.000000	0.000000	-8.298594	-24.015923	-6.880628	-3.372310	-0.000000	-0.000000	-0.000000	-0.000000	3.769220	0.122080	-0.457800	0.004822	0.978818	-0.072143	-1.000000	-1.000000	-1.000000	-1.000000	-1.000000	-1.000000	-1.000000	146.620690	0.000000	-1.000000	-1.000000	203772.000000	1772311065.411816
-16129.890000	-10503.855000	-16158.870000	-12677.220000	0.000000	0.000000	0.000000	0.000000	-8.537380	-22.616831	-7.853095	-7.236257	-0.000000	-0.000000	-0.000000	-0.000000	3.769220	0.122080	-0.457800	0.004822	0.978818	-0.072143	-1.000000	-1.000000	-1.000000	-1.000000	-1.000000	-1.000000	-1.000000	146.620690	0.000000	-1.000000	-1.000000	203773.000000	1772311065.411819
-16097.715000	-10518.930000	-16128.450000	-12648.465000	0.000000	0.000000	0.000000	0.000000	-5.062912	-9.105733	-4.682855	-6.889818	-0.000000	-0.000000	-0.000000	-0.000000	3.769220	0.122080	-0.457800	0.004822	0.978818	-0.072143	-1.000000	-1.000000	-1.000000	-1.000000	-1.000000	-1.000000	-1.000000	146.620690	0.000000	-1.000000	-1.000000	203774.000000	1772311065.415848
-16094.025000	-10517.220000	-16131.645000	-12653.055000	0.000000	0.000000	0.000000	0.000000	-0.096959	9.221156	0.231402	-3.654493	-0.000000	-0.000000	-0.000000	-0.000000	3.769220	0.122080	-0.457800	0.004822	0.978818	-0.072143	-1.000000	-1.000000	-1.000000	-1.000000	-1.000000	-1.000000	-1.000000	146.620690	0.000000	-1.000000	-1.000000	203775.000000	1772311065.415851
-16112.835000	-10503.270000	-16147.395000	-12668.625000	0.000000	0.000000	0.000000	0.000000	5.215750	23.566474	4.690039	0.594323	-0.000000	-0.000000	-0.000000	-0.000000	3.769220	0.122080	-0.457800	0.004822	0.978818	-0.072143	-1.000000	-1.000000	-1.000000	-1.000000	-1.000000	-1.000000	-1.000000	146.620690	0.000000	-1.000000	-1.000000	203776.000000	1772311065.419895
-16121.745000	-10478.475000	-16160.310000	-12679.785000	0.000000	0.000000	0.000000	0.000000	7.769619	29.826292	5.598120	2.597146	-0.000000	-0.000000	-0.000000	-0.000000	3.769220	0.122080	-0.457800	0.004822	0.978818	-0.072143	-1.000000	-1.000000	-1.000000	-1.000000	-1.000000	-1.000000	-1.000000	146.620690	0.000000	-1.000000	-1.000000	203777.000000	1772311065.419897
-16106.670000	-10454.355000	-16147.215000	-12663.720000	0.000000	0.000000	0.000000	0.000000	5.820010	28.558013	2.314855	1.296364	-0.000000	-0.000000	-0.000000	-0.000000	3.769220	0.122080	-0.457800	0.004822	0.978818	-0.072143	-1.000000	-1.000000	-1.000000	-1.000000	-1.000000	-1.000000	-1.000000	146.620690	0.000000	-1.000000	-1.000000	203778.000000	1772311065.423813
-16086.195000	-10453.140000	-16125.075000	-12643.515000	0.000000	0.000000	0.000000	0.000000	2.504619	21.452853	-1.128839	-0.006168	-0.000000	-0.000000	-0.000000	-0.000000	3.769220	0.122080	-0.457800	0.004822	0.978818	-0.072143	-1.000000	-1.000000	-1.000000	-1.000000	-1.000000	-1.000000	-1.000000	146.620690	0.000000	-1.000000	-1.000000	203779.000000	1772311065.423816
-16087.230000	-10470.780000	-16123.590000	-12646.080000	0.000000	0.000000	0.000000	0.000000	1.651152	9.123475	-0.597555	1.803195	-0.000000	-0.000000	-0.000000	-0.000000	3.570840	-0.183120	-0.503580	0.005249	0.978818	-0.073852	-1.000000	-1.000000	-1.000000	-1.000000	-1.000000	-1.000000	-1.000000	146.620690	0.000000	-1.000000	-1.000000	203780.000000	1772311065.428010
-16109.595000	-10461.555000	-16143.840000	-12665.745000	0.000000	0.000000	0.000000	0.000000	2.358179	-6.926884	2.621931	4.790434	-0.000000	-0.000000	-0.000000	-0.000000	3.570840	-0.183120	-0.503580	0.005249	0.978818	-0.073852	-1.000000	-1.000000	-1.000000	-1.000000	-1.000000	-1.000000	-1.000000	146.620690	0.000000	-1.000000	-1.000000	203781.000000	1772311065.428013
-16123.995000	-10429.380000	-16158.465000	-12677.400000	0.000000	0.000000	0.000000	0.000000	0.539599	-20.882714	3.327398	4.269172	-0.000000	-0.000000	-0.000000	-0.000000	3.570840	-0.183120	-0.503580	0.005249	0.978818	-0.073852	-1.000000	-1.000000	-1.000000	-1.000000	-1.000000	-1.000000	-1.000000	146.620690	0.000000	-1.000000	-1.000000	203782.000000	1772311065.431832
-16122.555000	-10386.540000	-16157.925000	-12676.680000	0.000000	0.000000	0.000000	0.000000	-4.761286	-24.857271	-0.711812	-0.790204	-0.000000	-0.000000	-0.000000	-0.000000	3.570840	-0.183120	-0.503580	0.005249	0.978818	-0.073852	-1.000000	-1.000000	-1.000000	-1.000000	-1.000000	-1.000000	-1.000000	146.620690	0.000000	-1.000000	-1.000000	203783.000000	1772311065.431835
-16116.570000	-10343.745000	-16154.235000	-12673.890000	0.000000	0.000000	0.000000	0.000000	-9.368972	-16.007425	-5.934000	-6.244205	-0.000000	-0.000000	-0.000000	-0.000000	3.570840	-0.183120	-0.503580	0.005249	0.978818	-0.073852	-1.000000	-1.000000	-1.000000	-1.000000	-1.000000	-1.000000	-1.000000	146.620690	0.000000	-1.000000	-1.000000	203784.000000	1772311065.435876
-16114.815000	-10307.565000	-16156.890000	-12676.140000	0.000000	0.000000	0.000000	0.000000	-8.783939	0.185778	-7.474387	-7.567655	-0.000000	-0.000000	-0.000000	-0.000000	3.570840	-0.183120	-0.503580	0.005249	0.978818	-0.073852	-1.000000	-1.000000	-1.000000	-1.000000	-1.000000	-1.000000	-1.000000	146.620690	0.000000	-1.000000	-1.000000	203785.000000	1772311065.435880
-16114.095000	-10287.090000	-16156.080000	-12675.015000	0.000000	0.000000	0.000000	0.000000	-2.958579	13.693378	-4.202889	-4.124293	-0.000000	-0.000000	-0.000000	-0.000000	3.570840	-0.183120	-0.503580	0.005249	0.978818	-0.073852	-1.000000	-1.000000	-1.000000	-1.000000	-1.000000	-1.000000	-1.000000	146.620690	0.000000	-1.000000	-1.000000	203786.000000	1772311065.439812
-16101.405000	-10319.580000	-16142.130000	-12660.525000	0.000000	0.000000	0.000000	0.000000	4.453586	15.769370	1.567037	1.626644	-0.000000	-0.000000	-0.000000	-0.000000	3.570840	-0.183120	-0.503580	0.005249	0.978818	-0.073852	-1.000000	-1.000000	-1.000000	-1.000000	-1.000000	-1.000000	-1.000000	146.620690	0.000000	-1.000000	-1.000000	203787.000000	1772311065.439814
-16091.055000	-10337.130000	-16128.810000	-12644.055000	0.000000	0.000000	0.000000	0.000000	9.885465	3.505777	7.168929	7.161685	-0.000000	-0.000000	-0.000000	-0.000000	3.570840	-0.183120	-0.503580	0.005249	0.978818	-0.073852	-1.000000	-1.000000	-1.000000	-1.000000	-1.000000	-1.000000	-1.000000	146.620690	0.000000	-1.000000	-1.000000	203788.000000	1772311065.445218
-16089.165000	-10336.275000	-16122.960000	-12641.715000	0.000000	0.000000	0.000000	0.000000	11.512955	-16.657230	10.637902	10.638137	-0.000000	-0.000000	-0.000000	-0.000000	3.570840	-0.183120	-0.503580	0.005249	0.978818	-0.073852	-1.000000	-1.000000	-1.000000	-1.000000	-1.000000	-1.000000	-1.000000	146.620690	0.000000	-1.000000	-1.000000	203789.000000	1772311065.445220
-16114.725000	-10343.430000	-16147.755000	-12672.855000	0.000000	0.000000	0.000000	0.000000	8.336804	-31.661023	9.868588	9.668331	-0.000000	-0.000000	-0.000000	-0.000000	2.380560	0.137340	-0.427280	0.005859	0.980405	-0.075805	-1.000000	-1.000000	-1.000000	-1.000000	-1.000000	-1.000000	-1.000000	146.620690	0.000000	-1.000000	-1.000000	203790.000000	1772311065.447803
-16155.675000	-10330.020000	-16194.690000	-12720.105000	0.000000	0.000000	0.000000	0.000000	-0.192066	-31.676446	2.770590	1.838469	-0.000000	-0.000000	-0.000000	-0.000000	2.380560	0.137340	-0.427280	0.005859	0.980405	-0.075805	-1.000000	-1.000000	-1.000000	-1.000000	-1.000000	-1.000000	-1.000000	146.620690	0.000000	-1.000000	-1.000000	203791.000000	1772311065.447806
-16138.935000	-10311.615000	-16179.345000	-12699.540000	0.000000	0.000000	0.000000	0.000000	-11.469846	-16.297709	-9.124218	-10.757744	-0.000000	-0.000000	-0.000000	-0.000000	2.380560	0.137340	-0.427280	0.005859	0.980405	-0.075805	-1.000000	-1.000000	-1.000000	-1.000000	-1.000000	-1.000000	-1.000000	146.620690	0.000000	-1.000000	-1.000000	203792.000000	1772311065.451877
-16106.940000	-10314.720000	-16147.665000	-12658.320000	0.000000	0.000000	0.000000	0.000000	-17.647135	6.587184	-17.553864	-18.633862	-0.000000	-0.000000	-0.000000	-0.000000	2.380560	0.137340	-0.427280	0.005859	0.980405	-0.075805	-1.000000	-1.000000	-1.000000	-1.000000	-1.000000	-1.000000	-1.000000	146.620690	0.000000	-1.000000	-1.000000	203793.000000	1772311065.451880
-16103.655000	-10324.215000	-16145.775000	-12665.340000	0.000000	0.000000	0.000000	0.000000	-12.057763	25.236011	-14.218453	-13.327088	-0.000000	-0.000000	-0.000000	-0.000000	2.380560	0.137340	-0.427280	0.005859	0.980405	-0.075805	-1.000000	-1.000000	-1.000000	-1.000000	-1.000000	-1.000000	-1.000000	146.620690	0.000000	-1.000000	-1.000000	203794.000000	1772311065.456213
-16098.030000	-10376.550000	-16139.790000	-12671.820000	0.000000	0.000000	0.000000	0.000000	2.137096	30.086081	-0.898530	1.453376	-0.000000	-0.000000	-0.000000	-0.000000	2.380560	0.137340	-0.427280	0.005859	0.980405	-0.075805	-1.000000	-1.000000	-1.000000	-1.000000	-1.000000	-1.000000	-1.000000	146.620690	0.000000	-1.000000	-1.000000	203795.000000	1772311065.456216
-16104.555000	-10396.980000	-16146.765000	-12678.930000	0.000000	0.000000	0.000000	0.000000	14.604332	19.170027	12.331913	13.693141	-0.000000	-0.000000	-0.000000	-0.000000	2.380560	0.137340	-0.427280	0.005859	0.980405	-0.075805	-1.000000	-1.000000	-1.000000	-1.000000	-1.000000	-1.000000	-1.000000	146.620690	0.000000	-1.000000	-1.000000	203796.000000	1772311065.461708
-16110.135000	-10410.345000	-16147.080000	-12667.950000	0.000000	0.000000	0.000000	0.000000	17.433645	0.225016	16.986320	15.926608	-0.000000	-0.000000	-0.000000	-0.000000	2.380560	0.137340	-0.427280	0.005859	0.980405	-0.075805	-1.000000	-1.000000	-1.000000	-1.000000	-1.000000	-1.000000	-1.000000	146.620690	0.000000	-1.000000	-1.000000	203797.000000	1772311065.461711
-16123.815000	-10409.130000	-16155.315000	-12661.335000	0.000000	0.000000	0.000000	0.000000	10.036806	-14.018974	11.729189	9.991307	-0.000000	-0.000000	-0.000000	-0.000000	2.380560	0.137340	-0.427280	0.005859	0.980405	-0.075805	-1.000000	-1.000000	-1.000000	-1.000000	-1.000000	-1.000000	-1.000000	146.620690	0.000000	-1.000000	-1.000000	203798.000000	1772311065.463949
-16117.065000	-10423.665000	-16150.140000	-12657.150000	0.000000	0.000000	0.000000	0.000000	-2.053265	-15.553491	1.300179	2.001546	-0.000000	-0.000000	-0.000000	-0.000000	2.380560	0.137340	-0.427280	0.005859	0.980405	-0.075805	-1.000000	-1.000000	-1.000000	-1.000000	-1.000000	-1.000000	-1.000000	146.620690	0.000000	-1.000000	-1.000000	203799.000000	1772311065.463951
-16109.460000	-10414.980000	-16142.265000	-12643.515000	0.000000	0.000000	0.000000	0.000000	-11.182730	-5.917833	-7.577714	-3.523579	-0.000000	-0.000000	-0.000000	-0.000000	1.342880	0.305200	-0.350980	0.006531	0.980832	-0.076721	-1.000000	-1.000000	-1.000000	-1.000000	-1.000000	-1.000000	-1.000000	146.620690	0.000000	-1.000000	-1.000000	203800.000000	1772311065.468072
-16102.980000	-10403.415000	-16139.070000	-12637.980000	0.000000	0.000000	0.000000	0.000000	-12.468802	7.777963	-10.442270	-5.233702	-0.000000	-0.000000	-0.000000	-0.000000	1.342880	0.305200	-0.350980	0.006531	0.980832	-0.076721	-1.000000	-1.000000	-1.000000	-1.000000	-1.000000	-1.000000	-1.000000	146.620690	0.000000	-1.000000	-1.000000	203801.000000	1772311065.468075
-16093.035000	-10398.555000	-16133.670000	-12645.450000	0.000000	0.000000	0.000000	0.000000	-6.608585	18.555156	-7.386085	-4.451473	-0.000000	-0.000000	-0.000000	-0.000000	1.342880	0.305200	-0.350980	0.006531	0.980832	-0.076721	-1.000000	-1.000000	-1.000000	-1.000000	-1.000000	-1.000000	-1.000000	146.620690	0.000000	-1.000000	-1.000000	203802.000000	1772311065.471937
-16085.160000	-10401.705000	-16130.295000	-12659.490000	0.000000	0.000000	0.000000	0.000000	1.817408	21.738165	-1.763787	-4.009865	-0.000000	-0.000000	-0.000000	-0.000000	1.342880	0.305200	-0.350980	0.006531	0.980832	-0.076721	-1.000000	-1.000000	-1.000000	-1.000000	-1.000000	-1.000000	-1.000000	146.620690	0.000000	-1.000000	-1.000000	203803.000000	1772311065.471940
-16104.240000	-10399.815000	-16148.115000	-12676.950000	0.000000	0.000000	0.000000	0.000000	7.553615	16.019289	2.471609	-5.774519	-0.000000	-0.000000	-0.000000	-0.000000	1.342880	0.305200	-0.350980	0.006531	0.980832	-0.076721	-1.000000	-1.000000	-1.000000	-1.000000	-1.000000	-1.000000	-1.000000	146.620690	0.000000	-1.000000	-1.000000	203804.000000	1772311065.475931
-16129.710000	-10388.520000	-16166.970000	-12685.005000	0.000000	0.000000	0.000000	0.000000	6.743161	4.509816	2.463232	-8.767614	-0.000000	-0.000000	-0.000000	-0.000000	1.342880	0.305200	-0.350980	0.006531	0.980832	-0.076721	-1.000000	-1.000000	-1.000000	-1.000000	-1.000000	-1.000000	-1.000000	146.620690	0.000000	-1.000000	-1.000000	203805.000000	1772311065.475933
-16123.905000	-10377.990000	-16160.490000	-12678.030000	0.000000	0.000000	0.000000	0.000000	-0.266044	-6.813972	-1.441936	-9.669461	-0.000000	-0.000000	-0.000000	-0.000000	1.342880	0.305200	-0.350980	0.006531	0.980832	-0.076721	-1.000000	-1.000000	-1.000000	-1.000000	-1.000000	-1.000000	-1.000000	146.620690	0.000000	-1.000000	-1.000000	203806.000000	1772311065.479876
-16118.775000	-10353.150000	-16156.845000	-12677.760000	0.000000	0.000000	0.000000	0.000000	-7.664046	-12.859469	-5.021496	-5.644490	-0.000000	-0.000000	-0.000000	-0.000000	1.342880	0.305200	-0.350980	0.006531	0.980832	-0.076721	-1.000000	-1.000000	-1.000000	-1.000000	-1.000000	-1.000000	-1.000000	146.620690	0.000000	-1.000000	-1.000000	203807.000000	1772311065.479879
-16118.685000	-10322.280000	-16156.125000	-12670.200000	0.000000	0.000000	0.000000	0.000000	-9.189189	-11.807828	-4.251903	2.642410	-0.000000	-0.000000	-0.000000	-0.000000	1.342880	0.305200	-0.350980	0.006531	0.980832	-0.076721	-1.000000	-1.000000	-1.000000	-1.000000	-1.000000	-1.000000	-1.000000	146.620690	0.000000	-1.000000	-1.000000	203808.000000	1772311065.485343
-16112.835000	-10318.770000	-16155.495000	-12670.470000	0.000000	0.000000	0.000000	0.000000	-4.002902	-5.777329	0.564821	11.197107	-0.000000	-0.000000	-0.000000	-0.000000	1.342880	0.305200	-0.350980	0.006531	0.980832	-0.076721	-1.000000	-1.000000	-1.000000	-1.000000	-1.000000	-1.000000	-1.000000	146.620690	0.000000	-1.000000	-1.000000	203809.000000	1772311065.485346
-16119.675000	-10312.245000	-16166.250000	-12686.310000	0.000000	0.000000	0.000000	0.000000	3.723573	-0.050272	5.695580	15.350861	-0.000000	-0.000000	-0.000000	-0.000000	1.327620	0.350980	-0.396760	0.006531	0.979734	-0.075867	-1.000000	-1.000000	-1.000000	-1.000000	-1.000000	-1.000000	-1.000000	146.620690	0.000000	-1.000000	-1.000000	203810.000000	1772311065.488034
-16120.260000	-10286.640000	-16170.705000	-12694.860000	0.000000	0.000000	0.000000	0.000000	8.909034	1.293615	7.500667	12.480044	-0.000000	-0.000000	-0.000000	-0.000000	1.327620	0.350980	-0.396760	0.006531	0.979734	-0.075867	-1.000000	-1.000000	-1.000000	-1.000000	-1.000000	-1.000000	-1.000000	146.620690	0.000000	-1.000000	-1.000000	203811.000000	1772311065.488037
-16109.055000	-10234.080000	-16160.535000	-12683.340000	0.000000	0.000000	0.000000	0.000000	9.280184	-0.238953	5.425491	4.421929	-0.000000	-0.000000	-0.000000	-0.000000	1.327620	0.350980	-0.396760	0.006531	0.979734	-0.075867	-1.000000	-1.000000	-1.000000	-1.000000	-1.000000	-1.000000	-1.000000	146.620690	0.000000	-1.000000	-1.000000	203812.000000	1772311065.493477
-16112.205000	-10232.370000	-16161.030000	-12679.155000	0.000000	0.000000	0.000000	0.000000	6.201120	-0.568594	2.052404	-3.258895	-0.000000	-0.000000	-0.000000	-0.000000	1.327620	0.350980	-0.396760	0.006531	0.979734	-0.075867	-1.000000	-1.000000	-1.000000	-1.000000	-1.000000	-1.000000	-1.000000	146.620690	0.000000	-1.000000	-1.000000	203813.000000	1772311065.493480
-16109.910000	-10247.895000	-16147.080000	-12660.390000	0.000000	0.000000	0.000000	0.000000	2.039204	-0.170032	0.051966	-5.965415	-0.000000	-0.000000	-0.000000	-0.000000	1.327620	0.350980	-0.396760	0.006531	0.979734	-0.075867	-1.000000	-1.000000	-1.000000	-1.000000	-1.000000	-1.000000	-1.000000	146.620690	0.000000	-1.000000	-1.000000	203814.000000	1772311065.495966
-16103.790000	-10274.490000	-16137.900000	-12652.290000	0.000000	0.000000	0.000000	0.000000	-1.636327	-3.608752	0.199539	-3.328791	-0.000000	-0.000000	-0.000000	-0.000000	1.327620	0.350980	-0.396760	0.006531	0.979734	-0.075867	-1.000000	-1.000000	-1.000000	-1.000000	-1.000000	-1.000000	-1.000000	146.620690	0.000000	-1.000000	-1.000000	203815.000000	1772311065.495969
-16091.820000	-10255.545000	-16137.315000	-12656.925000	0.000000	0.000000	0.000000	0.000000	-3.628459	-11.408113	1.441876	1.205351	-0.000000	-0.000000	-0.000000	-0.000000	1.327620	0.350980	-0.396760	0.006531	0.979734	-0.075867	-1.000000	-1.000000	-1.000000	-1.000000	-1.000000	-1.000000	-1.000000	146.620690	0.000000	-1.000000	-1.000000	203816.000000	1772311065.499982
-16095.780000	-10245.195000	-16152.570000	-12670.695000	0.000000	0.000000	0.000000	0.000000	-3.519815	-16.946021	1.404530	2.902322	-0.000000	-0.000000	-0.000000	-0.000000	1.327620	0.350980	-0.396760	0.006531	0.979734	-0.075867	-1.000000	-1.000000	-1.000000	-1.000000	-1.000000	-1.000000	-1.000000	146.620690	0.000000	-1.000000	-1.000000	203817.000000	1772311065.499985
-16101.450000	-10270.350000	-16158.870000	-12672.945000	0.000000	0.000000	0.000000	0.000000	-2.603960	-14.261692	-1.719937	-0.415596	-0.000000	-0.000000	-0.000000	-0.000000	1.327620	0.350980	-0.396760	0.006531	0.979734	-0.075867	-1.000000	-1.000000	-1.000000	-1.000000	-1.000000	-1.000000	-1.000000	146.620690	0.000000	-1.000000	-1.000000	203818.000000	1772311065.504078
-16102.800000	-10288.530000	-16147.440000	-12662.910000	0.000000	0.000000	0.000000	0.000000	-2.624286	-5.552639	-6.496788	-6.060938	-0.000000	-0.000000	-0.000000	-0.000000	1.327620	0.350980	-0.396760	0.006531	0.979734	-0.075867	-1.000000	-1.000000	-1.000000	-1.000000	-1.000000	-1.000000	-1.000000	146.620690	0.000000	-1.000000	-1.000000	203819.000000	1772311065.504081
-16101.630000	-10273.905000	-16141.770000	-12660.030000	0.000000	0.000000	0.000000	0.000000	-3.572523	3.228071	-8.793269	-8.968331	-0.000000	-0.000000	-0.000000	-0.000000	2.090620	0.228900	-0.442540	0.006592	0.979368	-0.075073	-1.000000	-1.000000	-1.000000	-1.000000	-1.000000	-1.000000	-1.000000	146.620690	0.000000	-1.000000	-1.000000	203820.000000	1772311065.508005
-16102.350000	-10284.615000	-16142.850000	-12659.040000	0.000000	0.000000	0.000000	0.000000	-3.944572	9.595742	-6.249491	-6.746728	-0.000000	-0.000000	-0.000000	-0.000000	2.090620	0.228900	-0.442540	0.006592	0.979368	-0.075073	-1.000000	-1.000000	-1.000000	-1.000000	-1.000000	-1.000000	-1.000000	146.620690	0.000000	-1.000000	-1.000000	203821.000000	1772311065.508008
-16137.585000	-10298.835000	-16181.370000	-12695.850000	0.000000	0.000000	0.000000	0.000000	-3.353331	13.199626	-1.467278	-2.010202	-0.000000	-0.000000	-0.000000	-0.000000	2.090620	0.228900	-0.442540	0.006592	0.979368	-0.075073	-1.000000	-1.000000	-1.000000	-1.000000	-1.000000	-1.000000	-1.000000	146.620690	0.000000	-1.000000	-1.000000	203822.000000	1772311065.512135
-16140.240000	-10292.805000	-16181.820000	-12695.985000	0.000000	0.000000	0.000000	0.000000	-3.184061	13.319836	0.778272	0.597121	-0.000000	-0.000000	-0.000000	-0.000000	2.090620	0.228900	-0.442540	0.006592	0.979368	-0.075073	-1.000000	-1.000000	-1.000000	-1.000000	-1.000000	-1.000000	-1.000000	146.620690	0.000000	-1.000000	-1.000000	203823.000000	1772311065.512146
-16118.190000	-10273.320000	-16156.935000	-12668.490000	0.000000	0.000000	0.000000	0.000000	-2.973961	10.992945	0.139131	0.577594	-0.000000	-0.000000	-0.000000	-0.000000	2.090620	0.228900	-0.442540	0.006592	0.979368	-0.075073	-1.000000	-1.000000	-1.000000	-1.000000	-1.000000	-1.000000	-1.000000	146.620690	0.000000	-1.000000	-1.000000	203824.000000	1772311065.522228
-16109.505000	-10284.660000	-16147.980000	-12656.880000	0.000000	0.000000	0.000000	0.000000	0.354534	8.526840	1.152010	2.148879	-0.000000	-0.000000	-0.000000	-0.000000	2.090620	0.228900	-0.442540	0.006592	0.979368	-0.075073	-1.000000	-1.000000	-1.000000	-1.000000	-1.000000	-1.000000	-1.000000	146.620690	0.000000	-1.000000	-1.000000	203825.000000	1772311065.522233
-16096.320000	-10311.840000	-16140.150000	-12652.380000	0.000000	0.000000	0.000000	0.000000	7.305297	5.492957	5.899151	7.082599	-0.000000	-0.000000	-0.000000	-0.000000	2.090620	0.228900	-0.442540	0.006592	0.979368	-0.075073	-1.000000	-1.000000	-1.000000	-1.000000	-1.000000	-1.000000	-1.000000	146.620690	0.000000	-1.000000	-1.000000	203826.000000	1772311065.522237
-16085.250000	-10314.585000	-16135.740000	-12659.400000	0.000000	0.000000	0.000000	0.000000	13.946368	-0.224659	10.954944	11.443185	-0.000000	-0.000000	-0.000000	-0.000000	2.090620	0.228900	-0.442540	0.006592	0.979368	-0.075073	-1.000000	-1.000000	-1.000000	-1.000000	-1.000000	-1.000000	-1.000000	146.620690	0.000000	-1.000000	-1.000000	203827.000000	1772311065.522239
-16089.615000	-10355.895000	-16134.750000	-12649.770000	0.000000	0.000000	0.000000	0.000000	15.618935	-7.972024	11.809078	10.652263	-0.000000	-0.000000	-0.000000	-0.000000	2.090620	0.228900	-0.442540	0.006592	0.979368	-0.075073	-1.000000	-1.000000	-1.000000	-1.000000	-1.000000	-1.000000	-1.000000	146.620690	0.000000	-1.000000	-1.000000	203828.000000	1772311065.524046
-16103.070000	-10374.705000	-16141.590000	-12650.175000	0.000000	0.000000	0.000000	0.000000	10.066975	-14.704952	6.923627	4.596360	-0.000000	-0.000000	-0.000000	-0.000000	2.090620	0.228900	-0.442540	0.006592	0.979368	-0.075073	-1.000000	-1.000000	-1.000000	-1.000000	-1.000000	-1.000000	-1.000000	146.620690	0.000000	-1.000000	-1.000000	203829.000000	1772311065.524052
-16092.765000	-10380.645000	-16129.125000	-12634.470000	0.000000	0.000000	0.000000	0.000000	-0.874322	-17.069790	-1.451529	-2.886317	-0.000000	-0.000000	-0.000000	-0.000000	3.280900	-0.122080	-0.396760	0.006348	0.978940	-0.073242	-1.000000	-1.000000	-1.000000	-1.000000	-1.000000	-1.000000	-1.000000	146.620690	0.000000	-1.000000	-1.000000	203830.000000	1772311065.528111
-16099.020000	-10362.870000	-16139.475000	-12647.880000	0.000000	0.000000	0.000000	0.000000	-11.553485	-12.051393	-8.942861	-7.985965	-0.000000	-0.000000	-0.000000	-0.000000	3.280900	-0.122080	-0.396760	0.006348	0.978940	-0.073242	-1.000000	-1.000000	-1.000000	-1.000000	-1.000000	-1.000000	-1.000000	146.620690	0.000000	-1.000000	-1.000000	203831.000000	1772311065.528115
-16116.930000	-10362.285000	-16164.855000	-12686.940000	0.000000	0.000000	0.000000	0.000000	-16.999352	0.323511	-12.896260	-10.461638	-0.000000	-0.000000	-0.000000	-0.000000	3.280900	-0.122080	-0.396760	0.006348	0.978940	-0.073242	-1.000000	-1.000000	-1.000000	-1.000000	-1.000000	-1.000000	-1.000000	146.620690	0.000000	-1.000000	-1.000000	203832.000000	1772311065.532144
-16116.795000	-10354.095000	-16160.355000	-12677.490000	0.000000	0.000000	0.000000	0.000000	-16.379914	14.785918	-13.534962	-12.173158	-0.000000	-0.000000	-0.000000	-0.000000	3.280900	-0.122080	-0.396760	0.006348	0.978940	-0.073242	-1.000000	-1.000000	-1.000000	-1.000000	-1.000000	-1.000000	-1.000000	146.620690	0.000000	-1.000000	-1.000000	203833.000000	1772311065.532147
-16122.825000	-10355.535000	-16170.210000	-12682.125000	0.000000	0.000000	0.000000	0.000000	-11.200900	23.797060	-11.067599	-12.108127	-0.000000	-0.000000	-0.000000	-0.000000	3.280900	-0.122080	-0.396760	0.006348	0.978940	-0.073242	-1.000000	-1.000000	-1.000000	-1.000000	-1.000000	-1.000000	-1.000000	146.620690	0.000000	-1.000000	-1.000000	203834.000000	1772311065.536131
-16121.565000	-10367.685000	-16170.165000	-12684.465000	0.000000	0.000000	0.000000	0.000000	-3.385708	22.647323	-5.390793	-7.587104	-0.000000	-0.000000	-0.000000	-0.000000	3.280900	-0.122080	-0.396760	0.006348	0.978940	-0.073242	-1.000000	-1.000000	-1.000000	-1.000000	-1.000000	-1.000000	-1.000000	146.620690	0.000000	-1.000000	-1.000000	203835.000000	1772311065.536134
-16119.045000	-10403.280000	-16165.170000	-12684.420000	0.000000	0.000000	0.000000	0.000000	4.759421	11.379440	2.199454	0.765275	-0.000000	-0.000000	-0.000000	-0.000000	3.280900	-0.122080	-0.396760	0.006348	0.978940	-0.073242	-1.000000	-1.000000	-1.000000	-1.000000	-1.000000	-1.000000	-1.000000	146.620690	0.000000	-1.000000	-1.000000	203836.000000	1772311065.540134
-16099.425000	-10417.950000	-16142.490000	-12662.100000	0.000000	0.000000	0.000000	0.000000	11.268668	-5.609447	9.761397	9.658080	-0.000000	-0.000000	-0.000000	-0.000000	3.280900	-0.122080	-0.396760	0.006348	0.978940	-0.073242	-1.000000	-1.000000	-1.000000	-1.000000	-1.000000	-1.000000	-1.000000	146.620690	0.000000	-1.000000	-1.000000	203837.000000	1772311065.540137
-16095.645000	-10414.080000	-16136.145000	-12651.210000	0.000000	0.000000	0.000000	0.000000	15.024883	-20.253801	15.546126	16.309604	-0.000000	-0.000000	-0.000000	-0.000000	3.280900	-0.122080	-0.396760	0.006348	0.978940	-0.073242	-1.000000	-1.000000	-1.000000	-1.000000	-1.000000	-1.000000	-1.000000	146.620690	0.000000	-1.000000	-1.000000	203838.000000	1772311065.545453
-16116.570000	-10444.680000	-16155.540000	-12671.055000	0.000000	0.000000	0.000000	0.000000	14.555995	-25.074443	16.965723	18.241364	-0.000000	-0.000000	-0.000000	-0.000000	3.280900	-0.122080	-0.396760	0.006348	0.978940	-0.073242	-1.000000	-1.000000	-1.000000	-1.000000	-1.000000	-1.000000	-1.000000	146.620690	0.000000	-1.000000	-1.000000	203839.000000	1772311065.545455
-16115.445000	-10441.620000	-16155.855000	-12671.010000	0.000000	0.000000	0.000000	0.000000	8.456124	-18.978967	11.541182	13.171498	-0.000000	-0.000000	-0.000000	-0.000000	3.891300	-0.259420	-0.335720	0.005676	0.979856	-0.073669	-1.000000	-1.000000	-1.000000	-1.000000	-1.000000	-1.000000	-1.000000	146.620690	0.000000	-1.000000	-1.000000	203840.000000	1772311065.549529
-16095.420000	-10415.700000	-16137.540000	-12652.740000	0.000000	0.000000	0.000000	0.000000	-0.937067	-5.893097	1.159849	2.744109	-0.000000	-0.000000	-0.000000	-0.000000	3.891300	-0.259420	-0.335720	0.005676	0.979856	-0.073669	-1.000000	-1.000000	-1.000000	-1.000000	-1.000000	-1.000000	-1.000000	146.620690	0.000000	-1.000000	-1.000000	203841.000000	1772311065.549532
-16098.030000	-10403.190000	-16139.880000	-12650.400000	0.000000	0.000000	0.000000	0.000000	-7.923893	9.641964	-7.983616	-6.932857	-0.000000	-0.000000	-0.000000	-0.000000	3.891300	-0.259420	-0.335720	0.005676	0.979856	-0.073669	-1.000000	-1.000000	-1.000000	-1.000000	-1.000000	-1.000000	-1.000000	146.620690	0.000000	-1.000000	-1.000000	203842.000000	1772311065.553146
-16096.725000	-10377.540000	-16137.810000	-12640.230000	0.000000	0.000000	0.000000	0.000000	-9.426355	22.547051	-11.584856	-11.071421	-0.000000	-0.000000	-0.000000	-0.000000	3.891300	-0.259420	-0.335720	0.005676	0.979856	-0.073669	-1.000000	-1.000000	-1.000000	-1.000000	-1.000000	-1.000000	-1.000000	146.620690	0.000000	-1.000000	-1.000000	203843.000000	1772311065.553149
-16105.095000	-10347.030000	-16145.685000	-12643.020000	0.000000	0.000000	0.000000	0.000000	-7.213812	28.126017	-10.286271	-9.750720	-0.000000	-0.000000	-0.000000	-0.000000	3.891300	-0.259420	-0.335720	0.005676	0.979856	-0.073669	-1.000000	-1.000000	-1.000000	-1.000000	-1.000000	-1.000000	-1.000000	146.620690	0.000000	-1.000000	-1.000000	203844.000000	1772311065.557569
-16092.000000	-10359.495000	-16137.270000	-12649.815000	0.000000	0.000000	0.000000	0.000000	-4.233623	24.180021	-6.846343	-6.228535	-0.000000	-0.000000	-0.000000	-0.000000	3.891300	-0.259420	-0.335720	0.005676	0.979856	-0.073669	-1.000000	-1.000000	-1.000000	-1.000000	-1.000000	-1.000000	-1.000000	146.620690	0.000000	-1.000000	-1.000000	203845.000000	1772311065.557572
-16096.005000	-10379.565000	-16141.230000	-12672.585000	0.000000	0.000000	0.000000	0.000000	-1.635684	10.622825	-3.121794	-4.066073	-0.000000	-0.000000	-0.000000	-0.000000	3.891300	-0.259420	-0.335720	0.005676	0.979856	-0.073669	-1.000000	-1.000000	-1.000000	-1.000000	-1.000000	-1.000000	-1.000000	146.620690	0.000000	-1.000000	-1.000000	203846.000000	1772311065.561983
-16104.330000	-10412.145000	-16141.815000	-12665.340000	0.000000	0.000000	0.000000	0.000000	0.277007	-9.750052	0.042135	-4.442993	-0.000000	-0.000000	-0.000000	-0.000000	3.891300	-0.259420	-0.335720	0.005676	0.979856	-0.073669	-1.000000	-1.000000	-1.000000	-1.000000	-1.000000	-1.000000	-1.000000	146.620690	0.000000	-1.000000	-1.000000	203847.000000	1772311065.561986
-16110.090000	-10411.380000	-16149.330000	-12670.200000	0.000000	0.000000	0.000000	0.000000	0.780664	-29.421020	1.949576	-5.092677	-0.000000	-0.000000	-0.000000	-0.000000	3.891300	-0.259420	-0.335720	0.005676	0.979856	-0.073669	-1.000000	-1.000000	-1.000000	-1.000000	-1.000000	-1.000000	-1.000000	146.620690	0.000000	-1.000000	-1.000000	203848.000000	1772311065.564313
-16106.625000	-10386.540000	-16147.665000	-12668.940000	0.000000	0.000000	0.000000	0.000000	-0.006783	-38.062739	2.343653	-3.166915	-0.000000	-0.000000	-0.000000	-0.000000	3.891300	-0.259420	-0.335720	0.005676	0.979856	-0.073669	-1.000000	-1.000000	-1.000000	-1.000000	-1.000000	-1.000000	-1.000000	146.620690	0.000000	-1.000000	-1.000000	203849.000000	1772311065.564316
-16085.565000	-10393.290000	-16129.755000	-12647.745000	0.000000	0.000000	0.000000	0.000000	-0.184488	-29.717665	2.229586	1.819833	-0.000000	-0.000000	-0.000000	-0.000000	3.601360	-0.305200	-0.427280	0.006042	0.979551	-0.074585	-1.000000	-1.000000	-1.000000	-1.000000	-1.000000	-1.000000	-1.000000	146.620690	0.000000	-1.000000	-1.000000	203850.000000	1772311065.567980
-16090.785000	-10404.810000	-16137.945000	-12652.830000	0.000000	0.000000	0.000000	0.000000	1.886459	-9.389580	2.969471	8.113874	-0.000000	-0.000000	-0.000000	-0.000000	3.601360	-0.305200	-0.427280	0.006042	0.979551	-0.074585	-1.000000	-1.000000	-1.000000	-1.000000	-1.000000	-1.000000	-1.000000	146.620690	0.000000	-1.000000	-1.000000	203851.000000	1772311065.567984
-16111.080000	-10383.345000	-16156.260000	-12673.170000	0.000000	0.000000	0.000000	0.000000	4.484600	11.106321	3.669336	11.944192	-0.000000	-0.000000	-0.000000	-0.000000	3.601360	-0.305200	-0.427280	0.006042	0.979551	-0.074585	-1.000000	-1.000000	-1.000000	-1.000000	-1.000000	-1.000000	-1.000000	146.620690	0.000000	-1.000000	-1.000000	203852.000000	1772311065.572516
-16102.530000	-10362.645000	-16140.915000	-12667.905000	0.000000	0.000000	0.000000	0.000000	4.169486	23.786637	2.313811	9.842403	-0.000000	-0.000000	-0.000000	-0.000000	3.601360	-0.305200	-0.427280	0.006042	0.979551	-0.074585	-1.000000	-1.000000	-1.000000	-1.000000	-1.000000	-1.000000	-1.000000	146.620690	0.000000	-1.000000	-1.000000	203853.000000	1772311065.572525
-16085.790000	-10320.300000	-16132.455000	-12663.900000	0.000000	0.000000	0.000000	0.000000	1.189599	27.893914	-0.122920	3.095188	-0.000000	-0.000000	-0.000000	-0.000000	3.601360	-0.305200	-0.427280	0.006042	0.979551	-0.074585	-1.000000	-1.000000	-1.000000	-1.000000	-1.000000	-1.000000	-1.000000	146.620690	0.000000	-1.000000	-1.000000	203854.000000	1772311065.577028
-16112.115000	-10308.150000	-16154.280000	-12672.315000	0.000000	0.000000	0.000000	0.000000	-1.339692	25.614595	-1.344615	-3.468534	-0.000000	-0.000000	-0.000000	-0.000000	3.601360	-0.305200	-0.427280	0.006042	0.979551	-0.074585	-1.000000	-1.000000	-1.000000	-1.000000	-1.000000	-1.000000	-1.000000	146.620690	0.000000	-1.000000	-1.000000	203855.000000	1772311065.577032
-16106.580000	-10316.790000	-16145.190000	-12652.245000	0.000000	0.000000	0.000000	0.000000	-2.605871	17.644349	-1.614816	-6.378624	-0.000000	-0.000000	-0.000000	-0.000000	3.601360	-0.305200	-0.427280	0.006042	0.979551	-0.074585	-1.000000	-1.000000	-1.000000	-1.000000	-1.000000	-1.000000	-1.000000	146.620690	0.000000	-1.000000	-1.000000	203856.000000	1772311065.580241
-16094.115000	-10347.030000	-16134.570000	-12646.395000	0.000000	0.000000	0.000000	0.000000	-3.048639	3.239243	-1.601788	-4.803398	-0.000000	-0.000000	-0.000000	-0.000000	3.601360	-0.305200	-0.427280	0.006042	0.979551	-0.074585	-1.000000	-1.000000	-1.000000	-1.000000	-1.000000	-1.000000	-1.000000	146.620690	0.000000	-1.000000	-1.000000	203857.000000	1772311065.580245
-16100.640000	-10366.830000	-16138.710000	-12652.560000	0.000000	0.000000	0.000000	0.000000	-1.947005	-15.622643	-0.598653	-0.513820	-0.000000	-0.000000	-0.000000	-0.000000	3.601360	-0.305200	-0.427280	0.006042	0.979551	-0.074585	-1.000000	-1.000000	-1.000000	-1.000000	-1.000000	-1.000000	-1.000000	146.620690	0.000000	-1.000000	-1.000000	203858.000000	1772311065.584179
-16100.955000	-10367.910000	-16141.680000	-12655.665000	0.000000	0.000000	0.000000	0.000000	0.323811	-31.721715	0.981832	2.660730	-0.000000	-0.000000	-0.000000	-0.000000	3.601360	-0.305200	-0.427280	0.006042	0.979551	-0.074585	-1.000000	-1.000000	-1.000000	-1.000000	-1.000000	-1.000000	-1.000000	146.620690	0.000000	-1.000000	-1.000000	203859.000000	1772311065.584182
-16114.005000	-10367.370000	-16156.215000	-12668.310000	0.000000	0.000000	0.000000	0.000000	1.726868	-36.226716	1.285428	2.017492	-0.000000	-0.000000	-0.000000	-0.000000	3.052000	0.137340	-0.305200	0.006409	0.980527	-0.076355	-1.000000	-1.000000	-1.000000	-1.000000	-1.000000	-1.000000	-1.000000	146.620690	0.000000	-1.000000	-1.000000	203860.000000	1772311065.588967
-16122.465000	-10374.840000	-16165.755000	-12679.155000	0.000000	0.000000	0.000000	0.000000	0.873709	-25.962245	-0.696081	-1.959655	-0.000000	-0.000000	-0.000000	-0.000000	3.052000	0.137340	-0.305200	0.006409	0.980527	-0.076355	-1.000000	-1.000000	-1.000000	-1.000000	-1.000000	-1.000000	-1.000000	146.620690	0.000000	-1.000000	-1.000000	203861.000000	1772311065.588970
-16128.630000	-10370.070000	-16171.065000	-12682.440000	0.000000	0.000000	0.000000	0.000000	-1.647471	-6.268059	-3.828605	-6.429451	-0.000000	-0.000000	-0.000000	-0.000000	3.052000	0.137340	-0.305200	0.006409	0.980527	-0.076355	-1.000000	-1.000000	-1.000000	-1.000000	-1.000000	-1.000000	-1.000000	146.620690	0.000000	-1.000000	-1.000000	203862.000000	1772311065.592269
-16113.195000	-10347.030000	-16154.280000	-12669.390000	0.000000	0.000000	0.000000	0.000000	-3.379795	13.921579	-5.216744	-7.815478	-0.000000	-0.000000	-0.000000	-0.000000	3.052000	0.137340	-0.305200	0.006409	0.980527	-0.076355	-1.000000	-1.000000	-1.000000	-1.000000	-1.000000	-1.000000	-1.000000	146.620690	0.000000	-1.000000	-1.000000	203863.000000	1772311065.592271
-16104.825000	-10335.510000	-16144.965000	-12663.090000	0.000000	0.000000	0.000000	0.000000	-1.757156	27.892815	-2.356958	-4.035919	-0.000000	-0.000000	-0.000000	-0.000000	3.052000	0.137340	-0.305200	0.006409	0.980527	-0.076355	-1.000000	-1.000000	-1.000000	-1.000000	-1.000000	-1.000000	-1.000000	146.620690	0.000000	-1.000000	-1.000000	203864.000000	1772311065.596213
-16116.030000	-10323.360000	-16152.390000	-12668.085000	0.000000	0.000000	0.000000	0.000000	2.794326	32.265366	3.766894	3.187343	-0.000000	-0.000000	-0.000000	-0.000000	3.052000	0.137340	-0.305200	0.006409	0.980527	-0.076355	-1.000000	-1.000000	-1.000000	-1.000000	-1.000000	-1.000000	-1.000000	146.620690	0.000000	-1.000000	-1.000000	203865.000000	1772311065.596217
-16101.180000	-10300.005000	-16142.445000	-12658.275000	0.000000	0.000000	0.000000	0.000000	6.707157	26.822187	8.811397	9.278710	-0.000000	-0.000000	-0.000000	-0.000000	3.052000	0.137340	-0.305200	0.006409	0.980527	-0.076355	-1.000000	-1.000000	-1.000000	-1.000000	-1.000000	-1.000000	-1.000000	146.620690	0.000000	-1.000000	-1.000000	203866.000000	1772311065.600497
-16087.905000	-10290.060000	-16128.225000	-12638.070000	0.000000	0.000000	0.000000	0.000000	7.600693	14.746137	9.712049	11.284654	-0.000000	-0.000000	-0.000000	-0.000000	3.052000	0.137340	-0.305200	0.006409	0.980527	-0.076355	-1.000000	-1.000000	-1.000000	-1.000000	-1.000000	-1.000000	-1.000000	146.620690	0.000000	-1.000000	-1.000000	203867.000000	1772311065.600499
-16113.555000	-10271.340000	-16154.595000	-12655.665000	0.000000	0.000000	0.000000	0.000000	5.525868	0.844872	6.514351	9.306970	-0.000000	-0.000000	-0.000000	-0.000000	3.052000	0.137340	-0.305200	0.006409	0.980527	-0.076355	-1.000000	-1.000000	-1.000000	-1.000000	-1.000000	-1.000000	-1.000000	146.620690	0.000000	-1.000000	-1.000000	203868.000000	1772311065.603877
-16137.135000	-10238.625000	-16179.345000	-12688.200000	0.000000	0.000000	0.000000	0.000000	0.163181	-10.306265	-0.321738	3.386970	-0.000000	-0.000000	-0.000000	-0.000000	3.052000	0.137340	-0.305200	0.006409	0.980527	-0.076355	-1.000000	-1.000000	-1.000000	-1.000000	-1.000000	-1.000000	-1.000000	146.620690	0.000000	-1.000000	-1.000000	203869.000000	1772311065.603880
