Channel1	Channel2	Channel3	Channel4	Channel5	Channel6	Channel7	Channel8	FilteredChannel1	FilteredChannel2	FilteredChannel3	FilteredChannel4	FilteredChannel5	FilteredChannel6	FilteredChannel7	FilteredChannel8	GyroX	GyroY	GyroZ	AccX	AccY	AccZ	PPG1	PPG2	rawPPG1	rawPPG2	rawPPG3	Hr	Hrv	Battery	Trigger	PhysicalTrigger	AutoTrigger	NumMeasurements	Timestamp
-2106.180000	35986.995000	-14489.190000	-17138.790000	0.000000	0.000000	0.000000	0.000000	27.576099	-49.613728	27.564085	37.376295	0.000000	0.000000	0.000000	0.000000	7.080640	-0.488320	-0.061040	-0.021851	0.908323	0.390746	-1.000000	-1.000000	-1.000000	-1.000000	-1.000000	-1.000000	-1.000000	138.689655	0.000000	-1.000000	-1.000000	227651.000000	1772918483.645013
-2102.670000	35903.520000	-14486.895000	-17143.515000	0.000000	0.000000	0.000000	0.000000	116.643133	-19.206628	184.592406	185.267720	0.000000	0.000000	0.000000	0.000000	7.080640	-0.488320	-0.061040	-0.021851	0.908323	0.390746	-1.000000	-1.000000	-1.000000	-1.000000	-1.000000	-1.000000	-1.000000	138.689655	0.000000	-1.000000	-1.000000	227652.000000	1772918483.645016
-2165.490000	35908.020000	-14580.990000	-17243.100000	0.000000	0.000000	0.000000	0.000000	145.947603	6.344302	245.794593	236.397570	0.000000	0.000000	0.000000	0.000000	7.080640	-0.488320	-0.061040	-0.021851	0.908323	0.390746	-1.000000	-1.000000	-1.000000	-1.000000	-1.000000	-1.000000	-1.000000	138.689655	0.000000	-1.000000	-1.000000	227653.000000	1772918483.649022
-2293.245000	35942.985000	-14790.825000	-17443.485000	0.000000	0.000000	0.000000	0.000000	96.161039	21.227683	173.972863	159.314135	0.000000	0.000000	0.000000	0.000000	7.080640	-0.488320	-0.061040	-0.021851	0.908323	0.390746	-1.000000	-1.000000	-1.000000	-1.000000	-1.000000	-1.000000	-1.000000	138.689655	0.000000	-1.000000	-1.000000	227654.000000	1772918483.649024
-2429.370000	35941.320000	-15030.315000	-17673.255000	0.000000	0.000000	0.000000	0.000000	-8.691587	31.438216	4.667950	-7.355379	0.000000	0.000000	0.000000	0.000000	7.080640	-0.488320	-0.061040	-0.021851	0.908323	0.390746	-1.000000	-1.000000	-1.000000	-1.000000	-1.000000	-1.000000	-1.000000	138.689655	0.000000	-1.000000	-1.000000	227655.000000	1772918483.658027
-2428.695000	35981.235000	-15029.055000	-17663.490000	0.000000	0.000000	0.000000	0.000000	-113.341291	40.099054	-172.173467	-175.172056	0.000000	0.000000	0.000000	0.000000	7.080640	-0.488320	-0.061040	-0.021851	0.908323	0.390746	-1.000000	-1.000000	-1.000000	-1.000000	-1.000000	-1.000000	-1.000000	138.689655	0.000000	-1.000000	-1.000000	227656.000000	1772918483.658031
-2401.515000	36075.195000	-14958.315000	-17594.415000	0.000000	0.000000	0.000000	0.000000	-160.550271	45.084908	-258.859315	-251.730125	0.000000	0.000000	0.000000	0.000000	7.080640	-0.488320	-0.061040	-0.021851	0.908323	0.390746	-1.000000	-1.000000	-1.000000	-1.000000	-1.000000	-1.000000	-1.000000	138.689655	0.000000	-1.000000	-1.000000	227657.000000	1772918483.658035
-2316.870000	36117.675000	-14812.245000	-17454.960000	0.000000	0.000000	0.000000	0.000000	-124.763832	44.737391	-207.070172	-194.516148	0.000000	0.000000	0.000000	0.000000	7.080640	-0.488320	-0.061040	-0.021851	0.908323	0.390746	-1.000000	-1.000000	-1.000000	-1.000000	-1.000000	-1.000000	-1.000000	138.689655	0.000000	-1.000000	-1.000000	227658.000000	1772918483.658037
-2177.640000	36182.115000	-14574.150000	-17221.500000	0.000000	0.000000	0.000000	0.000000	-26.276964	36.923607	-46.975217	-36.344081	0.000000	0.000000	0.000000	0.000000	7.080640	-0.488320	-0.061040	-0.021851	0.908323	0.390746	-1.000000	-1.000000	-1.000000	-1.000000	-1.000000	-1.000000	-1.000000	138.689655	0.000000	-1.000000	-1.000000	227659.000000	1772918483.660800
-2172.870000	36275.265000	-14548.230000	-17203.410000	0.000000	0.000000	0.000000	0.000000	83.286548	20.468600	134.821665	138.096331	0.000000	0.000000	0.000000	0.000000	7.080640	-0.488320	-0.061040	-0.021851	0.908323	0.390746	-1.000000	-1.000000	-1.000000	-1.000000	-1.000000	-1.000000	-1.000000	138.689655	0.000000	-1.000000	-1.000000	227660.000000	1772918483.660803
-2208.780000	36340.875000	-14616.405000	-17272.485000	0.000000	0.000000	0.000000	0.000000	147.262624	-0.517386	241.783385	236.920837	0.000000	0.000000	0.000000	0.000000	7.813120	0.045780	0.656180	-0.022461	0.907651	0.391662	-1.000000	-1.000000	-1.000000	-1.000000	-1.000000	-1.000000	-1.000000	138.689655	0.000000	-1.000000	-1.000000	227661.000000	1772918483.665021
-2299.815000	36367.830000	-14761.530000	-17410.995000	0.000000	0.000000	0.000000	0.000000	133.348772	-20.601804	218.233808	208.904053	0.000000	0.000000	0.000000	0.000000	7.813120	0.045780	0.656180	-0.022461	0.907651	0.391662	-1.000000	-1.000000	-1.000000	-1.000000	-1.000000	-1.000000	-1.000000	138.689655	0.000000	-1.000000	-1.000000	227662.000000	1772918483.665023
-2487.015000	36354.285000	-15059.790000	-17702.370000	0.000000	0.000000	0.000000	0.000000	50.934197	-38.492358	79.584223	71.545375	0.000000	0.000000	0.000000	0.000000	7.813120	0.045780	0.656180	-0.022461	0.907651	0.391662	-1.000000	-1.000000	-1.000000	-1.000000	-1.000000	-1.000000	-1.000000	138.689655	0.000000	-1.000000	-1.000000	227663.000000	1772918483.668020
-2470.365000	36238.095000	-15080.580000	-17715.735000	0.000000	0.000000	0.000000	0.000000	-55.343429	-56.172837	-98.991316	-101.213228	0.000000	0.000000	0.000000	0.000000	7.813120	0.045780	0.656180	-0.022461	0.907651	0.391662	-1.000000	-1.000000	-1.000000	-1.000000	-1.000000	-1.000000	-1.000000	138.689655	0.000000	-1.000000	-1.000000	227664.000000	1772918483.668022
-2401.695000	36185.085000	-14984.055000	-17614.890000	0.000000	0.000000	0.000000	0.000000	-125.667426	-73.487953	-218.564205	-214.075643	0.000000	0.000000	0.000000	0.000000	7.813120	0.045780	0.656180	-0.022461	0.907651	0.391662	-1.000000	-1.000000	-1.000000	-1.000000	-1.000000	-1.000000	-1.000000	138.689655	0.000000	-1.000000	-1.000000	227665.000000	1772918483.673619
-2314.350000	36150.255000	-14843.700000	-17482.815000	0.000000	0.000000	0.000000	0.000000	-119.027634	-81.484681	-210.477207	-202.265938	0.000000	0.000000	0.000000	0.000000	7.813120	0.045780	0.656180	-0.022461	0.907651	0.391662	-1.000000	-1.000000	-1.000000	-1.000000	-1.000000	-1.000000	-1.000000	138.689655	0.000000	-1.000000	-1.000000	227666.000000	1772918483.673622
-2140.740000	36133.110000	-14564.880000	-17210.745000	0.000000	0.000000	0.000000	0.000000	-41.730467	-66.578409	-81.394718	-74.608085	0.000000	0.000000	0.000000	0.000000	7.813120	0.045780	0.656180	-0.022461	0.907651	0.391662	-1.000000	-1.000000	-1.000000	-1.000000	-1.000000	-1.000000	-1.000000	138.689655	0.000000	-1.000000	-1.000000	227667.000000	1772918483.679524
-2112.750000	36252.945000	-14481.855000	-17134.290000	0.000000	0.000000	0.000000	0.000000	59.252487	-23.150886	93.857398	94.948338	0.000000	0.000000	0.000000	0.000000	7.813120	0.045780	0.656180	-0.022461	0.907651	0.391662	-1.000000	-1.000000	-1.000000	-1.000000	-1.000000	-1.000000	-1.000000	138.689655	0.000000	-1.000000	-1.000000	227668.000000	1772918483.679527
-2185.965000	36299.745000	-14575.365000	-17233.560000	0.000000	0.000000	0.000000	0.000000	124.022172	40.182721	215.251669	209.825730	0.000000	0.000000	0.000000	0.000000	7.813120	0.045780	0.656180	-0.022461	0.907651	0.391662	-1.000000	-1.000000	-1.000000	-1.000000	-1.000000	-1.000000	-1.000000	138.689655	0.000000	-1.000000	-1.000000	227669.000000	1772918483.680173
-2267.955000	36316.755000	-14701.320000	-17355.915000	0.000000	0.000000	0.000000	0.000000	112.942360	99.187557	211.764158	202.754937	0.000000	0.000000	0.000000	0.000000	7.813120	0.045780	0.656180	-0.022461	0.907651	0.391662	-1.000000	-1.000000	-1.000000	-1.000000	-1.000000	-1.000000	-1.000000	138.689655	0.000000	-1.000000	-1.000000	227670.000000	1772918483.680176
-2417.940000	36359.820000	-14954.580000	-17600.535000	0.000000	0.000000	0.000000	0.000000	32.395193	124.455397	85.325884	77.725388	0.000000	0.000000	0.000000	0.000000	10.285240	1.464960	0.396760	-0.018921	0.913450	0.396728	-1.000000	-1.000000	-1.000000	-1.000000	-1.000000	-1.000000	-1.000000	138.689655	0.000000	-1.000000	-1.000000	227671.000000	1772918483.685517
-2466.585000	36273.420000	-15073.830000	-17711.415000	0.000000	0.000000	0.000000	0.000000	-70.502962	101.741742	-92.469624	-94.240419	0.000000	0.000000	0.000000	0.000000	10.285240	1.464960	0.396760	-0.018921	0.913450	0.396728	-1.000000	-1.000000	-1.000000	-1.000000	-1.000000	-1.000000	-1.000000	138.689655	0.000000	-1.000000	-1.000000	227672.000000	1772918483.685519
-2441.340000	36259.785000	-15029.010000	-17659.710000	0.000000	0.000000	0.000000	0.000000	-137.043650	39.859261	-222.849276	-217.392307	0.000000	0.000000	0.000000	0.000000	10.285240	1.464960	0.396760	-0.018921	0.913450	0.396728	-1.000000	-1.000000	-1.000000	-1.000000	-1.000000	-1.000000	-1.000000	138.689655	0.000000	-1.000000	-1.000000	227673.000000	1772918483.689004
-2411.955000	36317.790000	-14962.365000	-17592.480000	0.000000	0.000000	0.000000	0.000000	-130.206085	-32.138793	-233.620743	-223.400813	0.000000	0.000000	0.000000	0.000000	10.285240	1.464960	0.396760	-0.018921	0.913450	0.396728	-1.000000	-1.000000	-1.000000	-1.000000	-1.000000	-1.000000	-1.000000	138.689655	0.000000	-1.000000	-1.000000	227674.000000	1772918483.689007
-2243.520000	36303.930000	-14706.945000	-17343.630000	0.000000	0.000000	0.000000	0.000000	-54.513866	-78.750787	-119.715151	-109.812024	0.000000	0.000000	0.000000	0.000000	10.285240	1.464960	0.396760	-0.018921	0.913450	0.396728	-1.000000	-1.000000	-1.000000	-1.000000	-1.000000	-1.000000	-1.000000	138.689655	0.000000	-1.000000	-1.000000	227675.000000	1772918483.693115
-2116.395000	36291.195000	-14490.315000	-17138.250000	0.000000	0.000000	0.000000	0.000000	52.160820	-83.716282	59.832416	64.235669	0.000000	0.000000	0.000000	0.000000	10.285240	1.464960	0.396760	-0.018921	0.913450	0.396728	-1.000000	-1.000000	-1.000000	-1.000000	-1.000000	-1.000000	-1.000000	138.689655	0.000000	-1.000000	-1.000000	227676.000000	1772918483.693118
-2170.890000	36382.905000	-14553.090000	-17207.550000	0.000000	0.000000	0.000000	0.000000	137.362290	-55.942767	213.640596	209.903763	0.000000	0.000000	0.000000	0.000000	10.285240	1.464960	0.396760	-0.018921	0.913450	0.396728	-1.000000	-1.000000	-1.000000	-1.000000	-1.000000	-1.000000	-1.000000	138.689655	0.000000	-1.000000	-1.000000	227677.000000	1772918483.697253
-2280.015000	36497.295000	-14695.830000	-17347.815000	0.000000	0.000000	0.000000	0.000000	153.279109	-11.410415	256.931970	246.622061	0.000000	0.000000	0.000000	0.000000	10.285240	1.464960	0.396760	-0.018921	0.913450	0.396728	-1.000000	-1.000000	-1.000000	-1.000000	-1.000000	-1.000000	-1.000000	138.689655	0.000000	-1.000000	-1.000000	227678.000000	1772918483.697256
-2408.355000	36543.510000	-14904.540000	-17548.470000	0.000000	0.000000	0.000000	0.000000	85.961125	34.546733	160.992296	149.419544	0.000000	0.000000	0.000000	0.000000	10.285240	1.464960	0.396760	-0.018921	0.913450	0.396728	-1.000000	-1.000000	-1.000000	-1.000000	-1.000000	-1.000000	-1.000000	138.689655	0.000000	-1.000000	-1.000000	227679.000000	1772918483.700945
-2494.890000	36447.795000	-15093.315000	-17728.065000	0.000000	0.000000	0.000000	0.000000	-28.810908	61.064268	-22.582019	-29.213347	0.000000	0.000000	0.000000	0.000000	10.285240	1.464960	0.396760	-0.018921	0.913450	0.396728	-1.000000	-1.000000	-1.000000	-1.000000	-1.000000	-1.000000	-1.000000	138.689655	0.000000	-1.000000	-1.000000	227680.000000	1772918483.700949
-2467.080000	36408.645000	-15066.495000	-17692.155000	0.000000	0.000000	0.000000	0.000000	-126.006353	49.103032	-191.978349	-190.136841	0.000000	0.000000	0.000000	0.000000	10.620960	0.030520	-2.075360	-0.015869	0.927244	0.392943	-1.000000	-1.000000	-1.000000	-1.000000	-1.000000	-1.000000	-1.000000	138.689655	0.000000	-1.000000	-1.000000	227681.000000	1772918483.705127
-2434.995000	36442.035000	-14998.590000	-17624.745000	0.000000	0.000000	0.000000	0.000000	-152.067144	4.076320	-254.323897	-245.110251	0.000000	0.000000	0.000000	0.000000	10.620960	0.030520	-2.075360	-0.015869	0.927244	0.392943	-1.000000	-1.000000	-1.000000	-1.000000	-1.000000	-1.000000	-1.000000	138.689655	0.000000	-1.000000	-1.000000	227682.000000	1772918483.705129
-2317.680000	36438.480000	-14815.620000	-17447.400000	0.000000	0.000000	0.000000	0.000000	-96.486116	-42.184573	-178.973177	-167.489222	0.000000	0.000000	0.000000	0.000000	10.620960	0.030520	-2.075360	-0.015869	0.927244	0.392943	-1.000000	-1.000000	-1.000000	-1.000000	-1.000000	-1.000000	-1.000000	138.689655	0.000000	-1.000000	-1.000000	227683.000000	1772918483.745251
-2136.645000	36381.285000	-14531.355000	-17171.820000	0.000000	0.000000	0.000000	0.000000	8.454256	-61.574730	-9.644622	-2.181414	0.000000	0.000000	0.000000	0.000000	10.620960	0.030520	-2.075360	-0.015869	0.927244	0.392943	-1.000000	-1.000000	-1.000000	-1.000000	-1.000000	-1.000000	-1.000000	138.689655	0.000000	-1.000000	-1.000000	227684.000000	1772918483.745255
-2143.440000	36440.730000	-14520.915000	-17171.145000	0.000000	0.000000	0.000000	0.000000	109.457526	-49.961184	165.177201	164.585202	0.000000	0.000000	0.000000	0.000000	10.620960	0.030520	-2.075360	-0.015869	0.927244	0.392943	-1.000000	-1.000000	-1.000000	-1.000000	-1.000000	-1.000000	-1.000000	138.689655	0.000000	-1.000000	-1.000000	227685.000000	1772918483.745261
-2205.495000	36513.810000	-14609.205000	-17264.745000	0.000000	0.000000	0.000000	0.000000	153.564351	-16.786196	252.582865	244.186988	0.000000	0.000000	0.000000	0.000000	10.620960	0.030520	-2.075360	-0.015869	0.927244	0.392943	-1.000000	-1.000000	-1.000000	-1.000000	-1.000000	-1.000000	-1.000000	138.689655	0.000000	-1.000000	-1.000000	227686.000000	1772918483.745263
-2299.050000	36541.305000	-14763.870000	-17409.645000	0.000000	0.000000	0.000000	0.000000	114.744806	24.863579	203.116093	191.298278	0.000000	0.000000	0.000000	0.000000	10.620960	0.030520	-2.075360	-0.015869	0.927244	0.392943	-1.000000	-1.000000	-1.000000	-1.000000	-1.000000	-1.000000	-1.000000	138.689655	0.000000	-1.000000	-1.000000	227687.000000	1772918483.745266
-2448.675000	36453.555000	-15028.245000	-17665.785000	0.000000	0.000000	0.000000	0.000000	13.153767	55.083221	43.133361	34.331856	0.000000	0.000000	0.000000	0.000000	10.620960	0.030520	-2.075360	-0.015869	0.927244	0.392943	-1.000000	-1.000000	-1.000000	-1.000000	-1.000000	-1.000000	-1.000000	138.689655	0.000000	-1.000000	-1.000000	227688.000000	1772918483.745268
-2426.805000	36252.900000	-15034.680000	-17668.125000	0.000000	0.000000	0.000000	0.000000	-95.927579	51.275047	-140.801040	-141.676867	0.000000	0.000000	0.000000	0.000000	10.620960	0.030520	-2.075360	-0.015869	0.927244	0.392943	-1.000000	-1.000000	-1.000000	-1.000000	-1.000000	-1.000000	-1.000000	138.689655	0.000000	-1.000000	-1.000000	227689.000000	1772918483.745271
-2356.245000	36162.585000	-14935.230000	-17564.760000	0.000000	0.000000	0.000000	0.000000	-152.009254	7.591990	-247.559632	-240.158979	0.000000	0.000000	0.000000	0.000000	10.620960	0.030520	-2.075360	-0.015869	0.927244	0.392943	-1.000000	-1.000000	-1.000000	-1.000000	-1.000000	-1.000000	-1.000000	138.689655	0.000000	-1.000000	-1.000000	227690.000000	1772918483.745273
-2262.510000	36053.820000	-14799.150000	-17423.820000	0.000000	0.000000	0.000000	0.000000	-124.073691	-50.919065	-217.887124	-206.246895	0.000000	0.000000	0.000000	0.000000	3.738700	-0.015260	-3.280900	-0.017456	0.919004	0.384459	-1.000000	-1.000000	-1.000000	-1.000000	-1.000000	-1.000000	-1.000000	138.689655	0.000000	-1.000000	-1.000000	227691.000000	1772918483.745276
-2131.110000	36092.970000	-14562.540000	-17190.585000	0.000000	0.000000	0.000000	0.000000	-30.464093	-83.076111	-71.726291	-61.455194	0.000000	0.000000	0.000000	0.000000	3.738700	-0.015260	-3.280900	-0.017456	0.919004	0.384459	-1.000000	-1.000000	-1.000000	-1.000000	-1.000000	-1.000000	-1.000000	138.689655	0.000000	-1.000000	-1.000000	227692.000000	1772918483.745278
-2137.230000	36331.830000	-14510.160000	-17153.910000	0.000000	0.000000	0.000000	0.000000	74.404195	-58.633226	107.733900	112.036663	0.000000	0.000000	0.000000	0.000000	3.738700	-0.015260	-3.280900	-0.017456	0.919004	0.384459	-1.000000	-1.000000	-1.000000	-1.000000	-1.000000	-1.000000	-1.000000	138.689655	0.000000	-1.000000	-1.000000	227693.000000	1772918483.745281
-2191.905000	36423.315000	-14586.120000	-17239.995000	0.000000	0.000000	0.000000	0.000000	132.028726	21.711186	222.391937	218.499522	0.000000	0.000000	0.000000	0.000000	3.738700	-0.015260	-3.280900	-0.017456	0.919004	0.384459	-1.000000	-1.000000	-1.000000	-1.000000	-1.000000	-1.000000	-1.000000	138.689655	0.000000	-1.000000	-1.000000	227694.000000	1772918483.745283
-2261.430000	36428.040000	-14704.380000	-17358.570000	0.000000	0.000000	0.000000	0.000000	112.886932	114.654076	211.715872	200.881642	0.000000	0.000000	0.000000	0.000000	3.738700	-0.015260	-3.280900	-0.017456	0.919004	0.384459	-1.000000	-1.000000	-1.000000	-1.000000	-1.000000	-1.000000	-1.000000	138.689655	0.000000	-1.000000	-1.000000	227695.000000	1772918483.745286
-2415.690000	36451.980000	-14958.270000	-17602.650000	0.000000	0.000000	0.000000	0.000000	32.195599	157.988241	85.984583	73.251494	0.000000	0.000000	0.000000	0.000000	3.738700	-0.015260	-3.280900	-0.017456	0.919004	0.384459	-1.000000	-1.000000	-1.000000	-1.000000	-1.000000	-1.000000	-1.000000	138.689655	0.000000	-1.000000	-1.000000	227696.000000	1772918483.745288
-2465.055000	36350.325000	-15072.975000	-17701.695000	0.000000	0.000000	0.000000	0.000000	-63.974646	120.197469	-84.495093	-92.317899	0.000000	0.000000	0.000000	0.000000	3.738700	-0.015260	-3.280900	-0.017456	0.919004	0.384459	-1.000000	-1.000000	-1.000000	-1.000000	-1.000000	-1.000000	-1.000000	138.689655	0.000000	-1.000000	-1.000000	227697.000000	1772918483.745291
-2434.500000	36359.910000	-15029.640000	-17644.680000	0.000000	0.000000	0.000000	0.000000	-123.968226	21.070052	-207.908116	-206.005561	0.000000	0.000000	0.000000	0.000000	3.738700	-0.015260	-3.280900	-0.017456	0.919004	0.384459	-1.000000	-1.000000	-1.000000	-1.000000	-1.000000	-1.000000	-1.000000	138.689655	0.000000	-1.000000	-1.000000	227698.000000	1772918483.745293
-2389.590000	36412.605000	-14942.115000	-17564.985000	0.000000	0.000000	0.000000	0.000000	-115.537906	-84.303263	-217.160149	-206.010116	0.000000	0.000000	0.000000	0.000000	3.738700	-0.015260	-3.280900	-0.017456	0.919004	0.384459	-1.000000	-1.000000	-1.000000	-1.000000	-1.000000	-1.000000	-1.000000	138.689655	0.000000	-1.000000	-1.000000	227699.000000	1772918483.745296
-2245.590000	36434.655000	-14704.830000	-17337.465000	0.000000	0.000000	0.000000	0.000000	-43.734500	-140.842471	-107.758704	-93.650710	0.000000	0.000000	0.000000	0.000000	3.738700	-0.015260	-3.280900	-0.017456	0.919004	0.384459	-1.000000	-1.000000	-1.000000	-1.000000	-1.000000	-1.000000	-1.000000	138.689655	0.000000	-1.000000	-1.000000	227700.000000	1772918483.745297
-2163.780000	36532.260000	-14532.255000	-17176.770000	0.000000	0.000000	0.000000	0.000000	54.002387	-127.824571	62.312380	70.904213	0.000000	0.000000	0.000000	0.000000	4.486440	-0.457800	0.000000	-0.023682	0.912046	0.388732	-1.000000	-1.000000	-1.000000	-1.000000	-1.000000	-1.000000	-1.000000	138.689655	0.000000	-1.000000	-1.000000	227701.000000	1772918483.745300
-2205.180000	36619.155000	-14580.000000	-17233.920000	0.000000	0.000000	0.000000	0.000000	127.103641	-63.114652	203.748301	201.676224	0.000000	0.000000	0.000000	0.000000	4.486440	-0.457800	0.000000	-0.023682	0.912046	0.388732	-1.000000	-1.000000	-1.000000	-1.000000	-1.000000	-1.000000	-1.000000	138.689655	0.000000	-1.000000	-1.000000	227702.000000	1772918483.745302
-2263.320000	36669.555000	-14678.865000	-17328.690000	0.000000	0.000000	0.000000	0.000000	135.187587	15.419376	238.634209	227.219437	0.000000	0.000000	0.000000	0.000000	4.486440	-0.457800	0.000000	-0.023682	0.912046	0.388732	-1.000000	-1.000000	-1.000000	-1.000000	-1.000000	-1.000000	-1.000000	138.689655	0.000000	-1.000000	-1.000000	227703.000000	1772918483.749260
-2366.955000	36626.670000	-14869.890000	-17512.155000	0.000000	0.000000	0.000000	0.000000	72.638590	68.475412	146.006921	132.052319	0.000000	0.000000	0.000000	0.000000	4.486440	-0.457800	0.000000	-0.023682	0.912046	0.388732	-1.000000	-1.000000	-1.000000	-1.000000	-1.000000	-1.000000	-1.000000	138.689655	0.000000	-1.000000	-1.000000	227704.000000	1772918483.749263
-2436.480000	36471.690000	-15036.480000	-17670.015000	0.000000	0.000000	0.000000	0.000000	-26.381685	70.316502	-23.742760	-32.194943	0.000000	0.000000	0.000000	0.000000	4.486440	-0.457800	0.000000	-0.023682	0.912046	0.388732	-1.000000	-1.000000	-1.000000	-1.000000	-1.000000	-1.000000	-1.000000	138.689655	0.000000	-1.000000	-1.000000	227705.000000	1772918483.753209
-2390.535000	36369.225000	-14987.205000	-17614.800000	0.000000	0.000000	0.000000	0.000000	-108.256408	21.407443	-178.531751	-177.014566	0.000000	0.000000	0.000000	0.000000	4.486440	-0.457800	0.000000	-0.023682	0.912046	0.388732	-1.000000	-1.000000	-1.000000	-1.000000	-1.000000	-1.000000	-1.000000	138.689655	0.000000	-1.000000	-1.000000	227706.000000	1772918483.753211
-2385.450000	36418.995000	-14944.140000	-17573.040000	0.000000	0.000000	0.000000	0.000000	-130.367577	-45.116160	-235.181867	-225.079137	0.000000	0.000000	0.000000	0.000000	4.486440	-0.457800	0.000000	-0.023682	0.912046	0.388732	-1.000000	-1.000000	-1.000000	-1.000000	-1.000000	-1.000000	-1.000000	138.689655	0.000000	-1.000000	-1.000000	227707.000000	1772918483.757178
-2306.205000	36501.480000	-14792.400000	-17427.330000	0.000000	0.000000	0.000000	0.000000	-86.044111	-79.230962	-167.616381	-154.888820	0.000000	0.000000	0.000000	0.000000	4.486440	-0.457800	0.000000	-0.023682	0.912046	0.388732	-1.000000	-1.000000	-1.000000	-1.000000	-1.000000	-1.000000	-1.000000	138.689655	0.000000	-1.000000	-1.000000	227708.000000	1772918483.757180
-2174.670000	36641.070000	-14550.795000	-17189.550000	0.000000	0.000000	0.000000	0.000000	-3.116407	-51.730364	-16.952650	-8.432126	0.000000	0.000000	0.000000	0.000000	4.486440	-0.457800	0.000000	-0.023682	0.912046	0.388732	-1.000000	-1.000000	-1.000000	-1.000000	-1.000000	-1.000000	-1.000000	138.689655	0.000000	-1.000000	-1.000000	227709.000000	1772918483.761303
-2212.290000	36822.780000	-14576.445000	-17223.120000	0.000000	0.000000	0.000000	0.000000	76.126631	23.957717	137.646326	138.049044	0.000000	0.000000	0.000000	0.000000	4.486440	-0.457800	0.000000	-0.023682	0.912046	0.388732	-1.000000	-1.000000	-1.000000	-1.000000	-1.000000	-1.000000	-1.000000	138.689655	0.000000	-1.000000	-1.000000	227710.000000	1772918483.761308
-2282.445000	36849.825000	-14684.220000	-17335.800000	0.000000	0.000000	0.000000	0.000000	111.070817	102.945215	214.400225	207.222382	0.000000	0.000000	0.000000	0.000000	8.652420	-2.319520	1.495480	-0.026428	0.916929	0.391906	-1.000000	-1.000000	-1.000000	-1.000000	-1.000000	-1.000000	-1.000000	138.689655	0.000000	-1.000000	-1.000000	227711.000000	1772918483.765263
-2342.340000	36749.655000	-14808.645000	-17455.185000	0.000000	0.000000	0.000000	0.000000	83.025774	133.430364	171.292246	160.610864	0.000000	0.000000	0.000000	0.000000	8.652420	-2.319520	1.495480	-0.026428	0.916929	0.391906	-1.000000	-1.000000	-1.000000	-1.000000	-1.000000	-1.000000	-1.000000	138.689655	0.000000	-1.000000	-1.000000	227712.000000	1772918483.765267
-2474.370000	36655.020000	-15053.490000	-17688.420000	0.000000	0.000000	0.000000	0.000000	9.832033	87.275602	34.748420	26.171505	0.000000	0.000000	0.000000	0.000000	8.652420	-2.319520	1.495480	-0.026428	0.916929	0.391906	-1.000000	-1.000000	-1.000000	-1.000000	-1.000000	-1.000000	-1.000000	138.689655	0.000000	-1.000000	-1.000000	227713.000000	1772918483.770801
-2478.465000	36571.275000	-15086.025000	-17710.290000	0.000000	0.000000	0.000000	0.000000	-66.624767	-15.584085	-118.798081	-120.654952	0.000000	0.000000	0.000000	0.000000	8.652420	-2.319520	1.495480	-0.026428	0.916929	0.391906	-1.000000	-1.000000	-1.000000	-1.000000	-1.000000	-1.000000	-1.000000	138.689655	0.000000	-1.000000	-1.000000	227714.000000	1772918483.770805
-2438.910000	36577.305000	-15012.360000	-17633.520000	0.000000	0.000000	0.000000	0.000000	-104.204095	-116.759581	-205.162919	-199.172073	0.000000	0.000000	0.000000	0.000000	8.652420	-2.319520	1.495480	-0.026428	0.916929	0.391906	-1.000000	-1.000000	-1.000000	-1.000000	-1.000000	-1.000000	-1.000000	138.689655	0.000000	-1.000000	-1.000000	227715.000000	1772918483.773855
-2370.015000	36648.855000	-14888.520000	-17517.555000	0.000000	0.000000	0.000000	0.000000	-81.995949	-158.023884	-176.279899	-165.816334	0.000000	0.000000	0.000000	0.000000	8.652420	-2.319520	1.495480	-0.026428	0.916929	0.391906	-1.000000	-1.000000	-1.000000	-1.000000	-1.000000	-1.000000	-1.000000	138.689655	0.000000	-1.000000	-1.000000	227716.000000	1772918483.773858
-2215.800000	36717.300000	-14628.555000	-17265.420000	0.000000	0.000000	0.000000	0.000000	-11.903329	-117.633089	-48.097496	-39.362822	0.000000	0.000000	0.000000	0.000000	8.652420	-2.319520	1.495480	-0.026428	0.916929	0.391906	-1.000000	-1.000000	-1.000000	-1.000000	-1.000000	-1.000000	-1.000000	138.689655	0.000000	-1.000000	-1.000000	227717.000000	1772918483.777258
-2179.080000	36820.215000	-14547.375000	-17196.705000	0.000000	0.000000	0.000000	0.000000	69.387902	-20.942859	110.789019	112.453781	0.000000	0.000000	0.000000	0.000000	8.652420	-2.319520	1.495480	-0.026428	0.916929	0.391906	-1.000000	-1.000000	-1.000000	-1.000000	-1.000000	-1.000000	-1.000000	138.689655	0.000000	-1.000000	-1.000000	227718.000000	1772918483.777261
-2193.840000	36761.895000	-14587.920000	-17244.945000	0.000000	0.000000	0.000000	0.000000	118.132922	77.566101	214.695711	207.925206	0.000000	0.000000	0.000000	0.000000	8.652420	-2.319520	1.495480	-0.026428	0.916929	0.391906	-1.000000	-1.000000	-1.000000	-1.000000	-1.000000	-1.000000	-1.000000	138.689655	0.000000	-1.000000	-1.000000	227719.000000	1772918483.780402
-2251.260000	36700.650000	-14688.360000	-17338.680000	0.000000	0.000000	0.000000	0.000000	105.577201	125.115428	204.969641	193.148816	0.000000	0.000000	0.000000	0.000000	8.652420	-2.319520	1.495480	-0.026428	0.916929	0.391906	-1.000000	-1.000000	-1.000000	-1.000000	-1.000000	-1.000000	-1.000000	138.689655	0.000000	-1.000000	-1.000000	227720.000000	1772918483.780404
-2407.455000	36662.130000	-14955.615000	-17589.690000	0.000000	0.000000	0.000000	0.000000	35.422371	101.506391	84.358729	74.122168	0.000000	0.000000	0.000000	0.000000	9.339120	-1.052940	-0.381500	-0.019104	0.909971	0.390868	-1.000000	-1.000000	-1.000000	-1.000000	-1.000000	-1.000000	-1.000000	138.689655	0.000000	-1.000000	-1.000000	227721.000000	1772918483.784346
-2466.180000	36652.950000	-15076.755000	-17697.015000	0.000000	0.000000	0.000000	0.000000	-58.496041	31.282116	-86.099790	-88.303187	0.000000	0.000000	0.000000	0.000000	9.339120	-1.052940	-0.381500	-0.019104	0.909971	0.390868	-1.000000	-1.000000	-1.000000	-1.000000	-1.000000	-1.000000	-1.000000	138.689655	0.000000	-1.000000	-1.000000	227722.000000	1772918483.784349
-2434.410000	36659.970000	-15020.370000	-17637.390000	0.000000	0.000000	0.000000	0.000000	-127.487260	-37.997416	-216.931948	-208.942747	0.000000	0.000000	0.000000	0.000000	9.339120	-1.052940	-0.381500	-0.019104	0.909971	0.390868	-1.000000	-1.000000	-1.000000	-1.000000	-1.000000	-1.000000	-1.000000	138.689655	0.000000	-1.000000	-1.000000	227723.000000	1772918483.788475
-2401.785000	36706.410000	-14943.915000	-17567.820000	0.000000	0.000000	0.000000	0.000000	-132.638212	-69.630731	-235.198415	-221.075058	0.000000	0.000000	0.000000	0.000000	9.339120	-1.052940	-0.381500	-0.019104	0.909971	0.390868	-1.000000	-1.000000	-1.000000	-1.000000	-1.000000	-1.000000	-1.000000	138.689655	0.000000	-1.000000	-1.000000	227724.000000	1772918483.788478
-2257.290000	36716.895000	-14703.165000	-17337.420000	0.000000	0.000000	0.000000	0.000000	-69.815519	-55.888176	-129.595145	-117.418490	0.000000	0.000000	0.000000	0.000000	9.339120	-1.052940	-0.381500	-0.019104	0.909971	0.390868	-1.000000	-1.000000	-1.000000	-1.000000	-1.000000	-1.000000	-1.000000	138.689655	0.000000	-1.000000	-1.000000	227725.000000	1772918483.792334
-2150.865000	36697.005000	-14520.105000	-17161.605000	0.000000	0.000000	0.000000	0.000000	29.322677	-16.207377	44.467698	47.662449	0.000000	0.000000	0.000000	0.000000	9.339120	-1.052940	-0.381500	-0.019104	0.909971	0.390868	-1.000000	-1.000000	-1.000000	-1.000000	-1.000000	-1.000000	-1.000000	138.689655	0.000000	-1.000000	-1.000000	227726.000000	1772918483.792337
-2151.540000	36625.590000	-14536.260000	-17183.880000	0.000000	0.000000	0.000000	0.000000	115.146470	18.740482	196.689399	189.178136	0.000000	0.000000	0.000000	0.000000	9.339120	-1.052940	-0.381500	-0.019104	0.909971	0.390868	-1.000000	-1.000000	-1.000000	-1.000000	-1.000000	-1.000000	-1.000000	138.689655	0.000000	-1.000000	-1.000000	227727.000000	1772918483.796502
-2180.970000	36539.190000	-14602.725000	-17252.100000	0.000000	0.000000	0.000000	0.000000	142.933990	27.240127	246.011131	231.930124	0.000000	0.000000	0.000000	0.000000	9.339120	-1.052940	-0.381500	-0.019104	0.909971	0.390868	-1.000000	-1.000000	-1.000000	-1.000000	-1.000000	-1.000000	-1.000000	138.689655	0.000000	-1.000000	-1.000000	227728.000000	1772918483.796504
-2285.640000	36416.790000	-14789.475000	-17431.920000	0.000000	0.000000	0.000000	0.000000	97.702455	7.747467	166.114250	152.658039	0.000000	0.000000	0.000000	0.000000	9.339120	-1.052940	-0.381500	-0.019104	0.909971	0.390868	-1.000000	-1.000000	-1.000000	-1.000000	-1.000000	-1.000000	-1.000000	138.689655	0.000000	-1.000000	-1.000000	227729.000000	1772918483.800408
-2361.105000	36149.580000	-14960.295000	-17593.155000	0.000000	0.000000	0.000000	0.000000	3.620401	-27.074324	0.761313	-5.568615	0.000000	0.000000	0.000000	0.000000	9.339120	-1.052940	-0.381500	-0.019104	0.909971	0.390868	-1.000000	-1.000000	-1.000000	-1.000000	-1.000000	-1.000000	-1.000000	138.689655	0.000000	-1.000000	-1.000000	227730.000000	1772918483.800411
-2341.215000	36053.505000	-14942.250000	-17561.070000	0.000000	0.000000	0.000000	0.000000	-89.307579	-60.496645	-161.895246	-158.123646	0.000000	0.000000	0.000000	0.000000	12.787880	-0.717220	-1.266580	-0.015625	0.910520	0.391478	-1.000000	-1.000000	-1.000000	-1.000000	-1.000000	-1.000000	-1.000000	138.689655	0.000000	-1.000000	-1.000000	227731.000000	1772918483.804458
-2306.295000	36054.405000	-14872.320000	-17490.195000	0.000000	0.000000	0.000000	0.000000	-132.035342	-70.280895	-235.358265	-223.201975	0.000000	0.000000	0.000000	0.000000	12.787880	-0.717220	-1.266580	-0.015625	0.910520	0.391478	-1.000000	-1.000000	-1.000000	-1.000000	-1.000000	-1.000000	-1.000000	138.689655	0.000000	-1.000000	-1.000000	227732.000000	1772918483.804460
-2175.840000	36038.205000	-14669.055000	-17292.600000	0.000000	0.000000	0.000000	0.000000	-104.153031	-37.087184	-182.435140	-167.681079	0.000000	0.000000	0.000000	0.000000	12.787880	-0.717220	-1.266580	-0.015625	0.910520	0.391478	-1.000000	-1.000000	-1.000000	-1.000000	-1.000000	-1.000000	-1.000000	138.689655	0.000000	-1.000000	-1.000000	227733.000000	1772918483.808413
-1982.565000	35931.555000	-14378.265000	-17010.720000	0.000000	0.000000	0.000000	0.000000	-21.822162	29.950036	-33.057337	-22.986676	0.000000	0.000000	0.000000	0.000000	12.787880	-0.717220	-1.266580	-0.015625	0.910520	0.391478	-1.000000	-1.000000	-1.000000	-1.000000	-1.000000	-1.000000	-1.000000	138.689655	0.000000	-1.000000	-1.000000	227734.000000	1772918483.808415
-1967.625000	35763.660000	-14359.905000	-17001.045000	0.000000	0.000000	0.000000	0.000000	72.661109	90.212883	134.367917	134.770257	0.000000	0.000000	0.000000	0.000000	12.787880	-0.717220	-1.266580	-0.015625	0.910520	0.391478	-1.000000	-1.000000	-1.000000	-1.000000	-1.000000	-1.000000	-1.000000	138.689655	0.000000	-1.000000	-1.000000	227735.000000	1772918483.812443
-2051.910000	35695.170000	-14473.440000	-17117.865000	0.000000	0.000000	0.000000	0.000000	126.183637	105.773603	227.120256	217.850082	0.000000	0.000000	0.000000	0.000000	12.787880	-0.717220	-1.266580	-0.015625	0.910520	0.391478	-1.000000	-1.000000	-1.000000	-1.000000	-1.000000	-1.000000	-1.000000	138.689655	0.000000	-1.000000	-1.000000	227736.000000	1772918483.812446
-2164.590000	35695.665000	-14646.780000	-17286.345000	0.000000	0.000000	0.000000	0.000000	103.273460	75.764964	188.640457	174.593554	0.000000	0.000000	0.000000	0.000000	12.787880	-0.717220	-1.266580	-0.015625	0.910520	0.391478	-1.000000	-1.000000	-1.000000	-1.000000	-1.000000	-1.000000	-1.000000	138.689655	0.000000	-1.000000	-1.000000	227737.000000	1772918483.816344
-2307.330000	35657.955000	-14900.175000	-17528.670000	0.000000	0.000000	0.000000	0.000000	14.240447	30.851644	38.718384	27.109660	0.000000	0.000000	0.000000	0.000000	12.787880	-0.717220	-1.266580	-0.015625	0.910520	0.391478	-1.000000	-1.000000	-1.000000	-1.000000	-1.000000	-1.000000	-1.000000	138.689655	0.000000	-1.000000	-1.000000	227738.000000	1772918483.816347
-2321.820000	35676.630000	-14935.050000	-17552.745000	0.000000	0.000000	0.000000	0.000000	-88.841842	-0.440442	-137.661064	-140.996072	0.000000	0.000000	0.000000	0.000000	12.787880	-0.717220	-1.266580	-0.015625	0.910520	0.391478	-1.000000	-1.000000	-1.000000	-1.000000	-1.000000	-1.000000	-1.000000	138.689655	0.000000	-1.000000	-1.000000	227739.000000	1772918483.820476
-2284.020000	35696.475000	-14868.495000	-17486.325000	0.000000	0.000000	0.000000	0.000000	-144.499781	-9.730568	-239.572898	-233.287250	0.000000	0.000000	0.000000	0.000000	12.787880	-0.717220	-1.266580	-0.015625	0.910520	0.391478	-1.000000	-1.000000	-1.000000	-1.000000	-1.000000	-1.000000	-1.000000	138.689655	0.000000	-1.000000	-1.000000	227740.000000	1772918483.820479
-2224.530000	35732.160000	-14746.095000	-17375.265000	0.000000	0.000000	0.000000	0.000000	-120.006012	-3.855141	-208.773913	-196.958837	0.000000	0.000000	0.000000	0.000000	12.360600	-2.655240	-1.999060	-0.019470	0.915586	0.389647	-1.000000	-1.000000	-1.000000	-1.000000	-1.000000	-1.000000	-1.000000	138.689655	0.000000	-1.000000	-1.000000	227741.000000	1772918483.824355
-2065.860000	35742.060000	-14470.650000	-17108.055000	0.000000	0.000000	0.000000	0.000000	-29.707148	4.496218	-63.131223	-53.037200	0.000000	0.000000	0.000000	0.000000	12.360600	-2.655240	-1.999060	-0.019470	0.915586	0.389647	-1.000000	-1.000000	-1.000000	-1.000000	-1.000000	-1.000000	-1.000000	138.689655	0.000000	-1.000000	-1.000000	227742.000000	1772918483.824358
-2012.670000	35690.355000	-14394.645000	-17029.710000	0.000000	0.000000	0.000000	0.000000	78.551512	3.356051	119.247104	121.978687	0.000000	0.000000	0.000000	0.000000	12.360600	-2.655240	-1.999060	-0.019470	0.915586	0.389647	-1.000000	-1.000000	-1.000000	-1.000000	-1.000000	-1.000000	-1.000000	138.689655	0.000000	-1.000000	-1.000000	227743.000000	1772918483.828531
-2031.075000	35608.995000	-14430.465000	-17075.970000	0.000000	0.000000	0.000000	0.000000	149.290947	-13.870714	241.655367	236.480546	0.000000	0.000000	0.000000	0.000000	12.360600	-2.655240	-1.999060	-0.019470	0.915586	0.389647	-1.000000	-1.000000	-1.000000	-1.000000	-1.000000	-1.000000	-1.000000	138.689655	0.000000	-1.000000	-1.000000	227744.000000	1772918483.828534
-2086.290000	35530.065000	-14538.600000	-17181.045000	0.000000	0.000000	0.000000	0.000000	145.820607	-43.553308	238.195531	228.938762	0.000000	0.000000	0.000000	0.000000	12.360600	-2.655240	-1.999060	-0.019470	0.915586	0.389647	-1.000000	-1.000000	-1.000000	-1.000000	-1.000000	-1.000000	-1.000000	138.689655	0.000000	-1.000000	-1.000000	227745.000000	1772918483.834465
-2241.405000	35501.580000	-14807.115000	-17441.820000	0.000000	0.000000	0.000000	0.000000	70.018881	-70.331313	111.077190	103.037761	0.000000	0.000000	0.000000	0.000000	12.360600	-2.655240	-1.999060	-0.019470	0.915586	0.389647	-1.000000	-1.000000	-1.000000	-1.000000	-1.000000	-1.000000	-1.000000	138.689655	0.000000	-1.000000	-1.000000	227746.000000	1772918483.834469
-2257.155000	35337.015000	-14879.655000	-17504.055000	0.000000	0.000000	0.000000	0.000000	-38.906320	-77.838407	-72.660127	-75.133101	0.000000	0.000000	0.000000	0.000000	12.360600	-2.655240	-1.999060	-0.019470	0.915586	0.389647	-1.000000	-1.000000	-1.000000	-1.000000	-1.000000	-1.000000	-1.000000	138.689655	0.000000	-1.000000	-1.000000	227747.000000	1772918483.837741
-2250.225000	35373.285000	-14842.620000	-17460.405000	0.000000	0.000000	0.000000	0.000000	-123.773434	-61.117597	-215.256993	-210.627582	0.000000	0.000000	0.000000	0.000000	12.360600	-2.655240	-1.999060	-0.019470	0.915586	0.389647	-1.000000	-1.000000	-1.000000	-1.000000	-1.000000	-1.000000	-1.000000	138.689655	0.000000	-1.000000	-1.000000	227748.000000	1772918483.837743
-2234.970000	35478.180000	-14777.685000	-17398.170000	0.000000	0.000000	0.000000	0.000000	-141.534341	-21.288365	-240.809552	-231.283863	0.000000	0.000000	0.000000	0.000000	12.360600	-2.655240	-1.999060	-0.019470	0.915586	0.389647	-1.000000	-1.000000	-1.000000	-1.000000	-1.000000	-1.000000	-1.000000	138.689655	0.000000	-1.000000	-1.000000	227749.000000	1772918483.840793
-2083.050000	35496.135000	-14529.375000	-17159.265000	0.000000	0.000000	0.000000	0.000000	-88.120787	36.373444	-140.302194	-130.982700	0.000000	0.000000	0.000000	0.000000	12.360600	-2.655240	-1.999060	-0.019470	0.915586	0.389647	-1.000000	-1.000000	-1.000000	-1.000000	-1.000000	-1.000000	-1.000000	138.689655	0.000000	-1.000000	-1.000000	227750.000000	1772918483.840796
-1980.180000	35479.755000	-14356.440000	-16998.480000	0.000000	0.000000	0.000000	0.000000	6.381875	89.823510	30.182019	33.880536	0.000000	0.000000	0.000000	0.000000	11.246620	-1.709120	-2.273740	-0.018494	0.916502	0.386352	-1.000000	-1.000000	-1.000000	-1.000000	-1.000000	-1.000000	-1.000000	138.689655	0.000000	-1.000000	-1.000000	227751.000000	1772918483.844489
-2040.390000	35542.215000	-14432.760000	-17081.955000	0.000000	0.000000	0.000000	0.000000	93.579348	109.905216	180.823994	176.287945	0.000000	0.000000	0.000000	0.000000	11.246620	-1.709120	-2.273740	-0.018494	0.916502	0.386352	-1.000000	-1.000000	-1.000000	-1.000000	-1.000000	-1.000000	-1.000000	138.689655	0.000000	-1.000000	-1.000000	227752.000000	1772918483.844491
-2108.475000	35596.125000	-14540.805000	-17185.815000	0.000000	0.000000	0.000000	0.000000	125.431113	88.244467	228.856611	218.098965	0.000000	0.000000	0.000000	0.000000	11.246620	-1.709120	-2.273740	-0.018494	0.916502	0.386352	-1.000000	-1.000000	-1.000000	-1.000000	-1.000000	-1.000000	-1.000000	138.689655	0.000000	-1.000000	-1.000000	227753.000000	1772918483.849398
-2256.390000	35623.845000	-14783.220000	-17420.940000	0.000000	0.000000	0.000000	0.000000	83.476336	40.821019	147.203899	136.056492	0.000000	0.000000	0.000000	0.000000	11.246620	-1.709120	-2.273740	-0.018494	0.916502	0.386352	-1.000000	-1.000000	-1.000000	-1.000000	-1.000000	-1.000000	-1.000000	138.689655	0.000000	-1.000000	-1.000000	227754.000000	1772918483.849401
-2327.400000	35483.985000	-14941.800000	-17570.205000	0.000000	0.000000	0.000000	0.000000	-6.471018	-13.485472	-16.703247	-21.944631	0.000000	0.000000	0.000000	0.000000	11.246620	-1.709120	-2.273740	-0.018494	0.916502	0.386352	-1.000000	-1.000000	-1.000000	-1.000000	-1.000000	-1.000000	-1.000000	138.689655	0.000000	-1.000000	-1.000000	227755.000000	1772918483.853404
-2298.285000	35437.005000	-14897.655000	-17519.895000	0.000000	0.000000	0.000000	0.000000	-89.825005	-64.859266	-168.746135	-165.091236	0.000000	0.000000	0.000000	0.000000	11.246620	-1.709120	-2.273740	-0.018494	0.916502	0.386352	-1.000000	-1.000000	-1.000000	-1.000000	-1.000000	-1.000000	-1.000000	138.689655	0.000000	-1.000000	-1.000000	227756.000000	1772918483.853407
-2253.780000	35495.280000	-14812.155000	-17441.820000	0.000000	0.000000	0.000000	0.000000	-116.593448	-100.543810	-221.238375	-210.773657	0.000000	0.000000	0.000000	0.000000	11.246620	-1.709120	-2.273740	-0.018494	0.916502	0.386352	-1.000000	-1.000000	-1.000000	-1.000000	-1.000000	-1.000000	-1.000000	138.689655	0.000000	-1.000000	-1.000000	227757.000000	1772918483.857398
-2171.790000	35602.380000	-14644.755000	-17283.690000	0.000000	0.000000	0.000000	0.000000	-73.373886	-99.138407	-146.388540	-135.164458	0.000000	0.000000	0.000000	0.000000	11.246620	-1.709120	-2.273740	-0.018494	0.916502	0.386352	-1.000000	-1.000000	-1.000000	-1.000000	-1.000000	-1.000000	-1.000000	138.689655	0.000000	-1.000000	-1.000000	227758.000000	1772918483.857401
-2047.995000	35678.745000	-14417.865000	-17064.765000	0.000000	0.000000	0.000000	0.000000	11.978854	-52.007695	10.378364	15.951315	0.000000	0.000000	0.000000	0.000000	11.246620	-1.709120	-2.273740	-0.018494	0.916502	0.386352	-1.000000	-1.000000	-1.000000	-1.000000	-1.000000	-1.000000	-1.000000	138.689655	0.000000	-1.000000	-1.000000	227759.000000	1772918483.861460
-2061.180000	35691.255000	-14434.155000	-17085.465000	0.000000	0.000000	0.000000	0.000000	91.732258	18.410366	162.618367	159.725124	0.000000	0.000000	0.000000	0.000000	11.246620	-1.709120	-2.273740	-0.018494	0.916502	0.386352	-1.000000	-1.000000	-1.000000	-1.000000	-1.000000	-1.000000	-1.000000	138.689655	0.000000	-1.000000	-1.000000	227760.000000	1772918483.861463
-2098.440000	35647.605000	-14517.090000	-17161.155000	0.000000	0.000000	0.000000	0.000000	122.608970	70.752842	226.994252	217.978763	0.000000	0.000000	0.000000	0.000000	6.912780	-1.144500	-1.419180	-0.017151	0.920225	0.383239	-1.000000	-1.000000	-1.000000	-1.000000	-1.000000	-1.000000	-1.000000	138.689655	0.000000	-1.000000	-1.000000	227761.000000	1772918483.865689
-2208.780000	35629.785000	-14692.275000	-17333.190000	0.000000	0.000000	0.000000	0.000000	87.126562	75.808038	167.049435	157.700404	0.000000	0.000000	0.000000	0.000000	6.912780	-1.144500	-1.419180	-0.017151	0.920225	0.383239	-1.000000	-1.000000	-1.000000	-1.000000	-1.000000	-1.000000	-1.000000	138.689655	0.000000	-1.000000	-1.000000	227762.000000	1772918483.865692
-2350.980000	35615.070000	-14942.745000	-17575.920000	0.000000	0.000000	0.000000	0.000000	3.106479	37.443940	14.704564	10.487932	0.000000	0.000000	0.000000	0.000000	6.912780	-1.144500	-1.419180	-0.017151	0.920225	0.383239	-1.000000	-1.000000	-1.000000	-1.000000	-1.000000	-1.000000	-1.000000	138.689655	0.000000	-1.000000	-1.000000	227763.000000	1772918483.869590
-2367.495000	35631.045000	-14971.230000	-17595.990000	0.000000	0.000000	0.000000	0.000000	-86.086253	-14.325826	-149.115869	-146.114925	0.000000	0.000000	0.000000	0.000000	6.912780	-1.144500	-1.419180	-0.017151	0.920225	0.383239	-1.000000	-1.000000	-1.000000	-1.000000	-1.000000	-1.000000	-1.000000	138.689655	0.000000	-1.000000	-1.000000	227764.000000	1772918483.869593
-2322.495000	35657.505000	-14885.415000	-17515.575000	0.000000	0.000000	0.000000	0.000000	-131.822967	-47.564622	-235.086387	-226.833676	0.000000	0.000000	0.000000	0.000000	6.912780	-1.144500	-1.419180	-0.017151	0.920225	0.383239	-1.000000	-1.000000	-1.000000	-1.000000	-1.000000	-1.000000	-1.000000	138.689655	0.000000	-1.000000	-1.000000	227765.000000	1772918483.873384
-2234.880000	35674.470000	-14731.245000	-17375.355000	0.000000	0.000000	0.000000	0.000000	-106.807011	-48.006539	-193.574838	-185.039378	0.000000	0.000000	0.000000	0.000000	6.912780	-1.144500	-1.419180	-0.017151	0.920225	0.383239	-1.000000	-1.000000	-1.000000	-1.000000	-1.000000	-1.000000	-1.000000	138.689655	0.000000	-1.000000	-1.000000	227766.000000	1772918483.873388
-2069.685000	35656.245000	-14455.530000	-17106.120000	0.000000	0.000000	0.000000	0.000000	-22.663642	-23.749106	-45.473732	-42.074603	0.000000	0.000000	0.000000	0.000000	6.912780	-1.144500	-1.419180	-0.017151	0.920225	0.383239	-1.000000	-1.000000	-1.000000	-1.000000	-1.000000	-1.000000	-1.000000	138.689655	0.000000	-1.000000	-1.000000	227767.000000	1772918483.877419
-2018.385000	35538.345000	-14390.055000	-17036.955000	0.000000	0.000000	0.000000	0.000000	77.320272	2.821525	130.843851	126.881699	0.000000	0.000000	0.000000	0.000000	6.912780	-1.144500	-1.419180	-0.017151	0.920225	0.383239	-1.000000	-1.000000	-1.000000	-1.000000	-1.000000	-1.000000	-1.000000	138.689655	0.000000	-1.000000	-1.000000	227768.000000	1772918483.877421
-2064.690000	35531.820000	-14472.270000	-17115.750000	0.000000	0.000000	0.000000	0.000000	139.531238	12.274639	239.594475	231.035145	0.000000	0.000000	0.000000	0.000000	6.912780	-1.144500	-1.419180	-0.017151	0.920225	0.383239	-1.000000	-1.000000	-1.000000	-1.000000	-1.000000	-1.000000	-1.000000	138.689655	0.000000	-1.000000	-1.000000	227769.000000	1772918483.881485
-2148.255000	35566.155000	-14608.035000	-17244.360000	0.000000	0.000000	0.000000	0.000000	127.521141	5.863341	218.507727	210.970123	0.000000	0.000000	0.000000	0.000000	6.912780	-1.144500	-1.419180	-0.017151	0.920225	0.383239	-1.000000	-1.000000	-1.000000	-1.000000	-1.000000	-1.000000	-1.000000	138.689655	0.000000	-1.000000	-1.000000	227770.000000	1772918483.881487
-2287.215000	35437.005000	-14856.345000	-17484.030000	0.000000	0.000000	0.000000	0.000000	45.542368	-1.207591	77.978689	76.020522	0.000000	0.000000	0.000000	0.000000	4.471180	-2.502640	-1.510740	-0.020019	0.924009	0.381469	-1.000000	-1.000000	-1.000000	-1.000000	-1.000000	-1.000000	-1.000000	138.689655	0.000000	-1.000000	-1.000000	227771.000000	1772918483.885548
-2296.350000	35233.695000	-14913.765000	-17531.055000	0.000000	0.000000	0.000000	0.000000	-61.952877	-6.019069	-105.157749	-100.427476	0.000000	0.000000	0.000000	0.000000	4.471180	-2.502640	-1.510740	-0.020019	0.924009	0.381469	-1.000000	-1.000000	-1.000000	-1.000000	-1.000000	-1.000000	-1.000000	138.689655	0.000000	-1.000000	-1.000000	227772.000000	1772918483.885553
-2256.210000	35208.720000	-14852.565000	-17464.995000	0.000000	0.000000	0.000000	0.000000	-134.888010	-16.034403	-230.437820	-221.367668	0.000000	0.000000	0.000000	0.000000	4.471180	-2.502640	-1.510740	-0.020019	0.924009	0.381469	-1.000000	-1.000000	-1.000000	-1.000000	-1.000000	-1.000000	-1.000000	138.689655	0.000000	-1.000000	-1.000000	227773.000000	1772918483.889484
-2174.175000	35226.720000	-14722.335000	-17345.430000	0.000000	0.000000	0.000000	0.000000	-133.147558	-23.385058	-229.466584	-220.616659	0.000000	0.000000	0.000000	0.000000	4.471180	-2.502640	-1.510740	-0.020019	0.924009	0.381469	-1.000000	-1.000000	-1.000000	-1.000000	-1.000000	-1.000000	-1.000000	138.689655	0.000000	-1.000000	-1.000000	227774.000000	1772918483.889487
-2015.595000	35245.755000	-14457.780000	-17088.120000	0.000000	0.000000	0.000000	0.000000	-60.185035	-9.282202	-105.200198	-101.512289	0.000000	0.000000	0.000000	0.000000	4.471180	-2.502640	-1.510740	-0.020019	0.924009	0.381469	-1.000000	-1.000000	-1.000000	-1.000000	-1.000000	-1.000000	-1.000000	138.689655	0.000000	-1.000000	-1.000000	227775.000000	1772918483.893489
-1969.740000	35320.860000	-14338.035000	-16985.880000	0.000000	0.000000	0.000000	0.000000	42.426390	28.910108	73.889192	69.472453	0.000000	0.000000	0.000000	0.000000	4.471180	-2.502640	-1.510740	-0.020019	0.924009	0.381469	-1.000000	-1.000000	-1.000000	-1.000000	-1.000000	-1.000000	-1.000000	138.689655	0.000000	-1.000000	-1.000000	227776.000000	1772918483.893492
-2034.990000	35364.195000	-14419.215000	-17072.235000	0.000000	0.000000	0.000000	0.000000	117.322919	72.391518	210.321596	198.640147	0.000000	0.000000	0.000000	0.000000	4.471180	-2.502640	-1.510740	-0.020019	0.924009	0.381469	-1.000000	-1.000000	-1.000000	-1.000000	-1.000000	-1.000000	-1.000000	138.689655	0.000000	-1.000000	-1.000000	227777.000000	1772918483.897498
-2130.570000	35434.485000	-14560.695000	-17202.915000	0.000000	0.000000	0.000000	0.000000	121.354290	96.518082	227.240618	213.149354	0.000000	0.000000	0.000000	0.000000	4.471180	-2.502640	-1.510740	-0.020019	0.924009	0.381469	-1.000000	-1.000000	-1.000000	-1.000000	-1.000000	-1.000000	-1.000000	138.689655	0.000000	-1.000000	-1.000000	227778.000000	1772918483.897501
-2304.000000	35516.835000	-14837.895000	-17468.640000	0.000000	0.000000	0.000000	0.000000	52.432846	87.593026	114.433822	105.090626	0.000000	0.000000	0.000000	0.000000	4.471180	-2.502640	-1.510740	-0.020019	0.924009	0.381469	-1.000000	-1.000000	-1.000000	-1.000000	-1.000000	-1.000000	-1.000000	138.689655	0.000000	-1.000000	-1.000000	227779.000000	1772918483.901429
-2401.695000	35568.405000	-15010.020000	-17635.770000	0.000000	0.000000	0.000000	0.000000	-49.765024	49.683219	-65.602209	-64.720204	0.000000	0.000000	0.000000	0.000000	4.471180	-2.502640	-1.510740	-0.020019	0.924009	0.381469	-1.000000	-1.000000	-1.000000	-1.000000	-1.000000	-1.000000	-1.000000	138.689655	0.000000	-1.000000	-1.000000	227780.000000	1772918483.901432
-2371.545000	35626.995000	-14964.930000	-17586.855000	0.000000	0.000000	0.000000	0.000000	-126.545902	-1.790290	-212.449633	-201.334037	0.000000	0.000000	0.000000	0.000000	0.885080	-2.075360	-0.747740	-0.020325	0.922239	0.380248	-1.000000	-1.000000	-1.000000	-1.000000	-1.000000	-1.000000	-1.000000	138.689655	0.000000	-1.000000	-1.000000	227781.000000	1772918483.905468
-2332.980000	35635.995000	-14885.190000	-17509.680000	0.000000	0.000000	0.000000	0.000000	-132.210606	-50.026611	-241.793217	-225.984951	0.000000	0.000000	0.000000	0.000000	0.885080	-2.075360	-0.747740	-0.020325	0.922239	0.380248	-1.000000	-1.000000	-1.000000	-1.000000	-1.000000	-1.000000	-1.000000	138.689655	0.000000	-1.000000	-1.000000	227782.000000	1772918483.905472
-2195.415000	35690.490000	-14656.905000	-17290.170000	0.000000	0.000000	0.000000	0.000000	-61.897691	-82.364967	-135.989221	-123.193927	0.000000	0.000000	0.000000	0.000000	0.885080	-2.075360	-0.747740	-0.020325	0.922239	0.380248	-1.000000	-1.000000	-1.000000	-1.000000	-1.000000	-1.000000	-1.000000	138.689655	0.000000	-1.000000	-1.000000	227783.000000	1772918483.909582
-2042.235000	35680.680000	-14406.705000	-17052.885000	0.000000	0.000000	0.000000	0.000000	47.984643	-92.215939	48.600156	52.486035	0.000000	0.000000	0.000000	0.000000	0.885080	-2.075360	-0.747740	-0.020325	0.922239	0.380248	-1.000000	-1.000000	-1.000000	-1.000000	-1.000000	-1.000000	-1.000000	138.689655	0.000000	-1.000000	-1.000000	227784.000000	1772918483.909585
-2039.490000	35561.070000	-14410.080000	-17064.945000	0.000000	0.000000	0.000000	0.000000	141.878899	-82.983809	216.077904	209.542591	0.000000	0.000000	0.000000	0.000000	0.885080	-2.075360	-0.747740	-0.020325	0.922239	0.380248	-1.000000	-1.000000	-1.000000	-1.000000	-1.000000	-1.000000	-1.000000	138.689655	0.000000	-1.000000	-1.000000	227785.000000	1772918483.912755
-2095.020000	35516.880000	-14503.275000	-17155.665000	0.000000	0.000000	0.000000	0.000000	169.610734	-66.424345	276.180152	262.703610	0.000000	0.000000	0.000000	0.000000	0.885080	-2.075360	-0.747740	-0.020325	0.922239	0.380248	-1.000000	-1.000000	-1.000000	-1.000000	-1.000000	-1.000000	-1.000000	138.689655	0.000000	-1.000000	-1.000000	227786.000000	1772918483.912758
-2221.245000	35521.155000	-14701.365000	-17346.195000	0.000000	0.000000	0.000000	0.000000	112.264080	-47.648327	192.547393	179.054087	0.000000	0.000000	0.000000	0.000000	0.885080	-2.075360	-0.747740	-0.020325	0.922239	0.380248	-1.000000	-1.000000	-1.000000	-1.000000	-1.000000	-1.000000	-1.000000	138.689655	0.000000	-1.000000	-1.000000	227787.000000	1772918483.917574
-2357.370000	35472.015000	-14946.030000	-17581.275000	0.000000	0.000000	0.000000	0.000000	-3.973768	-21.172294	6.715511	0.117701	0.000000	0.000000	0.000000	0.000000	0.885080	-2.075360	-0.747740	-0.020325	0.922239	0.380248	-1.000000	-1.000000	-1.000000	-1.000000	-1.000000	-1.000000	-1.000000	138.689655	0.000000	-1.000000	-1.000000	227788.000000	1772918483.917577
-2313.720000	35394.255000	-14904.090000	-17536.365000	0.000000	0.000000	0.000000	0.000000	-119.552566	12.696316	-183.829041	-180.384574	0.000000	0.000000	0.000000	0.000000	0.885080	-2.075360	-0.747740	-0.020325	0.922239	0.380248	-1.000000	-1.000000	-1.000000	-1.000000	-1.000000	-1.000000	-1.000000	138.689655	0.000000	-1.000000	-1.000000	227789.000000	1772918483.950403
-2231.280000	35377.380000	-14781.915000	-17416.350000	0.000000	0.000000	0.000000	0.000000	-171.574485	42.649285	-275.251954	-264.095431	0.000000	0.000000	0.000000	0.000000	0.885080	-2.075360	-0.747740	-0.020325	0.922239	0.380248	-1.000000	-1.000000	-1.000000	-1.000000	-1.000000	-1.000000	-1.000000	138.689655	0.000000	-1.000000	-1.000000	227790.000000	1772918483.950408
-2142.495000	35435.160000	-14631.615000	-17268.480000	0.000000	0.000000	0.000000	0.000000	-132.268848	61.003965	-218.061149	-205.423299	0.000000	0.000000	0.000000	0.000000	-0.671440	-2.166920	0.122080	-0.020874	0.919614	0.381286	-1.000000	-1.000000	-1.000000	-1.000000	-1.000000	-1.000000	-1.000000	138.689655	0.000000	-1.000000	-1.000000	227791.000000	1772918483.950437
-2064.240000	35485.245000	-14454.270000	-17087.130000	0.000000	0.000000	0.000000	0.000000	-28.775475	70.524842	-50.323375	-42.370196	0.000000	0.000000	0.000000	0.000000	-0.671440	-2.166920	0.122080	-0.020874	0.919614	0.381286	-1.000000	-1.000000	-1.000000	-1.000000	-1.000000	-1.000000	-1.000000	138.689655	0.000000	-1.000000	-1.000000	227792.000000	1772918483.950439
-2103.840000	35513.595000	-14467.140000	-17113.320000	0.000000	0.000000	0.000000	0.000000	76.557831	73.760283	129.944208	130.342516	0.000000	0.000000	0.000000	0.000000	-0.671440	-2.166920	0.122080	-0.020874	0.919614	0.381286	-1.000000	-1.000000	-1.000000	-1.000000	-1.000000	-1.000000	-1.000000	138.689655	0.000000	-1.000000	-1.000000	227793.000000	1772918483.950443
-2129.400000	35565.795000	-14519.655000	-17174.385000	0.000000	0.000000	0.000000	0.000000	126.608641	66.389749	225.304276	218.758197	0.000000	0.000000	0.000000	0.000000	-0.671440	-2.166920	0.122080	-0.020874	0.919614	0.381286	-1.000000	-1.000000	-1.000000	-1.000000	-1.000000	-1.000000	-1.000000	138.689655	0.000000	-1.000000	-1.000000	227794.000000	1772918483.950449
-2174.310000	35520.570000	-14618.205000	-17272.350000	0.000000	0.000000	0.000000	0.000000	102.893221	43.171771	193.350559	182.767374	0.000000	0.000000	0.000000	0.000000	-0.671440	-2.166920	0.122080	-0.020874	0.919614	0.381286	-1.000000	-1.000000	-1.000000	-1.000000	-1.000000	-1.000000	-1.000000	138.689655	0.000000	-1.000000	-1.000000	227795.000000	1772918483.950453
-2306.295000	35416.260000	-14862.195000	-17504.325000	0.000000	0.000000	0.000000	0.000000	29.156490	2.798142	63.078877	53.034236	0.000000	0.000000	0.000000	0.000000	-0.671440	-2.166920	0.122080	-0.020874	0.919614	0.381286	-1.000000	-1.000000	-1.000000	-1.000000	-1.000000	-1.000000	-1.000000	138.689655	0.000000	-1.000000	-1.000000	227796.000000	1772918483.950456
-2303.550000	35232.660000	-14908.590000	-17527.365000	0.000000	0.000000	0.000000	0.000000	-51.295665	-50.392438	-92.169875	-96.489479	0.000000	0.000000	0.000000	0.000000	-0.671440	-2.166920	0.122080	-0.020874	0.919614	0.381286	-1.000000	-1.000000	-1.000000	-1.000000	-1.000000	-1.000000	-1.000000	138.689655	0.000000	-1.000000	-1.000000	227797.000000	1772918483.950459
-2272.995000	35204.580000	-14855.670000	-17466.345000	0.000000	0.000000	0.000000	0.000000	-96.873611	-100.722888	-191.258831	-186.577124	0.000000	0.000000	0.000000	0.000000	-0.671440	-2.166920	0.122080	-0.020874	0.919614	0.381286	-1.000000	-1.000000	-1.000000	-1.000000	-1.000000	-1.000000	-1.000000	138.689655	0.000000	-1.000000	-1.000000	227798.000000	1772918483.950461
-2239.650000	35294.805000	-14765.940000	-17386.380000	0.000000	0.000000	0.000000	0.000000	-85.753223	-118.821670	-182.829458	-170.818145	0.000000	0.000000	0.000000	0.000000	-0.671440	-2.166920	0.122080	-0.020874	0.919614	0.381286	-1.000000	-1.000000	-1.000000	-1.000000	-1.000000	-1.000000	-1.000000	138.689655	0.000000	-1.000000	-1.000000	227799.000000	1772918483.950465
-2088.990000	35388.675000	-14503.905000	-17137.080000	0.000000	0.000000	0.000000	0.000000	-27.172034	-80.230689	-73.792770	-61.460157	0.000000	0.000000	0.000000	0.000000	-0.671440	-2.166920	0.122080	-0.020874	0.919614	0.381286	-1.000000	-1.000000	-1.000000	-1.000000	-1.000000	-1.000000	-1.000000	138.689655	0.000000	-1.000000	-1.000000	227800.000000	1772918483.950467
-2039.040000	35477.505000	-14395.365000	-17040.690000	0.000000	0.000000	0.000000	0.000000	47.405189	5.884915	77.750918	82.306296	0.000000	0.000000	0.000000	0.000000	0.030520	-1.541260	0.000000	-0.021789	0.912962	0.383422	-1.000000	-1.000000	-1.000000	-1.000000	-1.000000	-1.000000	-1.000000	138.689655	0.000000	-1.000000	-1.000000	227801.000000	1772918483.950471
-2067.705000	35463.375000	-14449.230000	-17100.000000	0.000000	0.000000	0.000000	0.000000	99.082391	94.594830	191.030765	184.317348	0.000000	0.000000	0.000000	0.000000	0.030520	-1.541260	0.000000	-0.021789	0.912962	0.383422	-1.000000	-1.000000	-1.000000	-1.000000	-1.000000	-1.000000	-1.000000	138.689655	0.000000	-1.000000	-1.000000	227802.000000	1772918483.950473
-2119.005000	35419.455000	-14547.510000	-17192.520000	0.000000	0.000000	0.000000	0.000000	97.920448	134.968516	201.297771	186.829591	0.000000	0.000000	0.000000	0.000000	0.030520	-1.541260	0.000000	-0.021789	0.912962	0.383422	-1.000000	-1.000000	-1.000000	-1.000000	-1.000000	-1.000000	-1.000000	138.689655	0.000000	-1.000000	-1.000000	227803.000000	1772918483.950476
-2252.385000	35338.545000	-14781.195000	-17418.240000	0.000000	0.000000	0.000000	0.000000	41.748431	104.578457	99.820074	85.808663	0.000000	0.000000	0.000000	0.000000	0.030520	-1.541260	0.000000	-0.021789	0.912962	0.383422	-1.000000	-1.000000	-1.000000	-1.000000	-1.000000	-1.000000	-1.000000	138.689655	0.000000	-1.000000	-1.000000	227804.000000	1772918483.950478
-2299.140000	35151.615000	-14892.840000	-17522.145000	0.000000	0.000000	0.000000	0.000000	-40.794273	20.556110	-59.526058	-65.332267	0.000000	0.000000	0.000000	0.000000	0.030520	-1.541260	0.000000	-0.021789	0.912962	0.383422	-1.000000	-1.000000	-1.000000	-1.000000	-1.000000	-1.000000	-1.000000	138.689655	0.000000	-1.000000	-1.000000	227805.000000	1772918483.953720
-2248.830000	35043.660000	-14820.840000	-17442.900000	0.000000	0.000000	0.000000	0.000000	-104.283577	-75.778870	-189.082414	-183.858213	0.000000	0.000000	0.000000	0.000000	0.030520	-1.541260	0.000000	-0.021789	0.912962	0.383422	-1.000000	-1.000000	-1.000000	-1.000000	-1.000000	-1.000000	-1.000000	138.689655	0.000000	-1.000000	-1.000000	227806.000000	1772918483.953723
-2205.675000	35057.070000	-14744.520000	-17364.420000	0.000000	0.000000	0.000000	0.000000	-111.333063	-137.564241	-215.124596	-201.964468	0.000000	0.000000	0.000000	0.000000	0.030520	-1.541260	0.000000	-0.021789	0.912962	0.383422	-1.000000	-1.000000	-1.000000	-1.000000	-1.000000	-1.000000	-1.000000	138.689655	0.000000	-1.000000	-1.000000	227807.000000	1772918483.957604
-2096.820000	35180.910000	-14554.980000	-17176.905000	0.000000	0.000000	0.000000	0.000000	-57.732356	-129.312405	-124.292528	-109.900120	0.000000	0.000000	0.000000	0.000000	0.030520	-1.541260	0.000000	-0.021789	0.912962	0.383422	-1.000000	-1.000000	-1.000000	-1.000000	-1.000000	-1.000000	-1.000000	138.689655	0.000000	-1.000000	-1.000000	227808.000000	1772918483.957608
-2025.945000	35400.870000	-14387.445000	-17025.705000	0.000000	0.000000	0.000000	0.000000	25.915214	-46.681799	31.152572	39.914820	0.000000	0.000000	0.000000	0.000000	0.030520	-1.541260	0.000000	-0.021789	0.912962	0.383422	-1.000000	-1.000000	-1.000000	-1.000000	-1.000000	-1.000000	-1.000000	138.689655	0.000000	-1.000000	-1.000000	227809.000000	1772918483.961674
-2060.370000	35490.195000	-14429.835000	-17075.115000	0.000000	0.000000	0.000000	0.000000	93.826910	73.666445	167.188599	166.214279	0.000000	0.000000	0.000000	0.000000	0.030520	-1.541260	0.000000	-0.021789	0.912962	0.383422	-1.000000	-1.000000	-1.000000	-1.000000	-1.000000	-1.000000	-1.000000	138.689655	0.000000	-1.000000	-1.000000	227810.000000	1772918483.961677
-2124.495000	35499.915000	-14533.740000	-17178.795000	0.000000	0.000000	0.000000	0.000000	108.700913	166.698167	210.171475	200.107406	0.000000	0.000000	0.000000	0.000000	2.166920	-1.388660	1.297100	-0.019958	0.908872	0.387694	-1.000000	-1.000000	-1.000000	-1.000000	-1.000000	-1.000000	-1.000000	138.689655	0.000000	-1.000000	-1.000000	227811.000000	1772918483.965652
-2244.195000	35491.725000	-14725.755000	-17364.465000	0.000000	0.000000	0.000000	0.000000	62.417814	177.291996	136.687282	122.977887	0.000000	0.000000	0.000000	0.000000	2.166920	-1.388660	1.297100	-0.019958	0.908872	0.387694	-1.000000	-1.000000	-1.000000	-1.000000	-1.000000	-1.000000	-1.000000	138.689655	0.000000	-1.000000	-1.000000	227812.000000	1772918483.965654
-2355.840000	35381.610000	-14931.180000	-17562.420000	0.000000	0.000000	0.000000	0.000000	-19.434373	97.816657	-12.335531	-22.381041	0.000000	0.000000	0.000000	0.000000	2.166920	-1.388660	1.297100	-0.019958	0.908872	0.387694	-1.000000	-1.000000	-1.000000	-1.000000	-1.000000	-1.000000	-1.000000	138.689655	0.000000	-1.000000	-1.000000	227813.000000	1772918483.969991
-2371.860000	35419.815000	-14947.335000	-17568.810000	0.000000	0.000000	0.000000	0.000000	-92.521892	-28.574766	-155.870389	-157.236231	0.000000	0.000000	0.000000	0.000000	2.166920	-1.388660	1.297100	-0.019958	0.908872	0.387694	-1.000000	-1.000000	-1.000000	-1.000000	-1.000000	-1.000000	-1.000000	138.689655	0.000000	-1.000000	-1.000000	227814.000000	1772918483.969994
-2330.325000	35489.205000	-14879.340000	-17494.515000	0.000000	0.000000	0.000000	0.000000	-116.311310	-133.914371	-215.045688	-207.458326	0.000000	0.000000	0.000000	0.000000	2.166920	-1.388660	1.297100	-0.019958	0.908872	0.387694	-1.000000	-1.000000	-1.000000	-1.000000	-1.000000	-1.000000	-1.000000	138.689655	0.000000	-1.000000	-1.000000	227815.000000	1772918483.973625
-2217.825000	35518.545000	-14715.990000	-17324.505000	0.000000	0.000000	0.000000	0.000000	-75.567777	-166.308361	-156.067899	-143.561515	0.000000	0.000000	0.000000	0.000000	2.166920	-1.388660	1.297100	-0.019958	0.908872	0.387694	-1.000000	-1.000000	-1.000000	-1.000000	-1.000000	-1.000000	-1.000000	138.689655	0.000000	-1.000000	-1.000000	227816.000000	1772918483.973627
-2072.970000	35554.230000	-14452.920000	-17078.940000	0.000000	0.000000	0.000000	0.000000	11.040553	-122.289041	-8.769015	2.480410	0.000000	0.000000	0.000000	0.000000	2.166920	-1.388660	1.297100	-0.019958	0.908872	0.387694	-1.000000	-1.000000	-1.000000	-1.000000	-1.000000	-1.000000	-1.000000	138.689655	0.000000	-1.000000	-1.000000	227817.000000	1772918483.977772
-2064.780000	35592.570000	-14423.220000	-17063.910000	0.000000	0.000000	0.000000	0.000000	99.650620	-39.517226	150.943198	154.997317	0.000000	0.000000	0.000000	0.000000	2.166920	-1.388660	1.297100	-0.019958	0.908872	0.387694	-1.000000	-1.000000	-1.000000	-1.000000	-1.000000	-1.000000	-1.000000	138.689655	0.000000	-1.000000	-1.000000	227818.000000	1772918483.977775
-2099.655000	35575.245000	-14493.060000	-17136.630000	0.000000	0.000000	0.000000	0.000000	141.269442	35.715739	236.584217	230.605005	0.000000	0.000000	0.000000	0.000000	2.166920	-1.388660	1.297100	-0.019958	0.908872	0.387694	-1.000000	-1.000000	-1.000000	-1.000000	-1.000000	-1.000000	-1.000000	138.689655	0.000000	-1.000000	-1.000000	227819.000000	1772918483.981680
-2198.070000	35573.805000	-14651.055000	-17286.570000	0.000000	0.000000	0.000000	0.000000	109.690751	72.997318	197.247982	184.026088	0.000000	0.000000	0.000000	0.000000	2.166920	-1.388660	1.297100	-0.019958	0.908872	0.387694	-1.000000	-1.000000	-1.000000	-1.000000	-1.000000	-1.000000	-1.000000	138.689655	0.000000	-1.000000	-1.000000	227820.000000	1772918483.981683
-2321.190000	35396.595000	-14887.260000	-17512.020000	0.000000	0.000000	0.000000	0.000000	19.305566	64.519069	50.956653	37.983183	0.000000	0.000000	0.000000	0.000000	4.074420	0.076300	-0.396760	-0.012878	0.910581	0.388122	-1.000000	-1.000000	-1.000000	-1.000000	-1.000000	-1.000000	-1.000000	138.689655	0.000000	-1.000000	-1.000000	227821.000000	1772918483.985607
-2291.220000	35230.680000	-14887.890000	-17500.905000	0.000000	0.000000	0.000000	0.000000	-82.011455	19.224752	-124.185653	-129.381885	0.000000	0.000000	0.000000	0.000000	4.074420	0.076300	-0.396760	-0.012878	0.910581	0.388122	-1.000000	-1.000000	-1.000000	-1.000000	-1.000000	-1.000000	-1.000000	138.689655	0.000000	-1.000000	-1.000000	227822.000000	1772918483.985610
-2255.850000	35191.350000	-14824.080000	-17431.290000	0.000000	0.000000	0.000000	0.000000	-138.452890	-38.749169	-231.621221	-226.180555	0.000000	0.000000	0.000000	0.000000	4.074420	0.076300	-0.396760	-0.012878	0.910581	0.388122	-1.000000	-1.000000	-1.000000	-1.000000	-1.000000	-1.000000	-1.000000	138.689655	0.000000	-1.000000	-1.000000	227823.000000	1772918483.991055
-2218.680000	35215.785000	-14737.140000	-17348.130000	0.000000	0.000000	0.000000	0.000000	-121.090875	-72.001729	-213.525391	-200.782745	0.000000	0.000000	0.000000	0.000000	4.074420	0.076300	-0.396760	-0.012878	0.910581	0.388122	-1.000000	-1.000000	-1.000000	-1.000000	-1.000000	-1.000000	-1.000000	138.689655	0.000000	-1.000000	-1.000000	227824.000000	1772918483.991058
-2068.965000	35315.820000	-14475.555000	-17102.655000	0.000000	0.000000	0.000000	0.000000	-44.768138	-52.063982	-85.280444	-72.738331	0.000000	0.000000	0.000000	0.000000	4.074420	0.076300	-0.396760	-0.012878	0.910581	0.388122	-1.000000	-1.000000	-1.000000	-1.000000	-1.000000	-1.000000	-1.000000	138.689655	0.000000	-1.000000	-1.000000	227825.000000	1772918483.993809
-2034.495000	35418.105000	-14388.120000	-17028.045000	0.000000	0.000000	0.000000	0.000000	48.121763	16.418112	82.323352	87.196951	0.000000	0.000000	0.000000	0.000000	4.074420	0.076300	-0.396760	-0.012878	0.910581	0.388122	-1.000000	-1.000000	-1.000000	-1.000000	-1.000000	-1.000000	-1.000000	138.689655	0.000000	-1.000000	-1.000000	227826.000000	1772918483.993812
-2078.865000	35422.830000	-14458.275000	-17101.395000	0.000000	0.000000	0.000000	0.000000	110.335945	95.331030	201.410308	195.611355	0.000000	0.000000	0.000000	0.000000	4.074420	0.076300	-0.396760	-0.012878	0.910581	0.388122	-1.000000	-1.000000	-1.000000	-1.000000	-1.000000	-1.000000	-1.000000	138.689655	0.000000	-1.000000	-1.000000	227827.000000	1772918483.997744
-2153.880000	35452.800000	-14576.940000	-17217.900000	0.000000	0.000000	0.000000	0.000000	109.761433	136.724797	207.989167	194.958716	0.000000	0.000000	0.000000	0.000000	4.074420	0.076300	-0.396760	-0.012878	0.910581	0.388122	-1.000000	-1.000000	-1.000000	-1.000000	-1.000000	-1.000000	-1.000000	138.689655	0.000000	-1.000000	-1.000000	227828.000000	1772918483.997746
-2291.040000	35410.500000	-14819.670000	-17449.785000	0.000000	0.000000	0.000000	0.000000	47.893588	115.099857	99.346821	86.815133	0.000000	0.000000	0.000000	0.000000	4.074420	0.076300	-0.396760	-0.012878	0.910581	0.388122	-1.000000	-1.000000	-1.000000	-1.000000	-1.000000	-1.000000	-1.000000	138.689655	0.000000	-1.000000	-1.000000	227829.000000	1772918484.001627
-2310.795000	35188.245000	-14910.480000	-17529.480000	0.000000	0.000000	0.000000	0.000000	-39.697139	38.286599	-63.628878	-68.348668	0.000000	0.000000	0.000000	0.000000	4.074420	0.076300	-0.396760	-0.012878	0.910581	0.388122	-1.000000	-1.000000	-1.000000	-1.000000	-1.000000	-1.000000	-1.000000	138.689655	0.000000	-1.000000	-1.000000	227830.000000	1772918484.001630
-2264.940000	35095.005000	-14844.780000	-17459.145000	0.000000	0.000000	0.000000	0.000000	-102.141554	-63.585401	-189.474549	-183.631856	0.000000	0.000000	0.000000	0.000000	4.165980	1.632820	-4.394880	-0.007263	0.911985	0.387511	-1.000000	-1.000000	-1.000000	-1.000000	-1.000000	-1.000000	-1.000000	138.689655	0.000000	-1.000000	-1.000000	227831.000000	1772918484.005654
-2207.340000	35052.705000	-14748.165000	-17367.165000	0.000000	0.000000	0.000000	0.000000	-102.957399	-145.744624	-206.614539	-193.479524	0.000000	0.000000	0.000000	0.000000	4.165980	1.632820	-4.394880	-0.007263	0.911985	0.387511	-1.000000	-1.000000	-1.000000	-1.000000	-1.000000	-1.000000	-1.000000	138.689655	0.000000	-1.000000	-1.000000	227832.000000	1772918484.005657
-2060.820000	35050.050000	-14505.480000	-17134.875000	0.000000	0.000000	0.000000	0.000000	-43.016062	-165.211978	-106.709588	-93.637756	0.000000	0.000000	0.000000	0.000000	4.165980	1.632820	-4.394880	-0.007263	0.911985	0.387511	-1.000000	-1.000000	-1.000000	-1.000000	-1.000000	-1.000000	-1.000000	138.689655	0.000000	-1.000000	-1.000000	227833.000000	1772918484.010302
-1993.590000	35185.230000	-14347.890000	-16988.895000	0.000000	0.000000	0.000000	0.000000	43.168719	-108.223577	54.071073	59.885672	0.000000	0.000000	0.000000	0.000000	4.165980	1.632820	-4.394880	-0.007263	0.911985	0.387511	-1.000000	-1.000000	-1.000000	-1.000000	-1.000000	-1.000000	-1.000000	138.689655	0.000000	-1.000000	-1.000000	227834.000000	1772918484.010305
-2027.925000	35227.575000	-14392.890000	-17041.860000	0.000000	0.000000	0.000000	0.000000	107.390152	0.163676	187.691953	183.226803	0.000000	0.000000	0.000000	0.000000	4.165980	1.632820	-4.394880	-0.007263	0.911985	0.387511	-1.000000	-1.000000	-1.000000	-1.000000	-1.000000	-1.000000	-1.000000	138.689655	0.000000	-1.000000	-1.000000	227835.000000	1772918484.013704
-2075.985000	35227.710000	-14481.540000	-17128.215000	0.000000	0.000000	0.000000	0.000000	112.223902	106.960079	218.711222	206.644071	0.000000	0.000000	0.000000	0.000000	4.165980	1.632820	-4.394880	-0.007263	0.911985	0.387511	-1.000000	-1.000000	-1.000000	-1.000000	-1.000000	-1.000000	-1.000000	138.689655	0.000000	-1.000000	-1.000000	227836.000000	1772918484.013707
-2190.240000	35178.075000	-14684.040000	-17320.185000	0.000000	0.000000	0.000000	0.000000	53.902486	158.090839	128.510868	115.676672	0.000000	0.000000	0.000000	0.000000	4.165980	1.632820	-4.394880	-0.007263	0.911985	0.387511	-1.000000	-1.000000	-1.000000	-1.000000	-1.000000	-1.000000	-1.000000	138.689655	0.000000	-1.000000	-1.000000	227837.000000	1772918484.017721
-2322.405000	35044.830000	-14912.640000	-17532.495000	0.000000	0.000000	0.000000	0.000000	-36.730409	130.022565	-34.662914	-40.936739	0.000000	0.000000	0.000000	0.000000	4.165980	1.632820	-4.394880	-0.007263	0.911985	0.387511	-1.000000	-1.000000	-1.000000	-1.000000	-1.000000	-1.000000	-1.000000	138.689655	0.000000	-1.000000	-1.000000	227838.000000	1772918484.017724
-2310.930000	35036.370000	-14897.070000	-17513.145000	0.000000	0.000000	0.000000	0.000000	-112.991718	42.641656	-184.738964	-180.706919	0.000000	0.000000	0.000000	0.000000	4.165980	1.632820	-4.394880	-0.007263	0.911985	0.387511	-1.000000	-1.000000	-1.000000	-1.000000	-1.000000	-1.000000	-1.000000	138.689655	0.000000	-1.000000	-1.000000	227839.000000	1772918484.021783
-2262.060000	35081.505000	-14818.680000	-17438.220000	0.000000	0.000000	0.000000	0.000000	-133.476799	-51.515487	-239.734867	-227.650350	0.000000	0.000000	0.000000	0.000000	4.165980	1.632820	-4.394880	-0.007263	0.911985	0.387511	-1.000000	-1.000000	-1.000000	-1.000000	-1.000000	-1.000000	-1.000000	138.689655	0.000000	-1.000000	-1.000000	227840.000000	1772918484.021787
-2146.185000	35095.230000	-14629.545000	-17255.340000	0.000000	0.000000	0.000000	0.000000	-83.854440	-100.362482	-166.614412	-153.524958	0.000000	0.000000	0.000000	0.000000	2.517900	2.548420	-4.379620	-0.010437	0.915525	0.387999	-1.000000	-1.000000	-1.000000	-1.000000	-1.000000	-1.000000	-1.000000	138.689655	0.000000	-1.000000	-1.000000	227841.000000	1772918484.025750
-2021.040000	35183.745000	-14389.380000	-17025.840000	0.000000	0.000000	0.000000	0.000000	12.526476	-86.652227	-2.252628	4.395466	0.000000	0.000000	0.000000	0.000000	2.517900	2.548420	-4.379620	-0.010437	0.915525	0.387999	-1.000000	-1.000000	-1.000000	-1.000000	-1.000000	-1.000000	-1.000000	138.689655	0.000000	-1.000000	-1.000000	227842.000000	1772918484.025753
-2011.050000	35172.630000	-14357.340000	-17009.595000	0.000000	0.000000	0.000000	0.000000	106.386758	-31.792334	167.885106	164.389989	0.000000	0.000000	0.000000	0.000000	2.517900	2.548420	-4.379620	-0.010437	0.915525	0.387999	-1.000000	-1.000000	-1.000000	-1.000000	-1.000000	-1.000000	-1.000000	138.689655	0.000000	-1.000000	-1.000000	227843.000000	1772918484.029257
-2053.170000	35146.980000	-14431.860000	-17090.415000	0.000000	0.000000	0.000000	0.000000	147.524610	24.181160	252.801545	240.632448	0.000000	0.000000	0.000000	0.000000	2.517900	2.548420	-4.379620	-0.010437	0.915525	0.387999	-1.000000	-1.000000	-1.000000	-1.000000	-1.000000	-1.000000	-1.000000	138.689655	0.000000	-1.000000	-1.000000	227844.000000	1772918484.029259
-2167.695000	35179.830000	-14604.750000	-17259.570000	0.000000	0.000000	0.000000	0.000000	112.462728	49.534279	204.747187	189.639170	0.000000	0.000000	0.000000	0.000000	2.517900	2.548420	-4.379620	-0.010437	0.915525	0.387999	-1.000000	-1.000000	-1.000000	-1.000000	-1.000000	-1.000000	-1.000000	138.689655	0.000000	-1.000000	-1.000000	227845.000000	1772918484.033899
-2302.110000	35071.380000	-14863.005000	-17500.365000	0.000000	0.000000	0.000000	0.000000	18.505265	38.144550	47.816360	37.379174	0.000000	0.000000	0.000000	0.000000	2.517900	2.548420	-4.379620	-0.010437	0.915525	0.387999	-1.000000	-1.000000	-1.000000	-1.000000	-1.000000	-1.000000	-1.000000	138.689655	0.000000	-1.000000	-1.000000	227846.000000	1772918484.033901
-2284.830000	34908.885000	-14886.000000	-17500.860000	0.000000	0.000000	0.000000	0.000000	-84.817032	0.880316	-135.333027	-134.946620	0.000000	0.000000	0.000000	0.000000	2.517900	2.548420	-4.379620	-0.010437	0.915525	0.387999	-1.000000	-1.000000	-1.000000	-1.000000	-1.000000	-1.000000	-1.000000	138.689655	0.000000	-1.000000	-1.000000	227847.000000	1772918484.040101
-2232.495000	34881.525000	-14797.530000	-17414.325000	0.000000	0.000000	0.000000	0.000000	-140.495870	-44.604941	-244.976775	-232.587153	0.000000	0.000000	0.000000	0.000000	2.517900	2.548420	-4.379620	-0.010437	0.915525	0.387999	-1.000000	-1.000000	-1.000000	-1.000000	-1.000000	-1.000000	-1.000000	138.689655	0.000000	-1.000000	-1.000000	227848.000000	1772918484.040104
-2122.965000	34846.965000	-14629.365000	-17256.465000	0.000000	0.000000	0.000000	0.000000	-117.666414	-72.573991	-219.763485	-201.108098	0.000000	0.000000	0.000000	0.000000	2.517900	2.548420	-4.379620	-0.010437	0.915525	0.387999	-1.000000	-1.000000	-1.000000	-1.000000	-1.000000	-1.000000	-1.000000	138.689655	0.000000	-1.000000	-1.000000	227849.000000	1772918484.043306
-1954.710000	34808.760000	-14348.520000	-16986.015000	0.000000	0.000000	0.000000	0.000000	-30.492806	-62.851864	-74.538929	-59.750311	0.000000	0.000000	0.000000	0.000000	2.517900	2.548420	-4.379620	-0.010437	0.915525	0.387999	-1.000000	-1.000000	-1.000000	-1.000000	-1.000000	-1.000000	-1.000000	138.689655	0.000000	-1.000000	-1.000000	227850.000000	1772918484.043309
-1948.770000	34874.730000	-14310.945000	-16951.860000	0.000000	0.000000	0.000000	0.000000	72.160358	-18.041611	109.922313	112.820534	0.000000	0.000000	0.000000	0.000000	4.196500	2.487380	-4.074420	-0.015686	0.914548	0.388427	-1.000000	-1.000000	-1.000000	-1.000000	-1.000000	-1.000000	-1.000000	138.689655	0.000000	-1.000000	-1.000000	227851.000000	1772918484.048130
-2009.565000	34818.570000	-14403.645000	-17047.980000	0.000000	0.000000	0.000000	0.000000	131.917653	39.969096	229.847160	220.017786	0.000000	0.000000	0.000000	0.000000	4.196500	2.487380	-4.074420	-0.015686	0.914548	0.388427	-1.000000	-1.000000	-1.000000	-1.000000	-1.000000	-1.000000	-1.000000	138.689655	0.000000	-1.000000	-1.000000	227852.000000	1772918484.048133
-2077.965000	34779.915000	-14504.265000	-17147.295000	0.000000	0.000000	0.000000	0.000000	114.019595	81.743261	217.499506	200.961121	0.000000	0.000000	0.000000	0.000000	4.196500	2.487380	-4.074420	-0.015686	0.914548	0.388427	-1.000000	-1.000000	-1.000000	-1.000000	-1.000000	-1.000000	-1.000000	138.689655	0.000000	-1.000000	-1.000000	227853.000000	1772918484.051284
-2204.100000	34662.645000	-14729.445000	-17369.145000	0.000000	0.000000	0.000000	0.000000	30.687569	84.716631	84.483290	69.740514	0.000000	0.000000	0.000000	0.000000	4.196500	2.487380	-4.074420	-0.015686	0.914548	0.388427	-1.000000	-1.000000	-1.000000	-1.000000	-1.000000	-1.000000	-1.000000	138.689655	0.000000	-1.000000	-1.000000	227854.000000	1772918484.051287
-2236.815000	34517.205000	-14832.855000	-17458.290000	0.000000	0.000000	0.000000	0.000000	-69.187984	46.477687	-91.571129	-98.024361	0.000000	0.000000	0.000000	0.000000	4.196500	2.487380	-4.074420	-0.015686	0.914548	0.388427	-1.000000	-1.000000	-1.000000	-1.000000	-1.000000	-1.000000	-1.000000	138.689655	0.000000	-1.000000	-1.000000	227855.000000	1772918484.053750
-2187.045000	34432.920000	-14764.680000	-17383.635000	0.000000	0.000000	0.000000	0.000000	-130.055853	-13.634045	-214.844999	-210.881838	0.000000	0.000000	0.000000	0.000000	4.196500	2.487380	-4.074420	-0.015686	0.914548	0.388427	-1.000000	-1.000000	-1.000000	-1.000000	-1.000000	-1.000000	-1.000000	138.689655	0.000000	-1.000000	-1.000000	227856.000000	1772918484.053753
-2118.195000	34371.180000	-14641.425000	-17270.505000	0.000000	0.000000	0.000000	0.000000	-119.148763	-63.383575	-219.546404	-208.016696	0.000000	0.000000	0.000000	0.000000	4.196500	2.487380	-4.074420	-0.015686	0.914548	0.388427	-1.000000	-1.000000	-1.000000	-1.000000	-1.000000	-1.000000	-1.000000	138.689655	0.000000	-1.000000	-1.000000	227857.000000	1772918484.058443
-1983.915000	34399.485000	-14404.545000	-17047.260000	0.000000	0.000000	0.000000	0.000000	-44.071389	-74.859732	-104.785335	-92.488747	0.000000	0.000000	0.000000	0.000000	4.196500	2.487380	-4.074420	-0.015686	0.914548	0.388427	-1.000000	-1.000000	-1.000000	-1.000000	-1.000000	-1.000000	-1.000000	138.689655	0.000000	-1.000000	-1.000000	227858.000000	1772918484.058446
-1914.615000	34510.770000	-14253.345000	-16909.920000	0.000000	0.000000	0.000000	0.000000	53.959223	-39.565507	66.665994	72.498551	0.000000	0.000000	0.000000	0.000000	4.196500	2.487380	-4.074420	-0.015686	0.914548	0.388427	-1.000000	-1.000000	-1.000000	-1.000000	-1.000000	-1.000000	-1.000000	138.689655	0.000000	-1.000000	-1.000000	227859.000000	1772918484.062225
-1938.870000	34487.460000	-14303.790000	-16956.945000	0.000000	0.000000	0.000000	0.000000	123.096865	25.506640	202.411159	198.719819	0.000000	0.000000	0.000000	0.000000	4.196500	2.487380	-4.074420	-0.015686	0.914548	0.388427	-1.000000	-1.000000	-1.000000	-1.000000	-1.000000	-1.000000	-1.000000	138.689655	0.000000	-1.000000	-1.000000	227860.000000	1772918484.062228
-2006.280000	34484.490000	-14426.415000	-17065.530000	0.000000	0.000000	0.000000	0.000000	126.487749	82.340256	227.214272	217.410405	0.000000	0.000000	0.000000	0.000000	4.959500	2.380560	-3.128300	-0.018433	0.912290	0.387572	-1.000000	-1.000000	-1.000000	-1.000000	-1.000000	-1.000000	-1.000000	138.689655	0.000000	-1.000000	-1.000000	227861.000000	1772918484.065833
-2138.805000	34467.885000	-14636.655000	-17273.655000	0.000000	0.000000	0.000000	0.000000	62.182059	96.354974	126.465649	117.997897	0.000000	0.000000	0.000000	0.000000	4.959500	2.380560	-3.128300	-0.018433	0.912290	0.387572	-1.000000	-1.000000	-1.000000	-1.000000	-1.000000	-1.000000	-1.000000	138.689655	0.000000	-1.000000	-1.000000	227862.000000	1772918484.065835
-2231.055000	34348.005000	-14818.860000	-17449.920000	0.000000	0.000000	0.000000	0.000000	-36.028496	60.299172	-44.622110	-45.966453	0.000000	0.000000	0.000000	0.000000	4.959500	2.380560	-3.128300	-0.018433	0.912290	0.387572	-1.000000	-1.000000	-1.000000	-1.000000	-1.000000	-1.000000	-1.000000	138.689655	0.000000	-1.000000	-1.000000	227863.000000	1772918484.073131
-2197.980000	34283.250000	-14776.605000	-17405.370000	0.000000	0.000000	0.000000	0.000000	-115.941677	-7.014043	-192.676416	-186.495036	0.000000	0.000000	0.000000	0.000000	4.959500	2.380560	-3.128300	-0.018433	0.912290	0.387572	-1.000000	-1.000000	-1.000000	-1.000000	-1.000000	-1.000000	-1.000000	138.689655	0.000000	-1.000000	-1.000000	227864.000000	1772918484.073133
-2160.765000	34322.220000	-14703.930000	-17331.930000	0.000000	0.000000	0.000000	0.000000	-133.630079	-71.183011	-236.017539	-226.427600	0.000000	0.000000	0.000000	0.000000	4.959500	2.380560	-3.128300	-0.018433	0.912290	0.387572	-1.000000	-1.000000	-1.000000	-1.000000	-1.000000	-1.000000	-1.000000	138.689655	0.000000	-1.000000	-1.000000	227865.000000	1772918484.073137
-2066.130000	34399.215000	-14541.570000	-17165.880000	0.000000	0.000000	0.000000	0.000000	-80.017672	-96.002506	-151.980035	-144.256961	0.000000	0.000000	0.000000	0.000000	4.959500	2.380560	-3.128300	-0.018433	0.912290	0.387572	-1.000000	-1.000000	-1.000000	-1.000000	-1.000000	-1.000000	-1.000000	138.689655	0.000000	-1.000000	-1.000000	227866.000000	1772918484.073139
-1957.815000	34536.735000	-14321.160000	-16960.455000	0.000000	0.000000	0.000000	0.000000	14.693030	-65.795372	11.960589	14.190265	0.000000	0.000000	0.000000	0.000000	4.959500	2.380560	-3.128300	-0.018433	0.912290	0.387572	-1.000000	-1.000000	-1.000000	-1.000000	-1.000000	-1.000000	-1.000000	138.689655	0.000000	-1.000000	-1.000000	227867.000000	1772918484.077895
-1967.175000	34586.505000	-14318.640000	-16970.265000	0.000000	0.000000	0.000000	0.000000	100.787425	1.557482	169.591221	165.094207	0.000000	0.000000	0.000000	0.000000	4.959500	2.380560	-3.128300	-0.018433	0.912290	0.387572	-1.000000	-1.000000	-1.000000	-1.000000	-1.000000	-1.000000	-1.000000	138.689655	0.000000	-1.000000	-1.000000	227868.000000	1772918484.077897
-1982.970000	34473.330000	-14369.670000	-17022.240000	0.000000	0.000000	0.000000	0.000000	134.334407	61.996077	239.117525	229.119066	0.000000	0.000000	0.000000	0.000000	4.959500	2.380560	-3.128300	-0.018433	0.912290	0.387572	-1.000000	-1.000000	-1.000000	-1.000000	-1.000000	-1.000000	-1.000000	138.689655	0.000000	-1.000000	-1.000000	227869.000000	1772918484.082974
-2094.795000	34482.465000	-14547.105000	-17192.970000	0.000000	0.000000	0.000000	0.000000	99.229232	74.055732	184.312084	172.848618	0.000000	0.000000	0.000000	0.000000	4.959500	2.380560	-3.128300	-0.018433	0.912290	0.387572	-1.000000	-1.000000	-1.000000	-1.000000	-1.000000	-1.000000	-1.000000	138.689655	0.000000	-1.000000	-1.000000	227870.000000	1772918484.082977
-2249.145000	34482.015000	-14812.740000	-17448.885000	0.000000	0.000000	0.000000	0.000000	13.743928	34.198213	33.464980	26.193482	0.000000	0.000000	0.000000	0.000000	4.776380	3.235120	-2.655240	-0.019470	0.913389	0.388366	-1.000000	-1.000000	-1.000000	-1.000000	-1.000000	-1.000000	-1.000000	138.689655	0.000000	-1.000000	-1.000000	227871.000000	1772918484.085880
-2265.570000	34510.410000	-14850.000000	-17476.605000	0.000000	0.000000	0.000000	0.000000	-79.882307	-22.758420	-136.727662	-135.655731	0.000000	0.000000	0.000000	0.000000	4.776380	3.235120	-2.655240	-0.019470	0.913389	0.388366	-1.000000	-1.000000	-1.000000	-1.000000	-1.000000	-1.000000	-1.000000	138.689655	0.000000	-1.000000	-1.000000	227872.000000	1772918484.085883
-2231.955000	34567.290000	-14782.860000	-17410.905000	0.000000	0.000000	0.000000	0.000000	-132.466468	-57.882606	-235.883380	-226.588085	0.000000	0.000000	0.000000	0.000000	4.776380	3.235120	-2.655240	-0.019470	0.913389	0.388366	-1.000000	-1.000000	-1.000000	-1.000000	-1.000000	-1.000000	-1.000000	138.689655	0.000000	-1.000000	-1.000000	227873.000000	1772918484.089964
-2162.655000	34622.055000	-14653.350000	-17289.405000	0.000000	0.000000	0.000000	0.000000	-114.184067	-54.482154	-208.358669	-195.607036	0.000000	0.000000	0.000000	0.000000	4.776380	3.235120	-2.655240	-0.019470	0.913389	0.388366	-1.000000	-1.000000	-1.000000	-1.000000	-1.000000	-1.000000	-1.000000	138.689655	0.000000	-1.000000	-1.000000	227874.000000	1772918484.089966
-2018.340000	34737.120000	-14398.020000	-17043.570000	0.000000	0.000000	0.000000	0.000000	-34.551858	-20.641177	-68.904602	-59.562028	0.000000	0.000000	0.000000	0.000000	4.776380	3.235120	-2.655240	-0.019470	0.913389	0.388366	-1.000000	-1.000000	-1.000000	-1.000000	-1.000000	-1.000000	-1.000000	138.689655	0.000000	-1.000000	-1.000000	227875.000000	1772918484.093845
-1997.640000	34819.335000	-14337.765000	-16989.885000	0.000000	0.000000	0.000000	0.000000	63.950770	22.512367	107.572948	108.633600	0.000000	0.000000	0.000000	0.000000	4.776380	3.235120	-2.655240	-0.019470	0.913389	0.388366	-1.000000	-1.000000	-1.000000	-1.000000	-1.000000	-1.000000	-1.000000	138.689655	0.000000	-1.000000	-1.000000	227876.000000	1772918484.093848
-2021.670000	34733.610000	-14389.605000	-17047.440000	0.000000	0.000000	0.000000	0.000000	128.431293	50.289871	226.078067	218.737246	0.000000	0.000000	0.000000	0.000000	4.776380	3.235120	-2.655240	-0.019470	0.913389	0.388366	-1.000000	-1.000000	-1.000000	-1.000000	-1.000000	-1.000000	-1.000000	138.689655	0.000000	-1.000000	-1.000000	227877.000000	1772918484.097993
-2084.490000	34694.145000	-14505.840000	-17160.795000	0.000000	0.000000	0.000000	0.000000	124.152159	42.396329	222.236140	210.812029	0.000000	0.000000	0.000000	0.000000	4.776380	3.235120	-2.655240	-0.019470	0.913389	0.388366	-1.000000	-1.000000	-1.000000	-1.000000	-1.000000	-1.000000	-1.000000	138.689655	0.000000	-1.000000	-1.000000	227878.000000	1772918484.097996
-2213.910000	34616.205000	-14751.495000	-17394.030000	0.000000	0.000000	0.000000	0.000000	54.938428	-0.767829	99.873482	90.625822	0.000000	0.000000	0.000000	0.000000	4.776380	3.235120	-2.655240	-0.019470	0.913389	0.388366	-1.000000	-1.000000	-1.000000	-1.000000	-1.000000	-1.000000	-1.000000	138.689655	0.000000	-1.000000	-1.000000	227879.000000	1772918484.102055
-2263.005000	34534.890000	-14849.910000	-17482.365000	0.000000	0.000000	0.000000	0.000000	-41.358318	-54.338340	-74.246579	-76.192678	0.000000	0.000000	0.000000	0.000000	4.776380	3.235120	-2.655240	-0.019470	0.913389	0.388366	-1.000000	-1.000000	-1.000000	-1.000000	-1.000000	-1.000000	-1.000000	138.689655	0.000000	-1.000000	-1.000000	227880.000000	1772918484.102058
-2244.105000	34527.420000	-14801.130000	-17433.405000	0.000000	0.000000	0.000000	0.000000	-113.683568	-86.970123	-206.506121	-199.923199	0.000000	0.000000	0.000000	0.000000	5.814060	1.999060	-2.731540	-0.021118	0.913572	0.388122	-1.000000	-1.000000	-1.000000	-1.000000	-1.000000	-1.000000	-1.000000	138.689655	0.000000	-1.000000	-1.000000	227881.000000	1772918484.105928
-2188.170000	34552.305000	-14700.960000	-17335.395000	0.000000	0.000000	0.000000	0.000000	-124.060372	-78.431346	-225.238494	-213.772265	0.000000	0.000000	0.000000	0.000000	5.814060	1.999060	-2.731540	-0.021118	0.913572	0.388122	-1.000000	-1.000000	-1.000000	-1.000000	-1.000000	-1.000000	-1.000000	138.689655	0.000000	-1.000000	-1.000000	227882.000000	1772918484.105931
-2045.655000	34617.330000	-14462.190000	-17103.420000	0.000000	0.000000	0.000000	0.000000	-68.394445	-28.873578	-122.206626	-112.259768	0.000000	0.000000	0.000000	0.000000	5.814060	1.999060	-2.731540	-0.021118	0.913572	0.388122	-1.000000	-1.000000	-1.000000	-1.000000	-1.000000	-1.000000	-1.000000	138.689655	0.000000	-1.000000	-1.000000	227883.000000	1772918484.109865
-1991.025000	34766.775000	-14335.605000	-16987.005000	0.000000	0.000000	0.000000	0.000000	22.673770	42.051115	45.136408	48.190858	0.000000	0.000000	0.000000	0.000000	5.814060	1.999060	-2.731540	-0.021118	0.913572	0.388122	-1.000000	-1.000000	-1.000000	-1.000000	-1.000000	-1.000000	-1.000000	138.689655	0.000000	-1.000000	-1.000000	227884.000000	1772918484.109868
-2019.240000	34796.790000	-14379.795000	-17040.645000	0.000000	0.000000	0.000000	0.000000	99.198544	104.856508	185.510163	180.027573	0.000000	0.000000	0.000000	0.000000	5.814060	1.999060	-2.731540	-0.021118	0.913572	0.388122	-1.000000	-1.000000	-1.000000	-1.000000	-1.000000	-1.000000	-1.000000	138.689655	0.000000	-1.000000	-1.000000	227885.000000	1772918484.113937
-2060.640000	34732.980000	-14461.065000	-17119.665000	0.000000	0.000000	0.000000	0.000000	118.474150	128.391993	221.680721	210.330894	0.000000	0.000000	0.000000	0.000000	5.814060	1.999060	-2.731540	-0.021118	0.913572	0.388122	-1.000000	-1.000000	-1.000000	-1.000000	-1.000000	-1.000000	-1.000000	138.689655	0.000000	-1.000000	-1.000000	227886.000000	1772918484.113940
-2188.980000	34656.975000	-14687.280000	-17335.035000	0.000000	0.000000	0.000000	0.000000	71.266222	93.563609	135.494135	124.087924	0.000000	0.000000	0.000000	0.000000	5.814060	1.999060	-2.731540	-0.021118	0.913572	0.388122	-1.000000	-1.000000	-1.000000	-1.000000	-1.000000	-1.000000	-1.000000	138.689655	0.000000	-1.000000	-1.000000	227887.000000	1772918484.117958
-2268.270000	34514.460000	-14856.255000	-17494.200000	0.000000	0.000000	0.000000	0.000000	-14.805758	10.750573	-24.327325	-29.605211	0.000000	0.000000	0.000000	0.000000	5.814060	1.999060	-2.731540	-0.021118	0.913572	0.388122	-1.000000	-1.000000	-1.000000	-1.000000	-1.000000	-1.000000	-1.000000	138.689655	0.000000	-1.000000	-1.000000	227888.000000	1772918484.117961
-2234.880000	34498.845000	-14809.545000	-17443.980000	0.000000	0.000000	0.000000	0.000000	-91.759900	-80.948504	-170.399900	-166.547255	0.000000	0.000000	0.000000	0.000000	5.814060	1.999060	-2.731540	-0.021118	0.913572	0.388122	-1.000000	-1.000000	-1.000000	-1.000000	-1.000000	-1.000000	-1.000000	138.689655	0.000000	-1.000000	-1.000000	227889.000000	1772918484.121904
-2160.180000	34438.455000	-14697.315000	-17335.260000	0.000000	0.000000	0.000000	0.000000	-115.461272	-135.156725	-220.505792	-209.734147	0.000000	0.000000	0.000000	0.000000	5.814060	1.999060	-2.731540	-0.021118	0.913572	0.388122	-1.000000	-1.000000	-1.000000	-1.000000	-1.000000	-1.000000	-1.000000	138.689655	0.000000	-1.000000	-1.000000	227890.000000	1772918484.121906
-2036.205000	34382.835000	-14494.410000	-17134.020000	0.000000	0.000000	0.000000	0.000000	-71.748601	-127.423715	-145.697905	-134.057492	0.000000	0.000000	0.000000	0.000000	4.654300	0.610400	-3.189340	-0.022644	0.916746	0.386291	-1.000000	-1.000000	-1.000000	-1.000000	-1.000000	-1.000000	-1.000000	138.689655	0.000000	-1.000000	-1.000000	227891.000000	1772918484.125656
-1907.820000	34463.880000	-14266.620000	-16917.660000	0.000000	0.000000	0.000000	0.000000	14.727326	-67.048796	11.903305	18.279501	0.000000	0.000000	0.000000	0.000000	4.654300	0.610400	-3.189340	-0.022644	0.916746	0.386291	-1.000000	-1.000000	-1.000000	-1.000000	-1.000000	-1.000000	-1.000000	138.689655	0.000000	-1.000000	-1.000000	227892.000000	1772918484.125659
-1921.005000	34479.855000	-14277.690000	-16935.750000	0.000000	0.000000	0.000000	0.000000	95.352791	17.220734	165.216545	163.302299	0.000000	0.000000	0.000000	0.000000	4.654300	0.610400	-3.189340	-0.022644	0.916746	0.386291	-1.000000	-1.000000	-1.000000	-1.000000	-1.000000	-1.000000	-1.000000	138.689655	0.000000	-1.000000	-1.000000	227893.000000	1772918484.129234
-1981.845000	34446.285000	-14375.970000	-17029.395000	0.000000	0.000000	0.000000	0.000000	123.005256	90.303258	227.671624	218.823551	0.000000	0.000000	0.000000	0.000000	4.654300	0.610400	-3.189340	-0.022644	0.916746	0.386291	-1.000000	-1.000000	-1.000000	-1.000000	-1.000000	-1.000000	-1.000000	138.689655	0.000000	-1.000000	-1.000000	227894.000000	1772918484.129237
-2133.720000	34503.210000	-14591.070000	-17243.145000	0.000000	0.000000	0.000000	0.000000	78.634320	122.378887	161.265263	150.477241	0.000000	0.000000	0.000000	0.000000	4.654300	0.610400	-3.189340	-0.022644	0.916746	0.386291	-1.000000	-1.000000	-1.000000	-1.000000	-1.000000	-1.000000	-1.000000	138.689655	0.000000	-1.000000	-1.000000	227895.000000	1772918484.152896
-2278.440000	34432.785000	-14850.630000	-17492.895000	0.000000	0.000000	0.000000	0.000000	-16.423104	105.253449	-0.095937	-7.027517	0.000000	0.000000	0.000000	0.000000	4.654300	0.610400	-3.189340	-0.022644	0.916746	0.386291	-1.000000	-1.000000	-1.000000	-1.000000	-1.000000	-1.000000	-1.000000	138.689655	0.000000	-1.000000	-1.000000	227896.000000	1772918484.152899
-2273.490000	34384.185000	-14862.465000	-17493.975000	0.000000	0.000000	0.000000	0.000000	-110.600661	51.872992	-169.344589	-168.926750	0.000000	0.000000	0.000000	0.000000	4.654300	0.610400	-3.189340	-0.022644	0.916746	0.386291	-1.000000	-1.000000	-1.000000	-1.000000	-1.000000	-1.000000	-1.000000	138.689655	0.000000	-1.000000	-1.000000	227897.000000	1772918484.152903
-2182.590000	34362.090000	-14740.695000	-17368.065000	0.000000	0.000000	0.000000	0.000000	-147.730650	-14.074219	-250.084092	-242.592285	0.000000	0.000000	0.000000	0.000000	4.654300	0.610400	-3.189340	-0.022644	0.916746	0.386291	-1.000000	-1.000000	-1.000000	-1.000000	-1.000000	-1.000000	-1.000000	138.689655	0.000000	-1.000000	-1.000000	227898.000000	1772918484.152905
-2079.585000	34330.590000	-14575.905000	-17209.710000	0.000000	0.000000	0.000000	0.000000	-101.541341	-65.434108	-192.014491	-181.346812	0.000000	0.000000	0.000000	0.000000	4.654300	0.610400	-3.189340	-0.022644	0.916746	0.386291	-1.000000	-1.000000	-1.000000	-1.000000	-1.000000	-1.000000	-1.000000	138.689655	0.000000	-1.000000	-1.000000	227899.000000	1772918484.152908
-1989.990000	34474.455000	-14372.370000	-17012.835000	0.000000	0.000000	0.000000	0.000000	3.469430	-80.865793	-26.152097	-18.084334	0.000000	0.000000	0.000000	0.000000	4.654300	0.610400	-3.189340	-0.022644	0.916746	0.386291	-1.000000	-1.000000	-1.000000	-1.000000	-1.000000	-1.000000	-1.000000	138.689655	0.000000	-1.000000	-1.000000	227900.000000	1772918484.152910
-2018.520000	34667.325000	-14367.600000	-17021.160000	0.000000	0.000000	0.000000	0.000000	106.610968	-51.241198	154.153224	154.999021	0.000000	0.000000	0.000000	0.000000	1.739640	-0.427280	-2.960440	-0.023743	0.920591	0.384337	-1.000000	-1.000000	-1.000000	-1.000000	-1.000000	-1.000000	-1.000000	138.689655	0.000000	-1.000000	-1.000000	227901.000000	1772918484.152913
-2039.805000	34724.880000	-14415.390000	-17075.520000	0.000000	0.000000	0.000000	0.000000	150.063638	11.356456	249.399831	242.072335	0.000000	0.000000	0.000000	0.000000	1.739640	-0.427280	-2.960440	-0.023743	0.920591	0.384337	-1.000000	-1.000000	-1.000000	-1.000000	-1.000000	-1.000000	-1.000000	138.689655	0.000000	-1.000000	-1.000000	227902.000000	1772918484.152915
-2137.365000	34806.195000	-14565.735000	-17220.870000	0.000000	0.000000	0.000000	0.000000	113.992854	69.768882	211.102425	198.981858	0.000000	0.000000	0.000000	0.000000	1.739640	-0.427280	-2.960440	-0.023743	0.920591	0.384337	-1.000000	-1.000000	-1.000000	-1.000000	-1.000000	-1.000000	-1.000000	138.689655	0.000000	-1.000000	-1.000000	227903.000000	1772918484.152918
-2297.565000	34779.960000	-14843.880000	-17490.870000	0.000000	0.000000	0.000000	0.000000	22.043124	85.204607	64.168964	53.520691	0.000000	0.000000	0.000000	0.000000	1.739640	-0.427280	-2.960440	-0.023743	0.920591	0.384337	-1.000000	-1.000000	-1.000000	-1.000000	-1.000000	-1.000000	-1.000000	138.689655	0.000000	-1.000000	-1.000000	227904.000000	1772918484.152921
-2317.095000	34728.480000	-14909.535000	-17546.355000	0.000000	0.000000	0.000000	0.000000	-77.704650	45.490327	-113.764281	-117.094183	0.000000	0.000000	0.000000	0.000000	1.739640	-0.427280	-2.960440	-0.023743	0.920591	0.384337	-1.000000	-1.000000	-1.000000	-1.000000	-1.000000	-1.000000	-1.000000	138.689655	0.000000	-1.000000	-1.000000	227905.000000	1772918484.257460
-2289.015000	34731.675000	-14853.060000	-17484.750000	0.000000	0.000000	0.000000	0.000000	-134.203312	-28.450129	-229.276996	-223.259482	0.000000	0.000000	0.000000	0.000000	1.739640	-0.427280	-2.960440	-0.023743	0.920591	0.384337	-1.000000	-1.000000	-1.000000	-1.000000	-1.000000	-1.000000	-1.000000	138.689655	0.000000	-1.000000	-1.000000	227906.000000	1772918484.257464
-2218.770000	34664.985000	-14738.625000	-17372.880000	0.000000	0.000000	0.000000	0.000000	-117.967311	-96.364005	-219.929950	-207.580892	0.000000	0.000000	0.000000	0.000000	1.739640	-0.427280	-2.960440	-0.023743	0.920591	0.384337	-1.000000	-1.000000	-1.000000	-1.000000	-1.000000	-1.000000	-1.000000	138.689655	0.000000	-1.000000	-1.000000	227907.000000	1772918484.257469
-2064.870000	34691.760000	-14480.280000	-17122.140000	0.000000	0.000000	0.000000	0.000000	-38.672758	-124.223863	-91.946617	-79.689099	0.000000	0.000000	0.000000	0.000000	1.739640	-0.427280	-2.960440	-0.023743	0.920591	0.384337	-1.000000	-1.000000	-1.000000	-1.000000	-1.000000	-1.000000	-1.000000	138.689655	0.000000	-1.000000	-1.000000	227908.000000	1772918484.257472
-2040.660000	34893.855000	-14388.165000	-17041.590000	0.000000	0.000000	0.000000	0.000000	61.358151	-97.629378	85.305599	91.130703	0.000000	0.000000	0.000000	0.000000	1.739640	-0.427280	-2.960440	-0.023743	0.920591	0.384337	-1.000000	-1.000000	-1.000000	-1.000000	-1.000000	-1.000000	-1.000000	138.689655	0.000000	-1.000000	-1.000000	227909.000000	1772918484.257475
-2092.500000	35038.170000	-14460.345000	-17122.950000	0.000000	0.000000	0.000000	0.000000	127.945739	-22.047393	215.929627	212.377724	0.000000	0.000000	0.000000	0.000000	1.739640	-0.427280	-2.960440	-0.023743	0.920591	0.384337	-1.000000	-1.000000	-1.000000	-1.000000	-1.000000	-1.000000	-1.000000	138.689655	0.000000	-1.000000	-1.000000	227910.000000	1772918484.257478
-2154.690000	35104.005000	-14565.690000	-17225.145000	0.000000	0.000000	0.000000	0.000000	123.741768	71.008715	227.557374	216.602816	0.000000	0.000000	0.000000	0.000000	-1.571780	-0.930860	-2.426340	-0.023743	0.920652	0.383849	-1.000000	-1.000000	-1.000000	-1.000000	-1.000000	-1.000000	-1.000000	138.689655	0.000000	-1.000000	-1.000000	227911.000000	1772918484.257481
-2283.660000	35017.515000	-14790.150000	-17445.960000	0.000000	0.000000	0.000000	0.000000	52.359674	129.796500	115.391711	102.962716	0.000000	0.000000	0.000000	0.000000	-1.571780	-0.930860	-2.426340	-0.023743	0.920652	0.383849	-1.000000	-1.000000	-1.000000	-1.000000	-1.000000	-1.000000	-1.000000	138.689655	0.000000	-1.000000	-1.000000	227912.000000	1772918484.257484
-2319.480000	34753.320000	-14902.110000	-17555.130000	0.000000	0.000000	0.000000	0.000000	-45.192308	112.205474	-56.806220	-64.205904	0.000000	0.000000	0.000000	0.000000	-1.571780	-0.930860	-2.426340	-0.023743	0.920652	0.383849	-1.000000	-1.000000	-1.000000	-1.000000	-1.000000	-1.000000	-1.000000	138.689655	0.000000	-1.000000	-1.000000	227913.000000	1772918484.257487
-2250.585000	34585.245000	-14824.935000	-17463.780000	0.000000	0.000000	0.000000	0.000000	-114.496820	17.815786	-194.057361	-192.923956	0.000000	0.000000	0.000000	0.000000	-1.571780	-0.930860	-2.426340	-0.023743	0.920652	0.383849	-1.000000	-1.000000	-1.000000	-1.000000	-1.000000	-1.000000	-1.000000	138.689655	0.000000	-1.000000	-1.000000	227914.000000	1772918484.257489
-2187.945000	34596.585000	-14746.140000	-17367.660000	0.000000	0.000000	0.000000	0.000000	-117.263844	-99.412439	-221.406844	-212.225716	0.000000	0.000000	0.000000	0.000000	-1.571780	-0.930860	-2.426340	-0.023743	0.920652	0.383849	-1.000000	-1.000000	-1.000000	-1.000000	-1.000000	-1.000000	-1.000000	138.689655	0.000000	-1.000000	-1.000000	227915.000000	1772918484.257493
-2090.250000	34718.895000	-14555.745000	-17189.190000	0.000000	0.000000	0.000000	0.000000	-55.195686	-159.139290	-128.250946	-114.809441	0.000000	0.000000	0.000000	0.000000	-1.571780	-0.930860	-2.426340	-0.023743	0.920652	0.383849	-1.000000	-1.000000	-1.000000	-1.000000	-1.000000	-1.000000	-1.000000	138.689655	0.000000	-1.000000	-1.000000	227916.000000	1772918484.257495
-1979.550000	34797.780000	-14343.165000	-16991.460000	0.000000	0.000000	0.000000	0.000000	33.812620	-115.918563	30.491697	41.768320	0.000000	0.000000	0.000000	0.000000	-1.571780	-0.930860	-2.426340	-0.023743	0.920652	0.383849	-1.000000	-1.000000	-1.000000	-1.000000	-1.000000	-1.000000	-1.000000	138.689655	0.000000	-1.000000	-1.000000	227917.000000	1772918484.257499
-2011.275000	34831.215000	-14371.560000	-17032.635000	0.000000	0.000000	0.000000	0.000000	101.318062	2.612742	170.328429	172.858563	0.000000	0.000000	0.000000	0.000000	-1.571780	-0.930860	-2.426340	-0.023743	0.920652	0.383849	-1.000000	-1.000000	-1.000000	-1.000000	-1.000000	-1.000000	-1.000000	138.689655	0.000000	-1.000000	-1.000000	227918.000000	1772918484.257501
-2051.100000	34781.625000	-14447.115000	-17110.395000	0.000000	0.000000	0.000000	0.000000	111.876733	119.076198	216.931552	208.417370	0.000000	0.000000	0.000000	0.000000	-1.571780	-0.930860	-2.426340	-0.023743	0.920652	0.383849	-1.000000	-1.000000	-1.000000	-1.000000	-1.000000	-1.000000	-1.000000	138.689655	0.000000	-1.000000	-1.000000	227919.000000	1772918484.257505
-2137.815000	34764.120000	-14615.415000	-17267.625000	0.000000	0.000000	0.000000	0.000000	60.487218	165.665509	144.677680	129.466020	0.000000	0.000000	0.000000	0.000000	-1.571780	-0.930860	-2.426340	-0.023743	0.920652	0.383849	-1.000000	-1.000000	-1.000000	-1.000000	-1.000000	-1.000000	-1.000000	138.689655	0.000000	-1.000000	-1.000000	227920.000000	1772918484.257507
-2276.370000	34710.075000	-14872.590000	-17506.530000	0.000000	0.000000	0.000000	0.000000	-25.259291	126.664033	-8.153811	-21.259583	0.000000	0.000000	0.000000	0.000000	-4.028640	-1.281840	-1.800680	-0.022461	0.918699	0.384582	-1.000000	-1.000000	-1.000000	-1.000000	-1.000000	-1.000000	-1.000000	138.689655	0.000000	-1.000000	-1.000000	227921.000000	1772918484.257510
-2296.665000	34697.565000	-14895.180000	-17521.290000	0.000000	0.000000	0.000000	0.000000	-102.161956	36.595308	-162.363973	-165.573157	0.000000	0.000000	0.000000	0.000000	-4.028640	-1.281840	-1.800680	-0.022461	0.918699	0.384582	-1.000000	-1.000000	-1.000000	-1.000000	-1.000000	-1.000000	-1.000000	138.689655	0.000000	-1.000000	-1.000000	227922.000000	1772918484.257513
-2270.970000	34712.415000	-14832.720000	-17460.630000	0.000000	0.000000	0.000000	0.000000	-130.957030	-50.968371	-235.497598	-227.244909	0.000000	0.000000	0.000000	0.000000	-4.028640	-1.281840	-1.800680	-0.022461	0.918699	0.384582	-1.000000	-1.000000	-1.000000	-1.000000	-1.000000	-1.000000	-1.000000	138.689655	0.000000	-1.000000	-1.000000	227923.000000	1772918484.257516
-2169.225000	34719.345000	-14665.770000	-17301.330000	0.000000	0.000000	0.000000	0.000000	-94.134709	-95.720997	-184.483120	-170.433269	0.000000	0.000000	0.000000	0.000000	-4.028640	-1.281840	-1.800680	-0.022461	0.918699	0.384582	-1.000000	-1.000000	-1.000000	-1.000000	-1.000000	-1.000000	-1.000000	138.689655	0.000000	-1.000000	-1.000000	227924.000000	1772918484.257518
-2007.405000	34732.620000	-14395.590000	-17038.395000	0.000000	0.000000	0.000000	0.000000	-6.340972	-88.359076	-32.539688	-21.496087	0.000000	0.000000	0.000000	0.000000	-4.028640	-1.281840	-1.800680	-0.022461	0.918699	0.384582	-1.000000	-1.000000	-1.000000	-1.000000	-1.000000	-1.000000	-1.000000	138.689655	0.000000	-1.000000	-1.000000	227925.000000	1772918484.257521
-1980.765000	34710.705000	-14346.855000	-17003.610000	0.000000	0.000000	0.000000	0.000000	91.116704	-47.555347	143.008020	144.753244	0.000000	0.000000	0.000000	0.000000	-4.028640	-1.281840	-1.800680	-0.022461	0.918699	0.384582	-1.000000	-1.000000	-1.000000	-1.000000	-1.000000	-1.000000	-1.000000	138.689655	0.000000	-1.000000	-1.000000	227926.000000	1772918484.257524
-2030.265000	34646.220000	-14418.585000	-17082.810000	0.000000	0.000000	0.000000	0.000000	146.999687	-3.391060	248.013777	239.756557	0.000000	0.000000	0.000000	0.000000	-4.028640	-1.281840	-1.800680	-0.022461	0.918699	0.384582	-1.000000	-1.000000	-1.000000	-1.000000	-1.000000	-1.000000	-1.000000	138.689655	0.000000	-1.000000	-1.000000	227927.000000	1772918484.257527
-2137.905000	34694.460000	-14578.155000	-17236.260000	0.000000	0.000000	0.000000	0.000000	127.457574	22.456802	222.163294	208.547234	0.000000	0.000000	0.000000	0.000000	-4.028640	-1.281840	-1.800680	-0.022461	0.918699	0.384582	-1.000000	-1.000000	-1.000000	-1.000000	-1.000000	-1.000000	-1.000000	138.689655	0.000000	-1.000000	-1.000000	227928.000000	1772918484.257529
-2282.805000	34683.120000	-14846.445000	-17487.000000	0.000000	0.000000	0.000000	0.000000	39.757368	28.492709	77.107341	65.800503	0.000000	0.000000	0.000000	0.000000	-4.028640	-1.281840	-1.800680	-0.022461	0.918699	0.384582	-1.000000	-1.000000	-1.000000	-1.000000	-1.000000	-1.000000	-1.000000	138.689655	0.000000	-1.000000	-1.000000	227929.000000	1772918484.257532
-2293.740000	34556.895000	-14902.020000	-17528.670000	0.000000	0.000000	0.000000	0.000000	-69.377932	22.366677	-109.845537	-111.952323	0.000000	0.000000	0.000000	0.000000	-4.028640	-1.281840	-1.800680	-0.022461	0.918699	0.384582	-1.000000	-1.000000	-1.000000	-1.000000	-1.000000	-1.000000	-1.000000	138.689655	0.000000	-1.000000	-1.000000	227930.000000	1772918484.257535
-2238.030000	34512.120000	-14822.280000	-17445.780000	0.000000	0.000000	0.000000	0.000000	-138.841024	6.681925	-236.156499	-227.088270	0.000000	0.000000	0.000000	0.000000	-4.990020	-1.159760	-2.990960	-0.020691	0.917722	0.387999	-1.000000	-1.000000	-1.000000	-1.000000	-1.000000	-1.000000	-1.000000	138.689655	0.000000	-1.000000	-1.000000	227931.000000	1772918484.257538
-2161.980000	34533.675000	-14698.395000	-17329.455000	0.000000	0.000000	0.000000	0.000000	-129.824518	-12.425835	-231.448948	-215.893304	0.000000	0.000000	0.000000	0.000000	-4.990020	-1.159760	-2.990960	-0.020691	0.917722	0.387999	-1.000000	-1.000000	-1.000000	-1.000000	-1.000000	-1.000000	-1.000000	138.689655	0.000000	-1.000000	-1.000000	227932.000000	1772918484.257540
-2016.540000	34619.805000	-14433.435000	-17074.620000	0.000000	0.000000	0.000000	0.000000	-50.203757	-18.452164	-100.825082	-87.565456	0.000000	0.000000	0.000000	0.000000	-4.990020	-1.159760	-2.990960	-0.020691	0.917722	0.387999	-1.000000	-1.000000	-1.000000	-1.000000	-1.000000	-1.000000	-1.000000	138.689655	0.000000	-1.000000	-1.000000	227933.000000	1772918484.257544
-1959.255000	34737.255000	-14303.520000	-16957.755000	0.000000	0.000000	0.000000	0.000000	53.972788	0.882638	82.685719	86.121344	0.000000	0.000000	0.000000	0.000000	-4.990020	-1.159760	-2.990960	-0.020691	0.917722	0.387999	-1.000000	-1.000000	-1.000000	-1.000000	-1.000000	-1.000000	-1.000000	138.689655	0.000000	-1.000000	-1.000000	227934.000000	1772918484.257546
-2026.755000	34794.180000	-14382.585000	-17050.275000	0.000000	0.000000	0.000000	0.000000	125.139564	38.016130	219.335330	210.880161	0.000000	0.000000	0.000000	0.000000	-4.990020	-1.159760	-2.990960	-0.020691	0.917722	0.387999	-1.000000	-1.000000	-1.000000	-1.000000	-1.000000	-1.000000	-1.000000	138.689655	0.000000	-1.000000	-1.000000	227935.000000	1772918484.257549
-2128.320000	34777.125000	-14534.370000	-17191.575000	0.000000	0.000000	0.000000	0.000000	123.165885	66.569299	232.656164	216.604533	0.000000	0.000000	0.000000	0.000000	-4.990020	-1.159760	-2.990960	-0.020691	0.917722	0.387999	-1.000000	-1.000000	-1.000000	-1.000000	-1.000000	-1.000000	-1.000000	138.689655	0.000000	-1.000000	-1.000000	227936.000000	1772918484.257552
-2297.655000	34642.710000	-14826.555000	-17463.015000	0.000000	0.000000	0.000000	0.000000	48.682917	58.412203	113.525389	98.648350	0.000000	0.000000	0.000000	0.000000	-4.990020	-1.159760	-2.990960	-0.020691	0.917722	0.387999	-1.000000	-1.000000	-1.000000	-1.000000	-1.000000	-1.000000	-1.000000	138.689655	0.000000	-1.000000	-1.000000	227937.000000	1772918484.257555
-2298.465000	34469.370000	-14920.065000	-17543.970000	0.000000	0.000000	0.000000	0.000000	-55.143790	4.577807	-72.190065	-77.101775	0.000000	0.000000	0.000000	0.000000	-4.990020	-1.159760	-2.990960	-0.020691	0.917722	0.387999	-1.000000	-1.000000	-1.000000	-1.000000	-1.000000	-1.000000	-1.000000	138.689655	0.000000	-1.000000	-1.000000	227938.000000	1772918484.257557
-2266.110000	34483.500000	-14866.290000	-17484.030000	0.000000	0.000000	0.000000	0.000000	-126.125128	-71.304904	-218.339520	-210.061013	0.000000	0.000000	0.000000	0.000000	-4.990020	-1.159760	-2.990960	-0.020691	0.917722	0.387999	-1.000000	-1.000000	-1.000000	-1.000000	-1.000000	-1.000000	-1.000000	138.689655	0.000000	-1.000000	-1.000000	227939.000000	1772918484.257560
-2203.020000	34468.740000	-14763.150000	-17383.410000	0.000000	0.000000	0.000000	0.000000	-122.272733	-121.232466	-240.130588	-223.337101	0.000000	0.000000	0.000000	0.000000	-4.990020	-1.159760	-2.990960	-0.020691	0.917722	0.387999	-1.000000	-1.000000	-1.000000	-1.000000	-1.000000	-1.000000	-1.000000	138.689655	0.000000	-1.000000	-1.000000	227940.000000	1772918484.257562
-2055.870000	34440.930000	-14524.110000	-17153.505000	0.000000	0.000000	0.000000	0.000000	-48.342088	-110.498566	-127.170014	-111.391707	0.000000	0.000000	0.000000	0.000000	-3.433500	-1.159760	-3.921820	-0.020935	0.916685	0.390990	-1.000000	-1.000000	-1.000000	-1.000000	-1.000000	-1.000000	-1.000000	138.689655	0.000000	-1.000000	-1.000000	227941.000000	1772918484.257565
-1969.020000	34538.535000	-14342.715000	-16983.585000	0.000000	0.000000	0.000000	0.000000	53.201880	-45.135353	56.120259	62.253103	0.000000	0.000000	0.000000	0.000000	-3.433500	-1.159760	-3.921820	-0.020935	0.916685	0.390990	-1.000000	-1.000000	-1.000000	-1.000000	-1.000000	-1.000000	-1.000000	138.689655	0.000000	-1.000000	-1.000000	227942.000000	1772918484.257566
-2026.980000	34660.710000	-14404.320000	-17053.830000	0.000000	0.000000	0.000000	0.000000	127.270597	42.454838	210.062393	203.409647	0.000000	0.000000	0.000000	0.000000	-3.433500	-1.159760	-3.921820	-0.020935	0.916685	0.390990	-1.000000	-1.000000	-1.000000	-1.000000	-1.000000	-1.000000	-1.000000	138.689655	0.000000	-1.000000	-1.000000	227943.000000	1772918484.257569
-2084.130000	34736.985000	-14498.910000	-17147.520000	0.000000	0.000000	0.000000	0.000000	132.181390	116.429937	249.840912	234.002534	0.000000	0.000000	0.000000	0.000000	-3.433500	-1.159760	-3.921820	-0.020935	0.916685	0.390990	-1.000000	-1.000000	-1.000000	-1.000000	-1.000000	-1.000000	-1.000000	138.689655	0.000000	-1.000000	-1.000000	227944.000000	1772918484.257571
-2213.100000	34806.105000	-14712.345000	-17352.720000	0.000000	0.000000	0.000000	0.000000	64.472166	147.420551	153.838917	136.975907	0.000000	0.000000	0.000000	0.000000	-3.433500	-1.159760	-3.921820	-0.020935	0.916685	0.390990	-1.000000	-1.000000	-1.000000	-1.000000	-1.000000	-1.000000	-1.000000	138.689655	0.000000	-1.000000	-1.000000	227945.000000	1772918484.257574
-2313.810000	34800.300000	-14914.800000	-17549.505000	0.000000	0.000000	0.000000	0.000000	-38.756807	122.117359	-24.294409	-33.858802	0.000000	0.000000	0.000000	0.000000	-3.433500	-1.159760	-3.921820	-0.020935	0.916685	0.390990	-1.000000	-1.000000	-1.000000	-1.000000	-1.000000	-1.000000	-1.000000	138.689655	0.000000	-1.000000	-1.000000	227946.000000	1772918484.257576
-2305.845000	34773.075000	-14904.540000	-17527.635000	0.000000	0.000000	0.000000	0.000000	-122.518860	49.789577	-188.728206	-186.797932	0.000000	0.000000	0.000000	0.000000	-3.433500	-1.159760	-3.921820	-0.020935	0.916685	0.390990	-1.000000	-1.000000	-1.000000	-1.000000	-1.000000	-1.000000	-1.000000	138.689655	0.000000	-1.000000	-1.000000	227947.000000	1772918484.257579
-2320.110000	34740.315000	-14878.530000	-17503.920000	0.000000	0.000000	0.000000	0.000000	-143.496260	-41.237592	-252.240802	-240.498193	0.000000	0.000000	0.000000	0.000000	-3.433500	-1.159760	-3.921820	-0.020935	0.916685	0.390990	-1.000000	-1.000000	-1.000000	-1.000000	-1.000000	-1.000000	-1.000000	138.689655	0.000000	-1.000000	-1.000000	227948.000000	1772918484.257581
-2245.185000	34738.920000	-14735.160000	-17365.860000	0.000000	0.000000	0.000000	0.000000	-93.645566	-114.645757	-184.334103	-169.116163	0.000000	0.000000	0.000000	0.000000	-3.433500	-1.159760	-3.921820	-0.020935	0.916685	0.390990	-1.000000	-1.000000	-1.000000	-1.000000	-1.000000	-1.000000	-1.000000	138.689655	0.000000	-1.000000	-1.000000	227949.000000	1772918484.257583
-2044.620000	34746.930000	-14420.295000	-17054.910000	0.000000	0.000000	0.000000	0.000000	1.106872	-141.956909	-22.900456	-11.764048	0.000000	0.000000	0.000000	0.000000	-3.433500	-1.159760	-3.921820	-0.020935	0.916685	0.390990	-1.000000	-1.000000	-1.000000	-1.000000	-1.000000	-1.000000	-1.000000	138.689655	0.000000	-1.000000	-1.000000	227950.000000	1772918484.257585
-2042.640000	34763.085000	-14412.780000	-17044.380000	0.000000	0.000000	0.000000	0.000000	98.575440	-116.170887	152.329093	154.813077	0.000000	0.000000	0.000000	0.000000	-8.423520	0.747740	-3.433500	-0.021057	0.925779	0.390380	-1.000000	-1.000000	-1.000000	-1.000000	-1.000000	-1.000000	-1.000000	138.689655	0.000000	-1.000000	-1.000000	227951.000000	1772918484.257588
-2097.540000	34716.420000	-14524.110000	-17140.950000	0.000000	0.000000	0.000000	0.000000	151.563941	-54.989795	250.763887	245.450016	0.000000	0.000000	0.000000	0.000000	-8.423520	0.747740	-3.433500	-0.021057	0.925779	0.390380	-1.000000	-1.000000	-1.000000	-1.000000	-1.000000	-1.000000	-1.000000	138.689655	0.000000	-1.000000	-1.000000	227952.000000	1772918484.257590
-2131.155000	34676.235000	-14652.765000	-17246.340000	0.000000	0.000000	0.000000	0.000000	129.552133	9.522008	215.641429	207.936042	0.000000	0.000000	0.000000	0.000000	-8.423520	0.747740	-3.433500	-0.021057	0.925779	0.390380	-1.000000	-1.000000	-1.000000	-1.000000	-1.000000	-1.000000	-1.000000	138.689655	0.000000	-1.000000	-1.000000	227953.000000	1772918484.257593
-2257.920000	34517.475000	-14883.930000	-17472.915000	0.000000	0.000000	0.000000	0.000000	43.761765	48.488239	65.893792	61.843915	0.000000	0.000000	0.000000	0.000000	-8.423520	0.747740	-3.433500	-0.021057	0.925779	0.390380	-1.000000	-1.000000	-1.000000	-1.000000	-1.000000	-1.000000	-1.000000	138.689655	0.000000	-1.000000	-1.000000	227954.000000	1772918484.257594
-2255.040000	34308.135000	-14908.185000	-17485.875000	0.000000	0.000000	0.000000	0.000000	-59.542144	47.889189	-114.678818	-112.831055	0.000000	0.000000	0.000000	0.000000	-8.423520	0.747740	-3.433500	-0.021057	0.925779	0.390380	-1.000000	-1.000000	-1.000000	-1.000000	-1.000000	-1.000000	-1.000000	138.689655	0.000000	-1.000000	-1.000000	227955.000000	1772918484.258930
-2207.790000	34269.795000	-14840.865000	-17408.295000	0.000000	0.000000	0.000000	0.000000	-126.602023	16.137043	-227.302099	-222.024067	0.000000	0.000000	0.000000	0.000000	-8.423520	0.747740	-3.433500	-0.021057	0.925779	0.390380	-1.000000	-1.000000	-1.000000	-1.000000	-1.000000	-1.000000	-1.000000	138.689655	0.000000	-1.000000	-1.000000	227956.000000	1772918484.258933
-2146.320000	34324.560000	-14744.880000	-17303.940000	0.000000	0.000000	0.000000	0.000000	-124.741292	-13.647400	-213.858544	-209.415929	0.000000	0.000000	0.000000	0.000000	-8.423520	0.747740	-3.433500	-0.021057	0.925779	0.390380	-1.000000	-1.000000	-1.000000	-1.000000	-1.000000	-1.000000	-1.000000	138.689655	0.000000	-1.000000	-1.000000	227957.000000	1772918484.258942
-1998.945000	34405.155000	-14498.190000	-17047.980000	0.000000	0.000000	0.000000	0.000000	-59.965678	-6.503146	-88.461165	-87.848794	0.000000	0.000000	0.000000	0.000000	-8.423520	0.747740	-3.433500	-0.021057	0.925779	0.390380	-1.000000	-1.000000	-1.000000	-1.000000	-1.000000	-1.000000	-1.000000	138.689655	0.000000	-1.000000	-1.000000	227958.000000	1772918484.258944
-1979.010000	34474.680000	-14440.005000	-16980.615000	0.000000	0.000000	0.000000	0.000000	29.673687	40.822242	77.686606	73.997479	0.000000	0.000000	0.000000	0.000000	-8.423520	0.747740	-3.433500	-0.021057	0.925779	0.390380	-1.000000	-1.000000	-1.000000	-1.000000	-1.000000	-1.000000	-1.000000	138.689655	0.000000	-1.000000	-1.000000	227959.000000	1772918484.262772
-2052.045000	34521.120000	-14545.035000	-17085.915000	0.000000	0.000000	0.000000	0.000000	93.903940	96.116448	194.344418	187.870729	0.000000	0.000000	0.000000	0.000000	-8.423520	0.747740	-3.433500	-0.021057	0.925779	0.390380	-1.000000	-1.000000	-1.000000	-1.000000	-1.000000	-1.000000	-1.000000	138.689655	0.000000	-1.000000	-1.000000	227960.000000	1772918484.262774
-2110.095000	34548.255000	-14643.720000	-17194.320000	0.000000	0.000000	0.000000	0.000000	96.594998	119.310694	197.784599	190.298106	0.000000	0.000000	0.000000	0.000000	-13.428800	1.846460	-1.220800	-0.021667	0.929502	0.390929	-1.000000	-1.000000	-1.000000	-1.000000	-1.000000	-1.000000	-1.000000	138.689655	0.000000	-1.000000	-1.000000	227961.000000	1772918484.265415
-2233.170000	34543.845000	-14853.870000	-17415.945000	0.000000	0.000000	0.000000	0.000000	39.664145	91.219361	90.400198	82.658150	0.000000	0.000000	0.000000	0.000000	-13.428800	1.846460	-1.220800	-0.021667	0.929502	0.390929	-1.000000	-1.000000	-1.000000	-1.000000	-1.000000	-1.000000	-1.000000	138.689655	0.000000	-1.000000	-1.000000	227962.000000	1772918484.265417
-2305.980000	34487.910000	-14991.165000	-17551.665000	0.000000	0.000000	0.000000	0.000000	-40.478718	21.815509	-64.039943	-71.608509	0.000000	0.000000	0.000000	0.000000	-13.428800	1.846460	-1.220800	-0.021667	0.929502	0.390929	-1.000000	-1.000000	-1.000000	-1.000000	-1.000000	-1.000000	-1.000000	138.689655	0.000000	-1.000000	-1.000000	227963.000000	1772918484.270273
-2313.225000	34504.425000	-14983.785000	-17530.650000	0.000000	0.000000	0.000000	0.000000	-97.748921	-58.863403	-181.161311	-186.675152	0.000000	0.000000	0.000000	0.000000	-13.428800	1.846460	-1.220800	-0.021667	0.929502	0.390929	-1.000000	-1.000000	-1.000000	-1.000000	-1.000000	-1.000000	-1.000000	138.689655	0.000000	-1.000000	-1.000000	227964.000000	1772918484.270276
-2265.435000	34511.175000	-14891.490000	-17432.505000	0.000000	0.000000	0.000000	0.000000	-100.362240	-115.436076	-198.634872	-198.794949	0.000000	0.000000	0.000000	0.000000	-13.428800	1.846460	-1.220800	-0.021667	0.929502	0.390929	-1.000000	-1.000000	-1.000000	-1.000000	-1.000000	-1.000000	-1.000000	138.689655	0.000000	-1.000000	-1.000000	227965.000000	1772918484.274339
-2123.415000	34581.285000	-14693.805000	-17203.005000	0.000000	0.000000	0.000000	0.000000	-45.278597	-124.198456	-107.102475	-99.522131	0.000000	0.000000	0.000000	0.000000	-13.428800	1.846460	-1.220800	-0.021667	0.929502	0.390929	-1.000000	-1.000000	-1.000000	-1.000000	-1.000000	-1.000000	-1.000000	138.689655	0.000000	-1.000000	-1.000000	227966.000000	1772918484.274341
-1995.390000	34646.265000	-14495.220000	-16999.695000	0.000000	0.000000	0.000000	0.000000	42.116941	-84.829874	46.515002	61.235839	0.000000	0.000000	0.000000	0.000000	-13.428800	1.846460	-1.220800	-0.021667	0.929502	0.390929	-1.000000	-1.000000	-1.000000	-1.000000	-1.000000	-1.000000	-1.000000	138.689655	0.000000	-1.000000	-1.000000	227967.000000	1772918484.278170
-1985.355000	34596.450000	-14489.280000	-17002.665000	0.000000	0.000000	0.000000	0.000000	118.588959	-20.929153	183.230765	200.413753	0.000000	0.000000	0.000000	0.000000	-13.428800	1.846460	-1.220800	-0.021667	0.929502	0.390929	-1.000000	-1.000000	-1.000000	-1.000000	-1.000000	-1.000000	-1.000000	138.689655	0.000000	-1.000000	-1.000000	227968.000000	1772918484.278173
-2071.305000	34644.285000	-14601.375000	-17128.890000	0.000000	0.000000	0.000000	0.000000	140.344730	32.950389	228.443317	240.183888	0.000000	0.000000	0.000000	0.000000	-13.428800	1.846460	-1.220800	-0.021667	0.929502	0.390929	-1.000000	-1.000000	-1.000000	-1.000000	-1.000000	-1.000000	-1.000000	138.689655	0.000000	-1.000000	-1.000000	227969.000000	1772918484.282417
-2233.620000	34642.530000	-14843.115000	-17373.870000	0.000000	0.000000	0.000000	0.000000	87.621991	55.299278	151.579398	151.259776	0.000000	0.000000	0.000000	0.000000	-13.428800	1.846460	-1.220800	-0.021667	0.929502	0.390929	-1.000000	-1.000000	-1.000000	-1.000000	-1.000000	-1.000000	-1.000000	138.689655	0.000000	-1.000000	-1.000000	227970.000000	1772918484.282420
-2358.540000	34610.220000	-15049.440000	-17593.560000	0.000000	0.000000	0.000000	0.000000	-18.339906	46.987107	-12.380508	-25.280802	0.000000	0.000000	0.000000	0.000000	-10.682000	1.251320	-1.526000	-0.021240	0.918516	0.396789	-1.000000	-1.000000	-1.000000	-1.000000	-1.000000	-1.000000	-1.000000	138.689655	0.000000	-1.000000	-1.000000	227971.000000	1772918484.286283
-2360.835000	34623.405000	-15021.945000	-17575.920000	0.000000	0.000000	0.000000	0.000000	-121.931863	20.993974	-176.299602	-196.048190	0.000000	0.000000	0.000000	0.000000	-10.682000	1.251320	-1.526000	-0.021240	0.918516	0.396789	-1.000000	-1.000000	-1.000000	-1.000000	-1.000000	-1.000000	-1.000000	138.689655	0.000000	-1.000000	-1.000000	227972.000000	1772918484.286286
-2317.905000	34642.665000	-14942.880000	-17495.640000	0.000000	0.000000	0.000000	0.000000	-163.947442	-5.704808	-246.597755	-264.864859	0.000000	0.000000	0.000000	0.000000	-10.682000	1.251320	-1.526000	-0.021240	0.918516	0.396789	-1.000000	-1.000000	-1.000000	-1.000000	-1.000000	-1.000000	-1.000000	138.689655	0.000000	-1.000000	-1.000000	227973.000000	1772918484.294009
-2181.870000	34650.720000	-14765.805000	-17299.665000	0.000000	0.000000	0.000000	0.000000	-118.954597	-19.176157	-182.202348	-191.510510	0.000000	0.000000	0.000000	0.000000	-10.682000	1.251320	-1.526000	-0.021240	0.918516	0.396789	-1.000000	-1.000000	-1.000000	-1.000000	-1.000000	-1.000000	-1.000000	138.689655	0.000000	-1.000000	-1.000000	227974.000000	1772918484.294012
