Channel1	Channel2	Channel3	Channel4	Channel5	Channel6	Channel7	Channel8	FilteredChannel1	FilteredChannel2	FilteredChannel3	FilteredChannel4	FilteredChannel5	FilteredChannel6	FilteredChannel7	FilteredChannel8	GyroX	GyroY	GyroZ	AccX	AccY	AccZ	PPG1	PPG2	rawPPG1	rawPPG2	rawPPG3	Hr	Hrv	Battery	Trigger	PhysicalTrigger	AutoTrigger	NumMeasurements	Timestamp
-17171.685000	-14540.985000	-18141.210000	-13101.075000	0.000000	0.000000	0.000000	0.000000	14.620106	-49.289395	19.006484	18.584280	0.000000	0.000000	-0.000000	-0.000000	1.617560	0.106820	-0.610400	0.008240	0.981687	-0.061889	-1.000000	-1.000000	-1.000000	-1.000000	-1.000000	-1.000000	-1.000000	146.344828	0.000000	-1.000000	-1.000000	253999.000000	1772311166.114287
-17174.250000	-14558.940000	-18142.740000	-13100.940000	0.000000	0.000000	0.000000	0.000000	15.328073	-54.117201	20.177298	19.977033	0.000000	0.000000	-0.000000	-0.000000	1.617560	0.106820	-0.610400	0.008240	0.981687	-0.061889	-1.000000	-1.000000	-1.000000	-1.000000	-1.000000	-1.000000	-1.000000	146.344828	0.000000	-1.000000	-1.000000	254000.000000	1772311166.114289
-17185.050000	-14580.810000	-18156.420000	-13123.890000	0.000000	0.000000	0.000000	0.000000	9.396043	-36.883893	12.334950	12.156247	0.000000	0.000000	-0.000000	-0.000000	1.678600	0.137340	-0.686700	0.008789	0.981321	-0.062195	-1.000000	-1.000000	-1.000000	-1.000000	-1.000000	-1.000000	-1.000000	146.344828	0.000000	-1.000000	-1.000000	254001.000000	1772311166.118472
-17184.555000	-14594.490000	-18160.110000	-13135.005000	0.000000	0.000000	0.000000	0.000000	-0.375525	-7.852362	-0.575784	-1.483114	0.000000	0.000000	-0.000000	-0.000000	1.678600	0.137340	-0.686700	0.008789	0.981321	-0.062195	-1.000000	-1.000000	-1.000000	-1.000000	-1.000000	-1.000000	-1.000000	146.344828	0.000000	-1.000000	-1.000000	254002.000000	1772311166.118476
-17183.565000	-14609.745000	-18157.185000	-13128.705000	0.000000	0.000000	0.000000	0.000000	-9.073659	20.029734	-12.146137	-14.440229	0.000000	0.000000	-0.000000	-0.000000	1.678600	0.137340	-0.686700	0.008789	0.981321	-0.062195	-1.000000	-1.000000	-1.000000	-1.000000	-1.000000	-1.000000	-1.000000	146.344828	0.000000	-1.000000	-1.000000	254003.000000	1772311166.122305
-17147.070000	-14576.220000	-18118.170000	-13086.135000	0.000000	0.000000	0.000000	0.000000	-11.988524	38.117922	-16.277302	-19.162992	0.000000	0.000000	-0.000000	-0.000000	1.678600	0.137340	-0.686700	0.008789	0.981321	-0.062195	-1.000000	-1.000000	-1.000000	-1.000000	-1.000000	-1.000000	-1.000000	146.344828	0.000000	-1.000000	-1.000000	254004.000000	1772311166.122308
-17159.715000	-14562.405000	-18129.465000	-13094.325000	0.000000	0.000000	0.000000	0.000000	-7.621851	44.815841	-10.882463	-12.274656	0.000000	0.000000	-0.000000	-0.000000	1.678600	0.137340	-0.686700	0.008789	0.981321	-0.062195	-1.000000	-1.000000	-1.000000	-1.000000	-1.000000	-1.000000	-1.000000	146.344828	0.000000	-1.000000	-1.000000	254005.000000	1772311166.129800
-17177.220000	-14562.000000	-18147.150000	-13113.090000	0.000000	0.000000	0.000000	0.000000	-0.350101	41.648834	-1.127332	0.452966	0.000000	0.000000	-0.000000	-0.000000	1.678600	0.137340	-0.686700	0.008789	0.981321	-0.062195	-1.000000	-1.000000	-1.000000	-1.000000	-1.000000	-1.000000	-1.000000	146.344828	0.000000	-1.000000	-1.000000	254006.000000	1772311166.129803
-17177.580000	-14576.985000	-18146.205000	-13111.785000	0.000000	0.000000	0.000000	0.000000	3.124592	29.138393	4.721163	8.759388	0.000000	0.000000	-0.000000	-0.000000	1.678600	0.137340	-0.686700	0.008789	0.981321	-0.062195	-1.000000	-1.000000	-1.000000	-1.000000	-1.000000	-1.000000	-1.000000	146.344828	0.000000	-1.000000	-1.000000	254007.000000	1772311166.130469
-17160.795000	-14617.170000	-18128.520000	-13095.495000	0.000000	0.000000	0.000000	0.000000	1.478338	8.316043	4.211149	8.645503	0.000000	0.000000	-0.000000	-0.000000	1.678600	0.137340	-0.686700	0.008789	0.981321	-0.062195	-1.000000	-1.000000	-1.000000	-1.000000	-1.000000	-1.000000	-1.000000	146.344828	0.000000	-1.000000	-1.000000	254008.000000	1772311166.130472
-17166.600000	-14651.595000	-18136.530000	-13104.180000	0.000000	0.000000	0.000000	0.000000	-1.117975	-16.394169	1.299792	4.018139	0.000000	0.000000	-0.000000	-0.000000	1.678600	0.137340	-0.686700	0.008789	0.981321	-0.062195	-1.000000	-1.000000	-1.000000	-1.000000	-1.000000	-1.000000	-1.000000	146.344828	0.000000	-1.000000	-1.000000	254009.000000	1772311166.138250
-17181.540000	-14663.340000	-18153.630000	-13118.220000	0.000000	0.000000	0.000000	0.000000	-1.882331	-36.623643	-0.856597	-0.765955	0.000000	0.000000	-0.000000	-0.000000	1.678600	0.137340	-0.686700	0.008789	0.981321	-0.062195	-1.000000	-1.000000	-1.000000	-1.000000	-1.000000	-1.000000	-1.000000	146.344828	0.000000	-1.000000	-1.000000	254010.000000	1772311166.138253
-17161.065000	-14671.215000	-18133.155000	-13098.420000	0.000000	0.000000	0.000000	0.000000	-1.362796	-43.243164	-2.096121	-4.038871	0.000000	0.000000	-0.000000	-0.000000	1.938020	0.061040	-0.366240	0.007751	0.980771	-0.061096	-1.000000	-1.000000	-1.000000	-1.000000	-1.000000	-1.000000	-1.000000	146.344828	0.000000	-1.000000	-1.000000	254011.000000	1772311166.138257
-17151.705000	-14680.440000	-18122.535000	-13085.730000	0.000000	0.000000	0.000000	0.000000	0.247263	-32.834782	-1.695310	-4.286659	0.000000	0.000000	-0.000000	-0.000000	1.938020	0.061040	-0.366240	0.007751	0.980771	-0.061096	-1.000000	-1.000000	-1.000000	-1.000000	-1.000000	-1.000000	-1.000000	146.344828	0.000000	-1.000000	-1.000000	254012.000000	1772311166.138259
-17157.690000	-14676.165000	-18126.945000	-13092.030000	0.000000	0.000000	0.000000	0.000000	2.991879	-10.742464	1.045272	-1.027009	0.000000	0.000000	-0.000000	-0.000000	1.938020	0.061040	-0.366240	0.007751	0.980771	-0.061096	-1.000000	-1.000000	-1.000000	-1.000000	-1.000000	-1.000000	-1.000000	146.344828	0.000000	-1.000000	-1.000000	254013.000000	1772311166.142337
-17169.390000	-14647.905000	-18137.250000	-13104.765000	0.000000	0.000000	0.000000	0.000000	4.647677	13.360269	3.820205	2.646846	0.000000	0.000000	-0.000000	-0.000000	1.938020	0.061040	-0.366240	0.007751	0.980771	-0.061096	-1.000000	-1.000000	-1.000000	-1.000000	-1.000000	-1.000000	-1.000000	146.344828	0.000000	-1.000000	-1.000000	254014.000000	1772311166.142339
-17172.675000	-14633.550000	-18140.895000	-13109.670000	0.000000	0.000000	0.000000	0.000000	2.849883	31.309479	3.501288	2.900141	0.000000	0.000000	-0.000000	-0.000000	1.938020	0.061040	-0.366240	0.007751	0.980771	-0.061096	-1.000000	-1.000000	-1.000000	-1.000000	-1.000000	-1.000000	-1.000000	146.344828	0.000000	-1.000000	-1.000000	254015.000000	1772311166.147920
-17170.875000	-14659.740000	-18138.555000	-13108.140000	0.000000	0.000000	0.000000	0.000000	-1.453863	37.349330	0.136880	-0.324034	0.000000	0.000000	-0.000000	-0.000000	1.938020	0.061040	-0.366240	0.007751	0.980771	-0.061096	-1.000000	-1.000000	-1.000000	-1.000000	-1.000000	-1.000000	-1.000000	146.344828	0.000000	-1.000000	-1.000000	254016.000000	1772311166.147922
-17168.130000	-14680.305000	-18137.970000	-13108.860000	0.000000	0.000000	0.000000	0.000000	-4.805438	28.227224	-3.280655	-3.669318	0.000000	0.000000	-0.000000	-0.000000	1.938020	0.061040	-0.366240	0.007751	0.980771	-0.061096	-1.000000	-1.000000	-1.000000	-1.000000	-1.000000	-1.000000	-1.000000	146.344828	0.000000	-1.000000	-1.000000	254017.000000	1772311166.150578
-17151.120000	-14705.595000	-18123.570000	-13093.605000	0.000000	0.000000	0.000000	0.000000	-4.478489	6.832245	-3.921985	-3.984665	0.000000	0.000000	-0.000000	-0.000000	1.938020	0.061040	-0.366240	0.007751	0.980771	-0.061096	-1.000000	-1.000000	-1.000000	-1.000000	-1.000000	-1.000000	-1.000000	146.344828	0.000000	-1.000000	-1.000000	254018.000000	1772311166.150582
-17132.040000	-14749.020000	-18102.420000	-13066.965000	0.000000	0.000000	0.000000	0.000000	-0.144546	-17.423046	-0.880447	-0.219732	0.000000	0.000000	-0.000000	-0.000000	1.938020	0.061040	-0.366240	0.007751	0.980771	-0.061096	-1.000000	-1.000000	-1.000000	-1.000000	-1.000000	-1.000000	-1.000000	146.344828	0.000000	-1.000000	-1.000000	254019.000000	1772311166.154404
-17150.355000	-14776.650000	-18117.315000	-13079.295000	0.000000	0.000000	0.000000	0.000000	5.503383	-34.347510	4.055721	5.802692	0.000000	0.000000	-0.000000	-0.000000	1.938020	0.061040	-0.366240	0.007751	0.980771	-0.061096	-1.000000	-1.000000	-1.000000	-1.000000	-1.000000	-1.000000	-1.000000	146.344828	0.000000	-1.000000	-1.000000	254020.000000	1772311166.154407
-17176.995000	-14793.075000	-18143.055000	-13107.555000	0.000000	0.000000	0.000000	0.000000	7.210248	-37.578438	6.214657	8.865288	0.000000	0.000000	-0.000000	-0.000000	2.762060	0.183120	-0.015260	0.007446	0.980588	-0.060730	-1.000000	-1.000000	-1.000000	-1.000000	-1.000000	-1.000000	-1.000000	146.344828	0.000000	-1.000000	-1.000000	254021.000000	1772311166.158458
-17163.720000	-14810.355000	-18130.815000	-13101.390000	0.000000	0.000000	0.000000	0.000000	2.200572	-26.287361	2.403424	4.767912	0.000000	0.000000	-0.000000	-0.000000	2.762060	0.183120	-0.015260	0.007446	0.980588	-0.060730	-1.000000	-1.000000	-1.000000	-1.000000	-1.000000	-1.000000	-1.000000	146.344828	0.000000	-1.000000	-1.000000	254022.000000	1772311166.158461
-17162.775000	-14850.990000	-18126.945000	-13097.610000	0.000000	0.000000	0.000000	0.000000	-5.350643	-6.244810	-4.190333	-3.711816	0.000000	0.000000	-0.000000	-0.000000	2.762060	0.183120	-0.015260	0.007446	0.980588	-0.060730	-1.000000	-1.000000	-1.000000	-1.000000	-1.000000	-1.000000	-1.000000	146.344828	0.000000	-1.000000	-1.000000	254023.000000	1772311166.162365
-17152.830000	-14854.860000	-18118.485000	-13087.620000	0.000000	0.000000	0.000000	0.000000	-8.749395	13.018670	-7.439783	-9.390272	0.000000	0.000000	-0.000000	-0.000000	2.762060	0.183120	-0.015260	0.007446	0.980588	-0.060730	-1.000000	-1.000000	-1.000000	-1.000000	-1.000000	-1.000000	-1.000000	146.344828	0.000000	-1.000000	-1.000000	254024.000000	1772311166.162368
-17143.065000	-14833.665000	-18111.780000	-13081.365000	0.000000	0.000000	0.000000	0.000000	-5.613982	25.478517	-4.967206	-8.206273	0.000000	0.000000	-0.000000	-0.000000	2.762060	0.183120	-0.015260	0.007446	0.980588	-0.060730	-1.000000	-1.000000	-1.000000	-1.000000	-1.000000	-1.000000	-1.000000	146.344828	0.000000	-1.000000	-1.000000	254025.000000	1772311166.166413
-17142.525000	-14817.690000	-18112.320000	-13085.640000	0.000000	0.000000	0.000000	0.000000	1.283052	31.276078	0.732928	-2.029701	0.000000	0.000000	-0.000000	-0.000000	2.762060	0.183120	-0.015260	0.007446	0.980588	-0.060730	-1.000000	-1.000000	-1.000000	-1.000000	-1.000000	-1.000000	-1.000000	146.344828	0.000000	-1.000000	-1.000000	254026.000000	1772311166.166417
-17138.205000	-14832.765000	-18106.515000	-13079.835000	0.000000	0.000000	0.000000	0.000000	7.062966	31.269805	5.421723	4.152601	0.000000	0.000000	-0.000000	-0.000000	2.762060	0.183120	-0.015260	0.007446	0.980588	-0.060730	-1.000000	-1.000000	-1.000000	-1.000000	-1.000000	-1.000000	-1.000000	146.344828	0.000000	-1.000000	-1.000000	254027.000000	1772311166.170437
-17155.755000	-14875.695000	-18122.940000	-13086.180000	0.000000	0.000000	0.000000	0.000000	8.050823	23.106409	6.199442	6.634755	0.000000	0.000000	-0.000000	-0.000000	2.762060	0.183120	-0.015260	0.007446	0.980588	-0.060730	-1.000000	-1.000000	-1.000000	-1.000000	-1.000000	-1.000000	-1.000000	146.344828	0.000000	-1.000000	-1.000000	254028.000000	1772311166.170439
-17157.195000	-14873.535000	-18126.990000	-13087.305000	0.000000	0.000000	0.000000	0.000000	3.670760	5.871218	2.650392	4.866576	0.000000	0.000000	-0.000000	-0.000000	2.762060	0.183120	-0.015260	0.007446	0.980588	-0.060730	-1.000000	-1.000000	-1.000000	-1.000000	-1.000000	-1.000000	-1.000000	146.344828	0.000000	-1.000000	-1.000000	254029.000000	1772311166.174503
-17142.705000	-14845.275000	-18111.735000	-13076.775000	0.000000	0.000000	0.000000	0.000000	-2.881009	-13.329060	-2.686051	0.899709	0.000000	0.000000	-0.000000	-0.000000	2.762060	0.183120	-0.015260	0.007446	0.980588	-0.060730	-1.000000	-1.000000	-1.000000	-1.000000	-1.000000	-1.000000	-1.000000	146.344828	0.000000	-1.000000	-1.000000	254030.000000	1772311166.174506
-17144.145000	-14862.735000	-18110.340000	-13077.630000	0.000000	0.000000	0.000000	0.000000	-6.642512	-23.729602	-5.525218	-2.196294	0.000000	0.000000	-0.000000	-0.000000	3.128300	0.198380	-0.228900	0.007507	0.981016	-0.060242	-1.000000	-1.000000	-1.000000	-1.000000	-1.000000	-1.000000	-1.000000	146.344828	0.000000	-1.000000	-1.000000	254031.000000	1772311166.180937
-17161.830000	-14872.860000	-18126.000000	-13089.150000	0.000000	0.000000	0.000000	0.000000	-5.891473	-22.268725	-4.266782	-3.108094	0.000000	0.000000	-0.000000	-0.000000	3.128300	0.198380	-0.228900	0.007507	0.981016	-0.060242	-1.000000	-1.000000	-1.000000	-1.000000	-1.000000	-1.000000	-1.000000	146.344828	0.000000	-1.000000	-1.000000	254032.000000	1772311166.180943
-17180.685000	-14834.520000	-18145.935000	-13109.895000	0.000000	0.000000	0.000000	0.000000	-3.576100	-13.710000	-1.826096	-3.325218	0.000000	0.000000	-0.000000	-0.000000	3.128300	0.198380	-0.228900	0.007507	0.981016	-0.060242	-1.000000	-1.000000	-1.000000	-1.000000	-1.000000	-1.000000	-1.000000	146.344828	0.000000	-1.000000	-1.000000	254033.000000	1772311166.182587
-17177.445000	-14836.230000	-18146.610000	-13112.100000	0.000000	0.000000	0.000000	0.000000	-2.590390	-2.763016	-1.329832	-4.413942	0.000000	0.000000	-0.000000	-0.000000	3.128300	0.198380	-0.228900	0.007507	0.981016	-0.060242	-1.000000	-1.000000	-1.000000	-1.000000	-1.000000	-1.000000	-1.000000	146.344828	0.000000	-1.000000	-1.000000	254034.000000	1772311166.182590
-17165.475000	-14817.375000	-18134.595000	-13097.340000	0.000000	0.000000	0.000000	0.000000	-1.895947	6.951358	-1.861799	-5.020704	0.000000	0.000000	-0.000000	-0.000000	3.128300	0.198380	-0.228900	0.007507	0.981016	-0.060242	-1.000000	-1.000000	-1.000000	-1.000000	-1.000000	-1.000000	-1.000000	146.344828	0.000000	-1.000000	-1.000000	254035.000000	1772311166.186521
-17128.170000	-14807.700000	-18094.860000	-13056.570000	0.000000	0.000000	0.000000	0.000000	1.706765	11.936619	0.365922	-1.668015	0.000000	0.000000	-0.000000	-0.000000	3.128300	0.198380	-0.228900	0.007507	0.981016	-0.060242	-1.000000	-1.000000	-1.000000	-1.000000	-1.000000	-1.000000	-1.000000	146.344828	0.000000	-1.000000	-1.000000	254036.000000	1772311166.186524
-17123.895000	-14796.810000	-18088.965000	-13047.930000	0.000000	0.000000	0.000000	0.000000	8.870926	10.939265	6.989941	6.692979	0.000000	0.000000	-0.000000	-0.000000	3.128300	0.198380	-0.228900	0.007507	0.981016	-0.060242	-1.000000	-1.000000	-1.000000	-1.000000	-1.000000	-1.000000	-1.000000	146.344828	0.000000	-1.000000	-1.000000	254037.000000	1772311166.195370
-17135.640000	-14812.065000	-18104.220000	-13073.805000	0.000000	0.000000	0.000000	0.000000	14.945504	4.965559	13.644632	14.753870	0.000000	0.000000	-0.000000	-0.000000	3.128300	0.198380	-0.228900	0.007507	0.981016	-0.060242	-1.000000	-1.000000	-1.000000	-1.000000	-1.000000	-1.000000	-1.000000	146.344828	0.000000	-1.000000	-1.000000	254038.000000	1772311166.195373
-17171.415000	-14826.915000	-18141.345000	-13123.485000	0.000000	0.000000	0.000000	0.000000	13.035090	-4.184804	12.694687	13.680486	0.000000	0.000000	-0.000000	-0.000000	3.128300	0.198380	-0.228900	0.007507	0.981016	-0.060242	-1.000000	-1.000000	-1.000000	-1.000000	-1.000000	-1.000000	-1.000000	146.344828	0.000000	-1.000000	-1.000000	254039.000000	1772311166.195378
-17206.470000	-14831.010000	-18174.960000	-13147.380000	0.000000	0.000000	0.000000	0.000000	0.780428	-13.530221	1.010864	0.286325	0.000000	0.000000	-0.000000	-0.000000	3.128300	0.198380	-0.228900	0.007507	0.981016	-0.060242	-1.000000	-1.000000	-1.000000	-1.000000	-1.000000	-1.000000	-1.000000	146.344828	0.000000	-1.000000	-1.000000	254040.000000	1772311166.195380
-17183.880000	-14818.320000	-18152.820000	-13123.440000	0.000000	0.000000	0.000000	0.000000	-15.441658	-18.379635	-15.047289	-17.006597	0.000000	0.000000	-0.000000	-0.000000	2.929920	0.000000	-0.518840	0.008057	0.980588	-0.061340	-1.000000	-1.000000	-1.000000	-1.000000	-1.000000	-1.000000	-1.000000	146.344828	0.000000	-1.000000	-1.000000	254041.000000	1772311166.198499
-17166.960000	-14817.015000	-18136.710000	-13106.205000	0.000000	0.000000	0.000000	0.000000	-23.603660	-15.086356	-23.153477	-24.019188	0.000000	0.000000	-0.000000	-0.000000	2.929920	0.000000	-0.518840	0.008057	0.980588	-0.061340	-1.000000	-1.000000	-1.000000	-1.000000	-1.000000	-1.000000	-1.000000	146.344828	0.000000	-1.000000	-1.000000	254042.000000	1772311166.198502
-17170.065000	-14785.785000	-18142.605000	-13110.930000	0.000000	0.000000	0.000000	0.000000	-16.842707	-4.406885	-16.415050	-14.567653	0.000000	0.000000	-0.000000	-0.000000	2.929920	0.000000	-0.518840	0.008057	0.980588	-0.061340	-1.000000	-1.000000	-1.000000	-1.000000	-1.000000	-1.000000	-1.000000	146.344828	0.000000	-1.000000	-1.000000	254043.000000	1772311166.202547
-17193.015000	-14770.080000	-18167.850000	-13138.020000	0.000000	0.000000	0.000000	0.000000	-0.892707	9.112544	-0.718437	3.297742	0.000000	0.000000	-0.000000	-0.000000	2.929920	0.000000	-0.518840	0.008057	0.980588	-0.061340	-1.000000	-1.000000	-1.000000	-1.000000	-1.000000	-1.000000	-1.000000	146.344828	0.000000	-1.000000	-1.000000	254044.000000	1772311166.202550
-17197.965000	-14811.165000	-18172.215000	-13143.690000	0.000000	0.000000	0.000000	0.000000	12.160017	18.575672	11.913998	16.025781	0.000000	0.000000	-0.000000	-0.000000	2.929920	0.000000	-0.518840	0.008057	0.980588	-0.061340	-1.000000	-1.000000	-1.000000	-1.000000	-1.000000	-1.000000	-1.000000	146.344828	0.000000	-1.000000	-1.000000	254045.000000	1772311166.206526
-17176.140000	-14849.235000	-18147.555000	-13121.505000	0.000000	0.000000	0.000000	0.000000	15.937198	16.720971	15.539234	17.649133	0.000000	0.000000	-0.000000	-0.000000	2.929920	0.000000	-0.518840	0.008057	0.980588	-0.061340	-1.000000	-1.000000	-1.000000	-1.000000	-1.000000	-1.000000	-1.000000	146.344828	0.000000	-1.000000	-1.000000	254046.000000	1772311166.206528
-17146.575000	-14841.765000	-18110.655000	-13080.870000	0.000000	0.000000	0.000000	0.000000	13.537364	3.158696	13.743371	13.044186	0.000000	0.000000	-0.000000	-0.000000	2.929920	0.000000	-0.518840	0.008057	0.980588	-0.061340	-1.000000	-1.000000	-1.000000	-1.000000	-1.000000	-1.000000	-1.000000	146.344828	0.000000	-1.000000	-1.000000	254047.000000	1772311166.212125
-17144.280000	-14870.790000	-18105.435000	-13072.320000	0.000000	0.000000	0.000000	0.000000	10.538354	-12.536464	12.081751	9.495836	0.000000	0.000000	-0.000000	-0.000000	2.929920	0.000000	-0.518840	0.008057	0.980588	-0.061340	-1.000000	-1.000000	-1.000000	-1.000000	-1.000000	-1.000000	-1.000000	146.344828	0.000000	-1.000000	-1.000000	254048.000000	1772311166.212128
-17159.940000	-14913.270000	-18124.695000	-13091.220000	0.000000	0.000000	0.000000	0.000000	7.509005	-20.621448	10.185919	7.557667	0.000000	0.000000	-0.000000	-0.000000	2.929920	0.000000	-0.518840	0.008057	0.980588	-0.061340	-1.000000	-1.000000	-1.000000	-1.000000	-1.000000	-1.000000	-1.000000	146.344828	0.000000	-1.000000	-1.000000	254049.000000	1772311166.214628
-17146.170000	-14943.330000	-18112.815000	-13083.795000	0.000000	0.000000	0.000000	0.000000	1.802444	-19.419867	4.100651	2.648347	0.000000	0.000000	-0.000000	-0.000000	2.929920	0.000000	-0.518840	0.008057	0.980588	-0.061340	-1.000000	-1.000000	-1.000000	-1.000000	-1.000000	-1.000000	-1.000000	146.344828	0.000000	-1.000000	-1.000000	254050.000000	1772311166.214631
-17137.665000	-14967.135000	-18111.600000	-13085.505000	0.000000	0.000000	0.000000	0.000000	-5.867095	-11.981711	-5.828869	-6.328736	0.000000	0.000000	-0.000000	-0.000000	2.258480	0.091560	-0.915600	0.008667	0.982053	-0.061279	-1.000000	-1.000000	-1.000000	-1.000000	-1.000000	-1.000000	-1.000000	146.344828	0.000000	-1.000000	-1.000000	254051.000000	1772311166.219005
-17150.580000	-14978.295000	-18125.910000	-13095.540000	0.000000	0.000000	0.000000	0.000000	-11.696408	-1.181814	-14.739408	-15.159361	0.000000	0.000000	-0.000000	-0.000000	2.258480	0.091560	-0.915600	0.008667	0.982053	-0.061279	-1.000000	-1.000000	-1.000000	-1.000000	-1.000000	-1.000000	-1.000000	146.344828	0.000000	-1.000000	-1.000000	254052.000000	1772311166.219009
-17164.890000	-14965.875000	-18128.970000	-13092.030000	0.000000	0.000000	0.000000	0.000000	-14.003256	10.981860	-18.919879	-19.364035	0.000000	0.000000	-0.000000	-0.000000	2.258480	0.091560	-0.915600	0.008667	0.982053	-0.061279	-1.000000	-1.000000	-1.000000	-1.000000	-1.000000	-1.000000	-1.000000	146.344828	0.000000	-1.000000	-1.000000	254053.000000	1772311166.223508
-17168.040000	-14970.555000	-18127.125000	-13088.970000	0.000000	0.000000	0.000000	0.000000	-13.543650	22.249546	-17.336902	-16.980849	0.000000	0.000000	-0.000000	-0.000000	2.258480	0.091560	-0.915600	0.008667	0.982053	-0.061279	-1.000000	-1.000000	-1.000000	-1.000000	-1.000000	-1.000000	-1.000000	146.344828	0.000000	-1.000000	-1.000000	254054.000000	1772311166.223511
-17171.505000	-14950.305000	-18136.440000	-13098.240000	0.000000	0.000000	0.000000	0.000000	-10.590072	29.259788	-10.741749	-9.111435	0.000000	0.000000	-0.000000	-0.000000	2.258480	0.091560	-0.915600	0.008667	0.982053	-0.061279	-1.000000	-1.000000	-1.000000	-1.000000	-1.000000	-1.000000	-1.000000	146.344828	0.000000	-1.000000	-1.000000	254055.000000	1772311166.231639
-17151.030000	-14949.270000	-18116.505000	-13083.120000	0.000000	0.000000	0.000000	0.000000	-4.606629	29.059501	-1.443829	0.647237	0.000000	0.000000	-0.000000	-0.000000	2.258480	0.091560	-0.915600	0.008667	0.982053	-0.061279	-1.000000	-1.000000	-1.000000	-1.000000	-1.000000	-1.000000	-1.000000	146.344828	0.000000	-1.000000	-1.000000	254056.000000	1772311166.231642
-17155.170000	-14950.845000	-18119.790000	-13086.270000	0.000000	0.000000	0.000000	0.000000	3.879042	20.871221	7.766375	8.760132	0.000000	0.000000	-0.000000	-0.000000	2.258480	0.091560	-0.915600	0.008667	0.982053	-0.061279	-1.000000	-1.000000	-1.000000	-1.000000	-1.000000	-1.000000	-1.000000	146.344828	0.000000	-1.000000	-1.000000	254057.000000	1772311166.231647
-17156.205000	-14938.470000	-18122.130000	-13088.925000	0.000000	0.000000	0.000000	0.000000	11.699168	6.754974	13.950495	12.939487	0.000000	0.000000	-0.000000	-0.000000	2.258480	0.091560	-0.915600	0.008667	0.982053	-0.061279	-1.000000	-1.000000	-1.000000	-1.000000	-1.000000	-1.000000	-1.000000	146.344828	0.000000	-1.000000	-1.000000	254058.000000	1772311166.231649
-17154.135000	-14950.080000	-18122.895000	-13088.295000	0.000000	0.000000	0.000000	0.000000	14.817001	-8.582963	14.641426	12.160450	0.000000	0.000000	-0.000000	-0.000000	2.258480	0.091560	-0.915600	0.008667	0.982053	-0.061279	-1.000000	-1.000000	-1.000000	-1.000000	-1.000000	-1.000000	-1.000000	146.344828	0.000000	-1.000000	-1.000000	254059.000000	1772311166.235189
-17140.050000	-14962.635000	-18109.845000	-13074.210000	0.000000	0.000000	0.000000	0.000000	12.302237	-20.567748	10.236857	7.770556	0.000000	0.000000	-0.000000	-0.000000	2.258480	0.091560	-0.915600	0.008667	0.982053	-0.061279	-1.000000	-1.000000	-1.000000	-1.000000	-1.000000	-1.000000	-1.000000	146.344828	0.000000	-1.000000	-1.000000	254060.000000	1772311166.235192
-17111.610000	-14986.935000	-18081.765000	-13048.155000	0.000000	0.000000	0.000000	0.000000	7.218434	-27.097212	4.486429	3.320635	0.000000	0.000000	-0.000000	-0.000000	1.938020	0.076300	-0.625660	0.008118	0.982114	-0.061279	-1.000000	-1.000000	-1.000000	-1.000000	-1.000000	-1.000000	-1.000000	146.344828	0.000000	-1.000000	-1.000000	254061.000000	1772311166.238699
-17108.280000	-14987.970000	-18077.850000	-13046.220000	0.000000	0.000000	0.000000	0.000000	3.192636	-27.530736	1.125203	1.501187	0.000000	0.000000	-0.000000	-0.000000	1.938020	0.076300	-0.625660	0.008118	0.982114	-0.061279	-1.000000	-1.000000	-1.000000	-1.000000	-1.000000	-1.000000	-1.000000	146.344828	0.000000	-1.000000	-1.000000	254062.000000	1772311166.238702
-17148.555000	-14992.740000	-18117.135000	-13085.055000	0.000000	0.000000	0.000000	0.000000	-0.152751	-21.412025	-0.643255	0.581910	0.000000	0.000000	-0.000000	-0.000000	1.938020	0.076300	-0.625660	0.008118	0.982114	-0.061279	-1.000000	-1.000000	-1.000000	-1.000000	-1.000000	-1.000000	-1.000000	146.344828	0.000000	-1.000000	-1.000000	254063.000000	1772311166.247551
-17183.925000	-15011.055000	-18149.580000	-13116.285000	0.000000	0.000000	0.000000	0.000000	-6.670105	-9.942333	-5.384994	-4.094170	0.000000	0.000000	-0.000000	-0.000000	1.938020	0.076300	-0.625660	0.008118	0.982114	-0.061279	-1.000000	-1.000000	-1.000000	-1.000000	-1.000000	-1.000000	-1.000000	146.344828	0.000000	-1.000000	-1.000000	254064.000000	1772311166.247554
-17167.815000	-14994.090000	-18132.120000	-13099.905000	0.000000	0.000000	0.000000	0.000000	-16.179735	3.138066	-13.592965	-12.565455	0.000000	0.000000	-0.000000	-0.000000	1.938020	0.076300	-0.625660	0.008118	0.982114	-0.061279	-1.000000	-1.000000	-1.000000	-1.000000	-1.000000	-1.000000	-1.000000	146.344828	0.000000	-1.000000	-1.000000	254065.000000	1772311166.247558
-17161.155000	-14982.660000	-18126.990000	-13094.955000	0.000000	0.000000	0.000000	0.000000	-21.163131	14.341992	-18.256019	-17.529408	0.000000	0.000000	-0.000000	-0.000000	1.938020	0.076300	-0.625660	0.008118	0.982114	-0.061279	-1.000000	-1.000000	-1.000000	-1.000000	-1.000000	-1.000000	-1.000000	146.344828	0.000000	-1.000000	-1.000000	254066.000000	1772311166.247560
-17166.240000	-14974.470000	-18131.355000	-13098.330000	0.000000	0.000000	0.000000	0.000000	-15.308626	21.644909	-13.272307	-12.846702	0.000000	0.000000	-0.000000	-0.000000	1.938020	0.076300	-0.625660	0.008118	0.982114	-0.061279	-1.000000	-1.000000	-1.000000	-1.000000	-1.000000	-1.000000	-1.000000	146.344828	0.000000	-1.000000	-1.000000	254067.000000	1772311166.252359
-17167.185000	-14949.945000	-18135.765000	-13102.875000	0.000000	0.000000	0.000000	0.000000	-1.430648	23.497051	-1.134144	-0.964827	0.000000	0.000000	-0.000000	-0.000000	1.938020	0.076300	-0.625660	0.008118	0.982114	-0.061279	-1.000000	-1.000000	-1.000000	-1.000000	-1.000000	-1.000000	-1.000000	146.344828	0.000000	-1.000000	-1.000000	254068.000000	1772311166.252361
-17156.700000	-14922.045000	-18127.620000	-13097.520000	0.000000	0.000000	0.000000	0.000000	12.310823	19.916658	10.693075	10.633596	0.000000	0.000000	-0.000000	-0.000000	1.938020	0.076300	-0.625660	0.008118	0.982114	-0.061279	-1.000000	-1.000000	-1.000000	-1.000000	-1.000000	-1.000000	-1.000000	146.344828	0.000000	-1.000000	-1.000000	254069.000000	1772311166.254707
-17171.775000	-14898.375000	-18140.400000	-13108.095000	0.000000	0.000000	0.000000	0.000000	19.576953	12.865870	16.662694	16.318495	0.000000	0.000000	-0.000000	-0.000000	1.938020	0.076300	-0.625660	0.008118	0.982114	-0.061279	-1.000000	-1.000000	-1.000000	-1.000000	-1.000000	-1.000000	-1.000000	146.344828	0.000000	-1.000000	-1.000000	254070.000000	1772311166.254710
-17183.070000	-14882.580000	-18149.400000	-13117.005000	0.000000	0.000000	0.000000	0.000000	17.942293	4.294316	15.072114	14.525686	0.000000	0.000000	-0.000000	-0.000000	2.960440	0.137340	-0.885080	0.007874	0.983884	-0.060364	-1.000000	-1.000000	-1.000000	-1.000000	-1.000000	-1.000000	-1.000000	146.344828	0.000000	-1.000000	-1.000000	254071.000000	1772311166.259187
-17157.150000	-14863.815000	-18121.905000	-13090.455000	0.000000	0.000000	0.000000	0.000000	9.580320	-4.620816	8.209399	7.739833	0.000000	0.000000	-0.000000	-0.000000	2.960440	0.137340	-0.885080	0.007874	0.983884	-0.060364	-1.000000	-1.000000	-1.000000	-1.000000	-1.000000	-1.000000	-1.000000	146.344828	0.000000	-1.000000	-1.000000	254072.000000	1772311166.259190
-17167.095000	-14840.865000	-18130.365000	-13097.160000	0.000000	0.000000	0.000000	0.000000	0.485418	-12.354098	1.251475	1.061526	0.000000	0.000000	-0.000000	-0.000000	2.960440	0.137340	-0.885080	0.007874	0.983884	-0.060364	-1.000000	-1.000000	-1.000000	-1.000000	-1.000000	-1.000000	-1.000000	146.344828	0.000000	-1.000000	-1.000000	254073.000000	1772311166.262751
-17190.450000	-14827.140000	-18151.650000	-13113.945000	0.000000	0.000000	0.000000	0.000000	-5.389367	-16.900201	-3.006136	-2.803547	0.000000	0.000000	-0.000000	-0.000000	2.960440	0.137340	-0.885080	0.007874	0.983884	-0.060364	-1.000000	-1.000000	-1.000000	-1.000000	-1.000000	-1.000000	-1.000000	146.344828	0.000000	-1.000000	-1.000000	254074.000000	1772311166.262755
-17210.430000	-14835.555000	-18171.090000	-13130.775000	0.000000	0.000000	0.000000	0.000000	-9.052402	-17.722266	-6.273571	-5.517562	0.000000	0.000000	-0.000000	-0.000000	2.960440	0.137340	-0.885080	0.007874	0.983884	-0.060364	-1.000000	-1.000000	-1.000000	-1.000000	-1.000000	-1.000000	-1.000000	146.344828	0.000000	-1.000000	-1.000000	254075.000000	1772311166.267085
-17206.470000	-14815.215000	-18172.890000	-13138.065000	0.000000	0.000000	0.000000	0.000000	-11.605591	-16.044845	-9.773167	-8.611375	0.000000	0.000000	-0.000000	-0.000000	2.960440	0.137340	-0.885080	0.007874	0.983884	-0.060364	-1.000000	-1.000000	-1.000000	-1.000000	-1.000000	-1.000000	-1.000000	146.344828	0.000000	-1.000000	-1.000000	254076.000000	1772311166.267097
-17164.260000	-14810.535000	-18137.295000	-13117.320000	0.000000	0.000000	0.000000	0.000000	-10.321410	-12.432506	-10.564853	-10.082789	0.000000	0.000000	-0.000000	-0.000000	2.960440	0.137340	-0.885080	0.007874	0.983884	-0.060364	-1.000000	-1.000000	-1.000000	-1.000000	-1.000000	-1.000000	-1.000000	146.344828	0.000000	-1.000000	-1.000000	254077.000000	1772311166.270978
-17149.500000	-14788.665000	-18122.220000	-13108.005000	0.000000	0.000000	0.000000	0.000000	-2.064924	-6.532248	-4.747138	-6.584908	0.000000	0.000000	-0.000000	-0.000000	2.960440	0.137340	-0.885080	0.007874	0.983884	-0.060364	-1.000000	-1.000000	-1.000000	-1.000000	-1.000000	-1.000000	-1.000000	146.344828	0.000000	-1.000000	-1.000000	254078.000000	1772311166.270998
-17167.950000	-14780.790000	-18135.495000	-13116.330000	0.000000	0.000000	0.000000	0.000000	9.830864	0.979967	5.869318	1.444075	0.000000	0.000000	-0.000000	-0.000000	2.960440	0.137340	-0.885080	0.007874	0.983884	-0.060364	-1.000000	-1.000000	-1.000000	-1.000000	-1.000000	-1.000000	-1.000000	146.344828	0.000000	-1.000000	-1.000000	254079.000000	1772311166.276775
-17182.755000	-14799.465000	-18147.240000	-13121.190000	0.000000	0.000000	0.000000	0.000000	16.076640	7.305998	13.242550	8.667787	0.000000	0.000000	-0.000000	-0.000000	2.960440	0.137340	-0.885080	0.007874	0.983884	-0.060364	-1.000000	-1.000000	-1.000000	-1.000000	-1.000000	-1.000000	-1.000000	146.344828	0.000000	-1.000000	-1.000000	254080.000000	1772311166.276781
-17176.005000	-14825.295000	-18137.340000	-13105.620000	0.000000	0.000000	0.000000	0.000000	11.332491	8.441759	11.611219	10.515994	0.000000	0.000000	-0.000000	-0.000000	3.921820	1.098720	0.427280	0.008484	0.980527	-0.059692	-1.000000	-1.000000	-1.000000	-1.000000	-1.000000	-1.000000	-1.000000	146.344828	0.000000	-1.000000	-1.000000	254081.000000	1772311166.279544
-17183.250000	-14765.535000	-18146.565000	-13115.520000	0.000000	0.000000	0.000000	0.000000	-0.194871	4.404495	3.220770	7.327227	0.000000	0.000000	-0.000000	-0.000000	3.921820	1.098720	0.427280	0.008484	0.980527	-0.059692	-1.000000	-1.000000	-1.000000	-1.000000	-1.000000	-1.000000	-1.000000	146.344828	0.000000	-1.000000	-1.000000	254082.000000	1772311166.279554
-17175.015000	-14683.995000	-18140.850000	-13111.605000	0.000000	0.000000	0.000000	0.000000	-10.165914	2.941926	-5.607944	1.925486	0.000000	0.000000	-0.000000	-0.000000	3.921820	1.098720	0.427280	0.008484	0.980527	-0.059692	-1.000000	-1.000000	-1.000000	-1.000000	-1.000000	-1.000000	-1.000000	146.344828	0.000000	-1.000000	-1.000000	254083.000000	1772311166.282731
-17182.890000	-14659.875000	-18151.830000	-13118.490000	0.000000	0.000000	0.000000	0.000000	-13.381430	10.688298	-10.340128	-3.281893	0.000000	0.000000	-0.000000	-0.000000	3.921820	1.098720	0.427280	0.008484	0.980527	-0.059692	-1.000000	-1.000000	-1.000000	-1.000000	-1.000000	-1.000000	-1.000000	146.344828	0.000000	-1.000000	-1.000000	254084.000000	1772311166.282738
-17184.780000	-14676.930000	-18155.520000	-13117.320000	0.000000	0.000000	0.000000	0.000000	-10.071626	21.232495	-10.162944	-6.657063	0.000000	0.000000	-0.000000	-0.000000	3.921820	1.098720	0.427280	0.008484	0.980527	-0.059692	-1.000000	-1.000000	-1.000000	-1.000000	-1.000000	-1.000000	-1.000000	146.344828	0.000000	-1.000000	-1.000000	254085.000000	1772311166.286819
-17175.015000	-14661.360000	-18146.160000	-13110.075000	0.000000	0.000000	0.000000	0.000000	-3.601359	21.035997	-6.536153	-7.219827	0.000000	0.000000	-0.000000	-0.000000	3.921820	1.098720	0.427280	0.008484	0.980527	-0.059692	-1.000000	-1.000000	-1.000000	-1.000000	-1.000000	-1.000000	-1.000000	146.344828	0.000000	-1.000000	-1.000000	254086.000000	1772311166.286829
-17193.330000	-14632.695000	-18161.595000	-13124.925000	0.000000	0.000000	0.000000	0.000000	2.582288	6.571151	-1.356830	-5.114519	0.000000	0.000000	-0.000000	-0.000000	3.921820	1.098720	0.427280	0.008484	0.980527	-0.059692	-1.000000	-1.000000	-1.000000	-1.000000	-1.000000	-1.000000	-1.000000	146.344828	0.000000	-1.000000	-1.000000	254087.000000	1772311166.290827
-17188.695000	-14601.645000	-18157.455000	-13123.125000	0.000000	0.000000	0.000000	0.000000	5.900366	-12.035196	3.158556	-2.060193	0.000000	0.000000	-0.000000	-0.000000	3.921820	1.098720	0.427280	0.008484	0.980527	-0.059692	-1.000000	-1.000000	-1.000000	-1.000000	-1.000000	-1.000000	-1.000000	146.344828	0.000000	-1.000000	-1.000000	254088.000000	1772311166.290893
-17173.620000	-14585.895000	-18140.580000	-13109.175000	0.000000	0.000000	0.000000	0.000000	6.055245	-22.948041	5.774236	0.539759	0.000000	0.000000	-0.000000	-0.000000	3.921820	1.098720	0.427280	0.008484	0.980527	-0.059692	-1.000000	-1.000000	-1.000000	-1.000000	-1.000000	-1.000000	-1.000000	146.344828	0.000000	-1.000000	-1.000000	254089.000000	1772311166.294879
-17177.085000	-14594.625000	-18140.715000	-13112.730000	0.000000	0.000000	0.000000	0.000000	5.105075	-23.000359	7.134339	2.888575	0.000000	0.000000	-0.000000	-0.000000	3.921820	1.098720	0.427280	0.008484	0.980527	-0.059692	-1.000000	-1.000000	-1.000000	-1.000000	-1.000000	-1.000000	-1.000000	146.344828	0.000000	-1.000000	-1.000000	254090.000000	1772311166.294900
-17207.595000	-14593.590000	-18174.195000	-13146.795000	0.000000	0.000000	0.000000	0.000000	3.608728	-17.067587	6.790554	4.126503	0.000000	0.000000	-0.000000	-0.000000	2.563680	-0.412020	-0.701960	0.008118	0.979185	-0.062988	-1.000000	-1.000000	-1.000000	-1.000000	-1.000000	-1.000000	-1.000000	146.344828	0.000000	-1.000000	-1.000000	254091.000000	1772311166.298856
-17185.230000	-14595.120000	-18153.090000	-13124.205000	0.000000	0.000000	0.000000	0.000000	0.423977	-10.685436	3.158736	2.483578	0.000000	0.000000	-0.000000	-0.000000	2.563680	-0.412020	-0.701960	0.008118	0.979185	-0.062988	-1.000000	-1.000000	-1.000000	-1.000000	-1.000000	-1.000000	-1.000000	146.344828	0.000000	-1.000000	-1.000000	254092.000000	1772311166.298861
-17157.870000	-14597.505000	-18126.315000	-13092.570000	0.000000	0.000000	0.000000	0.000000	-2.475509	-5.606744	-1.516076	0.102011	0.000000	0.000000	-0.000000	-0.000000	2.563680	-0.412020	-0.701960	0.008118	0.979185	-0.062988	-1.000000	-1.000000	-1.000000	-1.000000	-1.000000	-1.000000	-1.000000	146.344828	0.000000	-1.000000	-1.000000	254093.000000	1772311166.302822
-17200.845000	-14578.245000	-18170.190000	-13128.120000	0.000000	0.000000	0.000000	0.000000	-2.203442	-0.795789	-3.328930	0.629106	0.000000	0.000000	-0.000000	-0.000000	2.563680	-0.412020	-0.701960	0.008118	0.979185	-0.062988	-1.000000	-1.000000	-1.000000	-1.000000	-1.000000	-1.000000	-1.000000	146.344828	0.000000	-1.000000	-1.000000	254094.000000	1772311166.302828
-17185.545000	-14562.720000	-18154.890000	-13116.645000	0.000000	0.000000	0.000000	0.000000	-0.759780	5.281373	-3.189287	2.438547	0.000000	0.000000	-0.000000	-0.000000	2.563680	-0.412020	-0.701960	0.008118	0.979185	-0.062988	-1.000000	-1.000000	-1.000000	-1.000000	-1.000000	-1.000000	-1.000000	146.344828	0.000000	-1.000000	-1.000000	254095.000000	1772311166.307017
-17158.455000	-14584.455000	-18125.820000	-13090.050000	0.000000	0.000000	0.000000	0.000000	-0.428083	11.718368	-2.854348	2.560803	0.000000	0.000000	-0.000000	-0.000000	2.563680	-0.412020	-0.701960	0.008118	0.979185	-0.062988	-1.000000	-1.000000	-1.000000	-1.000000	-1.000000	-1.000000	-1.000000	146.344828	0.000000	-1.000000	-1.000000	254096.000000	1772311166.307035
-17140.545000	-14596.965000	-18108.090000	-13085.190000	0.000000	0.000000	0.000000	0.000000	0.863027	14.261589	-0.420320	2.132818	0.000000	0.000000	-0.000000	-0.000000	2.563680	-0.412020	-0.701960	0.008118	0.979185	-0.062988	-1.000000	-1.000000	-1.000000	-1.000000	-1.000000	-1.000000	-1.000000	146.344828	0.000000	-1.000000	-1.000000	254097.000000	1772311166.310873
-17197.380000	-14596.920000	-18161.550000	-13133.205000	0.000000	0.000000	0.000000	0.000000	3.115874	10.293622	3.439040	1.429669	0.000000	0.000000	-0.000000	-0.000000	2.563680	-0.412020	-0.701960	0.008118	0.979185	-0.062988	-1.000000	-1.000000	-1.000000	-1.000000	-1.000000	-1.000000	-1.000000	146.344828	0.000000	-1.000000	-1.000000	254098.000000	1772311166.310882
-17226.540000	-14614.470000	-18190.215000	-13151.925000	0.000000	0.000000	0.000000	0.000000	0.993140	2.560612	2.635968	-2.788776	0.000000	0.000000	-0.000000	-0.000000	2.563680	-0.412020	-0.701960	0.008118	0.979185	-0.062988	-1.000000	-1.000000	-1.000000	-1.000000	-1.000000	-1.000000	-1.000000	146.344828	0.000000	-1.000000	-1.000000	254099.000000	1772311166.314791
-17197.875000	-14605.290000	-18169.380000	-13142.340000	0.000000	0.000000	0.000000	0.000000	-6.896567	-3.898161	-4.886530	-10.236489	0.000000	0.000000	-0.000000	-0.000000	2.563680	-0.412020	-0.701960	0.008118	0.979185	-0.062988	-1.000000	-1.000000	-1.000000	-1.000000	-1.000000	-1.000000	-1.000000	146.344828	0.000000	-1.000000	-1.000000	254100.000000	1772311166.314798
-17180.595000	-14615.550000	-18157.995000	-13133.565000	0.000000	0.000000	0.000000	0.000000	-12.385974	-5.736989	-11.474425	-14.169415	0.000000	0.000000	-0.000000	-0.000000	3.738700	-0.183120	-0.793520	0.008911	0.981565	-0.061279	-1.000000	-1.000000	-1.000000	-1.000000	-1.000000	-1.000000	-1.000000	146.344828	0.000000	-1.000000	-1.000000	254101.000000	1772311166.318759
-17159.490000	-14632.245000	-18132.795000	-13103.055000	0.000000	0.000000	0.000000	0.000000	-7.647109	-3.265890	-8.821113	-8.782353	0.000000	0.000000	-0.000000	-0.000000	3.738700	-0.183120	-0.793520	0.008911	0.981565	-0.061279	-1.000000	-1.000000	-1.000000	-1.000000	-1.000000	-1.000000	-1.000000	146.344828	0.000000	-1.000000	-1.000000	254102.000000	1772311166.318784
-17169.435000	-14628.240000	-18135.360000	-13110.075000	0.000000	0.000000	0.000000	0.000000	4.785971	0.466155	2.354623	4.118673	0.000000	0.000000	-0.000000	-0.000000	3.738700	-0.183120	-0.793520	0.008911	0.981565	-0.061279	-1.000000	-1.000000	-1.000000	-1.000000	-1.000000	-1.000000	-1.000000	146.344828	0.000000	-1.000000	-1.000000	254103.000000	1772311166.322881
-17183.700000	-14607.540000	-18157.005000	-13142.025000	0.000000	0.000000	0.000000	0.000000	14.830587	3.762795	13.253550	15.538414	0.000000	0.000000	-0.000000	-0.000000	3.738700	-0.183120	-0.793520	0.008911	0.981565	-0.061279	-1.000000	-1.000000	-1.000000	-1.000000	-1.000000	-1.000000	-1.000000	146.344828	0.000000	-1.000000	-1.000000	254104.000000	1772311166.322907
-17218.305000	-14573.520000	-18190.080000	-13174.965000	0.000000	0.000000	0.000000	0.000000	14.205466	7.650909	14.649968	16.076623	0.000000	0.000000	-0.000000	-0.000000	3.738700	-0.183120	-0.793520	0.008911	0.981565	-0.061279	-1.000000	-1.000000	-1.000000	-1.000000	-1.000000	-1.000000	-1.000000	146.344828	0.000000	-1.000000	-1.000000	254105.000000	1772311166.326962
-17198.010000	-14576.715000	-18161.460000	-13137.615000	0.000000	0.000000	0.000000	0.000000	3.497058	12.137102	5.506045	5.610720	0.000000	0.000000	-0.000000	-0.000000	3.738700	-0.183120	-0.793520	0.008911	0.981565	-0.061279	-1.000000	-1.000000	-1.000000	-1.000000	-1.000000	-1.000000	-1.000000	146.344828	0.000000	-1.000000	-1.000000	254106.000000	1772311166.326974
-17158.320000	-14586.390000	-18117.945000	-13084.605000	0.000000	0.000000	0.000000	0.000000	-7.563092	13.365736	-4.791637	-4.646964	0.000000	0.000000	-0.000000	-0.000000	3.738700	-0.183120	-0.793520	0.008911	0.981565	-0.061279	-1.000000	-1.000000	-1.000000	-1.000000	-1.000000	-1.000000	-1.000000	146.344828	0.000000	-1.000000	-1.000000	254107.000000	1772311166.335092
-17173.845000	-14589.765000	-18133.110000	-13092.705000	0.000000	0.000000	0.000000	0.000000	-9.474866	7.372237	-6.575791	-4.424413	0.000000	0.000000	-0.000000	-0.000000	3.738700	-0.183120	-0.793520	0.008911	0.981565	-0.061279	-1.000000	-1.000000	-1.000000	-1.000000	-1.000000	-1.000000	-1.000000	146.344828	0.000000	-1.000000	-1.000000	254108.000000	1772311166.335099
-17203.230000	-14588.910000	-18160.920000	-13110.480000	0.000000	0.000000	0.000000	0.000000	-3.755873	-4.180760	-1.636952	3.039086	0.000000	0.000000	-0.000000	-0.000000	3.738700	-0.183120	-0.793520	0.008911	0.981565	-0.061279	-1.000000	-1.000000	-1.000000	-1.000000	-1.000000	-1.000000	-1.000000	146.344828	0.000000	-1.000000	-1.000000	254109.000000	1772311166.335105
-17175.105000	-14616.315000	-18133.830000	-13085.730000	0.000000	0.000000	0.000000	0.000000	1.227109	-15.303303	1.557077	7.100342	0.000000	0.000000	-0.000000	-0.000000	3.738700	-0.183120	-0.793520	0.008911	0.981565	-0.061279	-1.000000	-1.000000	-1.000000	-1.000000	-1.000000	-1.000000	-1.000000	146.344828	0.000000	-1.000000	-1.000000	254110.000000	1772311166.335108
-17170.920000	-14646.195000	-18136.530000	-13092.255000	0.000000	0.000000	0.000000	0.000000	2.444442	-21.678478	0.424586	3.748390	0.000000	0.000000	-0.000000	-0.000000	3.525060	0.152600	-0.366240	0.007324	0.981199	-0.061523	-1.000000	-1.000000	-1.000000	-1.000000	-1.000000	-1.000000	-1.000000	146.344828	0.000000	-1.000000	-1.000000	254111.000000	1772311166.338916
-17168.985000	-14662.575000	-18147.465000	-13116.150000	0.000000	0.000000	0.000000	0.000000	2.354913	-22.298024	-2.059077	-3.878565	0.000000	0.000000	-0.000000	-0.000000	3.525060	0.152600	-0.366240	0.007324	0.981199	-0.061523	-1.000000	-1.000000	-1.000000	-1.000000	-1.000000	-1.000000	-1.000000	146.344828	0.000000	-1.000000	-1.000000	254112.000000	1772311166.338919
-17158.455000	-14658.705000	-18136.080000	-13115.565000	0.000000	0.000000	0.000000	0.000000	2.373134	-16.768371	-3.820043	-11.817719	0.000000	0.000000	-0.000000	-0.000000	3.525060	0.152600	-0.366240	0.007324	0.981199	-0.061523	-1.000000	-1.000000	-1.000000	-1.000000	-1.000000	-1.000000	-1.000000	146.344828	0.000000	-1.000000	-1.000000	254113.000000	1772311166.342916
-17159.130000	-14649.390000	-18132.570000	-13104.450000	0.000000	0.000000	0.000000	0.000000	2.132784	-4.912966	-3.883408	-15.964779	0.000000	0.000000	-0.000000	-0.000000	3.525060	0.152600	-0.366240	0.007324	0.981199	-0.061523	-1.000000	-1.000000	-1.000000	-1.000000	-1.000000	-1.000000	-1.000000	146.344828	0.000000	-1.000000	-1.000000	254114.000000	1772311166.342920
-17168.445000	-14658.570000	-18138.870000	-13108.905000	0.000000	0.000000	0.000000	0.000000	0.855542	10.391323	-1.991447	-13.069759	0.000000	0.000000	-0.000000	-0.000000	3.525060	0.152600	-0.366240	0.007324	0.981199	-0.061523	-1.000000	-1.000000	-1.000000	-1.000000	-1.000000	-1.000000	-1.000000	146.344828	0.000000	-1.000000	-1.000000	254115.000000	1772311166.346849
-17172.630000	-14682.645000	-18146.430000	-13117.365000	0.000000	0.000000	0.000000	0.000000	-1.988199	22.244116	0.248219	-4.524787	0.000000	0.000000	-0.000000	-0.000000	3.525060	0.152600	-0.366240	0.007324	0.981199	-0.061523	-1.000000	-1.000000	-1.000000	-1.000000	-1.000000	-1.000000	-1.000000	146.344828	0.000000	-1.000000	-1.000000	254116.000000	1772311166.346853
-17166.240000	-14674.905000	-18143.550000	-13115.295000	0.000000	0.000000	0.000000	0.000000	-5.277290	24.529191	1.077337	4.509562	0.000000	0.000000	-0.000000	-0.000000	3.525060	0.152600	-0.366240	0.007324	0.981199	-0.061523	-1.000000	-1.000000	-1.000000	-1.000000	-1.000000	-1.000000	-1.000000	146.344828	0.000000	-1.000000	-1.000000	254117.000000	1772311166.350926
-17180.910000	-14716.755000	-18158.580000	-13128.120000	0.000000	0.000000	0.000000	0.000000	-6.794802	17.028191	0.470869	9.798803	0.000000	0.000000	-0.000000	-0.000000	3.525060	0.152600	-0.366240	0.007324	0.981199	-0.061523	-1.000000	-1.000000	-1.000000	-1.000000	-1.000000	-1.000000	-1.000000	146.344828	0.000000	-1.000000	-1.000000	254118.000000	1772311166.350929
-17172.990000	-14739.075000	-18147.195000	-13113.720000	0.000000	0.000000	0.000000	0.000000	-5.614626	3.836368	-0.466373	10.421292	0.000000	0.000000	-0.000000	-0.000000	3.525060	0.152600	-0.366240	0.007324	0.981199	-0.061523	-1.000000	-1.000000	-1.000000	-1.000000	-1.000000	-1.000000	-1.000000	146.344828	0.000000	-1.000000	-1.000000	254119.000000	1772311166.355198
-17169.750000	-14729.580000	-18141.930000	-13105.485000	0.000000	0.000000	0.000000	0.000000	-2.213402	-9.040538	-0.241690	8.434593	0.000000	0.000000	-0.000000	-0.000000	3.525060	0.152600	-0.366240	0.007324	0.981199	-0.061523	-1.000000	-1.000000	-1.000000	-1.000000	-1.000000	-1.000000	-1.000000	146.344828	0.000000	-1.000000	-1.000000	254120.000000	1772311166.355201
-17170.830000	-14735.565000	-18142.065000	-13107.240000	0.000000	0.000000	0.000000	0.000000	2.302563	-14.846631	1.825986	6.287787	0.000000	0.000000	-0.000000	-0.000000	2.746800	0.167860	-0.305200	0.007568	0.980527	-0.062622	-1.000000	-1.000000	-1.000000	-1.000000	-1.000000	-1.000000	-1.000000	146.344828	0.000000	-1.000000	-1.000000	254121.000000	1772311166.358963
-17175.330000	-14745.825000	-18145.080000	-13112.055000	0.000000	0.000000	0.000000	0.000000	5.911510	-11.161930	4.240197	4.108787	0.000000	0.000000	-0.000000	-0.000000	2.746800	0.167860	-0.305200	0.007568	0.980527	-0.062622	-1.000000	-1.000000	-1.000000	-1.000000	-1.000000	-1.000000	-1.000000	146.344828	0.000000	-1.000000	-1.000000	254122.000000	1772311166.358967
-17182.170000	-14740.740000	-18150.390000	-13117.005000	0.000000	0.000000	0.000000	0.000000	6.626010	-2.104547	4.671052	0.756933	0.000000	0.000000	-0.000000	-0.000000	2.746800	0.167860	-0.305200	0.007568	0.980527	-0.062622	-1.000000	-1.000000	-1.000000	-1.000000	-1.000000	-1.000000	-1.000000	146.344828	0.000000	-1.000000	-1.000000	254123.000000	1772311166.362995
-17180.775000	-14738.220000	-18148.635000	-13117.140000	0.000000	0.000000	0.000000	0.000000	4.266600	6.534165	2.447025	-3.541813	0.000000	0.000000	-0.000000	-0.000000	2.746800	0.167860	-0.305200	0.007568	0.980527	-0.062622	-1.000000	-1.000000	-1.000000	-1.000000	-1.000000	-1.000000	-1.000000	146.344828	0.000000	-1.000000	-1.000000	254124.000000	1772311166.362998
-17169.255000	-14746.590000	-18141.840000	-13109.670000	0.000000	0.000000	0.000000	0.000000	0.929635	11.048049	-0.770492	-6.757563	0.000000	0.000000	-0.000000	-0.000000	2.746800	0.167860	-0.305200	0.007568	0.980527	-0.062622	-1.000000	-1.000000	-1.000000	-1.000000	-1.000000	-1.000000	-1.000000	146.344828	0.000000	-1.000000	-1.000000	254125.000000	1772311166.366974
-17163.765000	-14741.865000	-18144.630000	-13110.615000	0.000000	0.000000	0.000000	0.000000	-0.687754	10.150819	-2.703687	-6.912252	0.000000	0.000000	-0.000000	-0.000000	2.746800	0.167860	-0.305200	0.007568	0.980527	-0.062622	-1.000000	-1.000000	-1.000000	-1.000000	-1.000000	-1.000000	-1.000000	146.344828	0.000000	-1.000000	-1.000000	254126.000000	1772311166.366977
-17156.655000	-14743.080000	-18139.680000	-13108.230000	0.000000	0.000000	0.000000	0.000000	0.162724	5.169556	-2.631058	-4.121697	0.000000	0.000000	-0.000000	-0.000000	2.746800	0.167860	-0.305200	0.007568	0.980527	-0.062622	-1.000000	-1.000000	-1.000000	-1.000000	-1.000000	-1.000000	-1.000000	146.344828	0.000000	-1.000000	-1.000000	254127.000000	1772311166.371747
-17154.315000	-14739.885000	-18124.740000	-13097.250000	0.000000	0.000000	0.000000	0.000000	1.875870	-0.860089	-1.106915	-0.176142	0.000000	0.000000	-0.000000	-0.000000	2.746800	0.167860	-0.305200	0.007568	0.980527	-0.062622	-1.000000	-1.000000	-1.000000	-1.000000	-1.000000	-1.000000	-1.000000	146.344828	0.000000	-1.000000	-1.000000	254128.000000	1772311166.371749
-17161.380000	-14715.270000	-18130.815000	-13102.245000	0.000000	0.000000	0.000000	0.000000	2.194351	-4.885974	1.025172	3.120381	0.000000	0.000000	-0.000000	-0.000000	2.746800	0.167860	-0.305200	0.007568	0.980527	-0.062622	-1.000000	-1.000000	-1.000000	-1.000000	-1.000000	-1.000000	-1.000000	146.344828	0.000000	-1.000000	-1.000000	254129.000000	1772311166.377020
-17185.815000	-14676.345000	-18159.750000	-13130.280000	0.000000	0.000000	0.000000	0.000000	-0.434192	-4.487304	1.738141	3.838458	0.000000	0.000000	-0.000000	-0.000000	2.746800	0.167860	-0.305200	0.007568	0.980527	-0.062622	-1.000000	-1.000000	-1.000000	-1.000000	-1.000000	-1.000000	-1.000000	146.344828	0.000000	-1.000000	-1.000000	254130.000000	1772311166.377023
-17182.755000	-14660.820000	-18153.585000	-13126.365000	0.000000	0.000000	0.000000	0.000000	-5.562599	0.441471	-0.921001	0.751439	0.000000	0.000000	-0.000000	-0.000000	3.753960	0.259420	-0.076300	0.007690	0.980832	-0.061279	-1.000000	-1.000000	-1.000000	-1.000000	-1.000000	-1.000000	-1.000000	146.344828	0.000000	-1.000000	-1.000000	254131.000000	1772311166.378979
-17177.625000	-14667.165000	-18142.380000	-13114.170000	0.000000	0.000000	0.000000	0.000000	-9.682204	5.577274	-4.908844	-3.680351	0.000000	0.000000	-0.000000	-0.000000	3.753960	0.259420	-0.076300	0.007690	0.980832	-0.061279	-1.000000	-1.000000	-1.000000	-1.000000	-1.000000	-1.000000	-1.000000	146.344828	0.000000	-1.000000	-1.000000	254132.000000	1772311166.378982
-17181.900000	-14662.215000	-18147.870000	-13112.595000	0.000000	0.000000	0.000000	0.000000	-8.927693	5.067129	-5.772639	-4.811753	0.000000	0.000000	-0.000000	-0.000000	3.753960	0.259420	-0.076300	0.007690	0.980832	-0.061279	-1.000000	-1.000000	-1.000000	-1.000000	-1.000000	-1.000000	-1.000000	146.344828	0.000000	-1.000000	-1.000000	254133.000000	1772311166.383193
-17189.370000	-14648.175000	-18162.180000	-13123.125000	0.000000	0.000000	0.000000	0.000000	-3.477763	-1.957692	-2.732131	-1.583071	0.000000	0.000000	-0.000000	-0.000000	3.753960	0.259420	-0.076300	0.007690	0.980832	-0.061279	-1.000000	-1.000000	-1.000000	-1.000000	-1.000000	-1.000000	-1.000000	146.344828	0.000000	-1.000000	-1.000000	254134.000000	1772311166.383196
-17155.530000	-14624.910000	-18132.795000	-13095.720000	0.000000	0.000000	0.000000	0.000000	3.541756	-10.036203	1.506632	3.079304	0.000000	0.000000	-0.000000	-0.000000	3.753960	0.259420	-0.076300	0.007690	0.980832	-0.061279	-1.000000	-1.000000	-1.000000	-1.000000	-1.000000	-1.000000	-1.000000	146.344828	0.000000	-1.000000	-1.000000	254135.000000	1772311166.388725
-17173.305000	-14633.145000	-18142.020000	-13105.215000	0.000000	0.000000	0.000000	0.000000	9.544753	-13.412226	5.223382	6.561411	0.000000	0.000000	-0.000000	-0.000000	3.753960	0.259420	-0.076300	0.007690	0.980832	-0.061279	-1.000000	-1.000000	-1.000000	-1.000000	-1.000000	-1.000000	-1.000000	146.344828	0.000000	-1.000000	-1.000000	254136.000000	1772311166.388728
-17196.840000	-14639.040000	-18160.020000	-13125.015000	0.000000	0.000000	0.000000	0.000000	11.539184	-11.665639	7.024244	6.969118	0.000000	0.000000	-0.000000	-0.000000	3.753960	0.259420	-0.076300	0.007690	0.980832	-0.061279	-1.000000	-1.000000	-1.000000	-1.000000	-1.000000	-1.000000	-1.000000	146.344828	0.000000	-1.000000	-1.000000	254137.000000	1772311166.390952
-17176.320000	-14622.345000	-18152.820000	-13123.215000	0.000000	0.000000	0.000000	0.000000	7.401674	-7.755416	5.074467	2.957784	0.000000	0.000000	-0.000000	-0.000000	3.753960	0.259420	-0.076300	0.007690	0.980832	-0.061279	-1.000000	-1.000000	-1.000000	-1.000000	-1.000000	-1.000000	-1.000000	146.344828	0.000000	-1.000000	-1.000000	254138.000000	1772311166.390954
-17174.160000	-14623.155000	-18155.160000	-13128.435000	0.000000	0.000000	0.000000	0.000000	0.331001	-3.234625	0.437619	-3.468030	0.000000	0.000000	-0.000000	-0.000000	3.753960	0.259420	-0.076300	0.007690	0.980832	-0.061279	-1.000000	-1.000000	-1.000000	-1.000000	-1.000000	-1.000000	-1.000000	146.344828	0.000000	-1.000000	-1.000000	254139.000000	1772311166.395206
-17205.480000	-14614.740000	-18184.770000	-13160.430000	0.000000	0.000000	0.000000	0.000000	-4.835076	1.529033	-3.957754	-8.509880	0.000000	0.000000	-0.000000	-0.000000	3.753960	0.259420	-0.076300	0.007690	0.980832	-0.061279	-1.000000	-1.000000	-1.000000	-1.000000	-1.000000	-1.000000	-1.000000	146.344828	0.000000	-1.000000	-1.000000	254140.000000	1772311166.395214
-17237.340000	-14617.215000	-18203.040000	-13174.695000	0.000000	0.000000	0.000000	0.000000	-7.980061	5.451120	-7.219338	-10.712291	0.000000	0.000000	-0.000000	-0.000000	3.158820	0.183120	-0.091560	0.007202	0.981077	-0.062805	-1.000000	-1.000000	-1.000000	-1.000000	-1.000000	-1.000000	-1.000000	146.344828	0.000000	-1.000000	-1.000000	254141.000000	1772311166.399236
-17181.540000	-14611.095000	-18145.440000	-13113.585000	0.000000	0.000000	0.000000	0.000000	-9.669416	7.288906	-8.050050	-8.809545	0.000000	0.000000	-0.000000	-0.000000	3.158820	0.183120	-0.091560	0.007202	0.981077	-0.062805	-1.000000	-1.000000	-1.000000	-1.000000	-1.000000	-1.000000	-1.000000	146.344828	0.000000	-1.000000	-1.000000	254142.000000	1772311166.399241
-17118.405000	-14612.310000	-18090.450000	-13058.730000	0.000000	0.000000	0.000000	0.000000	-5.232310	6.731971	-1.949755	0.731469	0.000000	0.000000	-0.000000	-0.000000	3.158820	0.183120	-0.091560	0.007202	0.981077	-0.062805	-1.000000	-1.000000	-1.000000	-1.000000	-1.000000	-1.000000	-1.000000	146.344828	0.000000	-1.000000	-1.000000	254143.000000	1772311166.403087
-17161.020000	-14612.040000	-18132.165000	-13099.500000	0.000000	0.000000	0.000000	0.000000	7.212633	4.448265	10.850692	16.001950	0.000000	0.000000	-0.000000	-0.000000	3.158820	0.183120	-0.091560	0.007202	0.981077	-0.062805	-1.000000	-1.000000	-1.000000	-1.000000	-1.000000	-1.000000	-1.000000	146.344828	0.000000	-1.000000	-1.000000	254144.000000	1772311166.403103
-17218.800000	-14600.160000	-18188.775000	-13152.960000	0.000000	0.000000	0.000000	0.000000	16.850071	1.725942	18.599049	24.062430	0.000000	0.000000	-0.000000	-0.000000	3.158820	0.183120	-0.091560	0.007202	0.981077	-0.062805	-1.000000	-1.000000	-1.000000	-1.000000	-1.000000	-1.000000	-1.000000	146.344828	0.000000	-1.000000	-1.000000	254145.000000	1772311166.407037
-17197.695000	-14584.005000	-18167.085000	-13129.785000	0.000000	0.000000	0.000000	0.000000	11.806038	0.279144	10.785603	14.578825	0.000000	0.000000	-0.000000	-0.000000	3.158820	0.183120	-0.091560	0.007202	0.981077	-0.062805	-1.000000	-1.000000	-1.000000	-1.000000	-1.000000	-1.000000	-1.000000	146.344828	0.000000	-1.000000	-1.000000	254146.000000	1772311166.407040
-17178.300000	-14587.965000	-18148.815000	-13114.665000	0.000000	0.000000	0.000000	0.000000	-3.360127	0.810679	-6.267329	-5.147677	0.000000	0.000000	-0.000000	-0.000000	3.158820	0.183120	-0.091560	0.007202	0.981077	-0.062805	-1.000000	-1.000000	-1.000000	-1.000000	-1.000000	-1.000000	-1.000000	146.344828	0.000000	-1.000000	-1.000000	254147.000000	1772311166.411191
-17180.505000	-14582.160000	-18154.170000	-13118.895000	0.000000	0.000000	0.000000	0.000000	-14.046840	1.754035	-17.352407	-18.965718	0.000000	0.000000	-0.000000	-0.000000	3.158820	0.183120	-0.091560	0.007202	0.981077	-0.062805	-1.000000	-1.000000	-1.000000	-1.000000	-1.000000	-1.000000	-1.000000	146.344828	0.000000	-1.000000	-1.000000	254148.000000	1772311166.411193
-17190.945000	-14559.300000	-18159.930000	-13120.335000	0.000000	0.000000	0.000000	0.000000	-13.554352	1.569084	-16.094763	-19.584712	0.000000	0.000000	-0.000000	-0.000000	3.158820	0.183120	-0.091560	0.007202	0.981077	-0.062805	-1.000000	-1.000000	-1.000000	-1.000000	-1.000000	-1.000000	-1.000000	146.344828	0.000000	-1.000000	-1.000000	254149.000000	1772311166.415108
-17185.365000	-14580.045000	-18138.015000	-13092.930000	0.000000	0.000000	0.000000	0.000000	-6.112074	0.389123	-6.866054	-10.533745	0.000000	0.000000	-0.000000	-0.000000	3.158820	0.183120	-0.091560	0.007202	0.981077	-0.062805	-1.000000	-1.000000	-1.000000	-1.000000	-1.000000	-1.000000	-1.000000	146.344828	0.000000	-1.000000	-1.000000	254150.000000	1772311166.415112
-17178.120000	-14577.030000	-18126.855000	-13079.070000	0.000000	0.000000	0.000000	0.000000	1.889261	-1.857886	3.950807	1.846206	0.000000	0.000000	-0.000000	-0.000000	2.838360	0.167860	-0.412020	0.008789	0.981260	-0.064087	-1.000000	-1.000000	-1.000000	-1.000000	-1.000000	-1.000000	-1.000000	146.344828	0.000000	-1.000000	-1.000000	254151.000000	1772311166.419111
-17172.000000	-14548.680000	-18134.865000	-13095.405000	0.000000	0.000000	0.000000	0.000000	7.197055	-4.473216	11.619472	11.559897	0.000000	0.000000	-0.000000	-0.000000	2.838360	0.167860	-0.412020	0.008789	0.981260	-0.064087	-1.000000	-1.000000	-1.000000	-1.000000	-1.000000	-1.000000	-1.000000	146.344828	0.000000	-1.000000	-1.000000	254152.000000	1772311166.419115
-17173.215000	-14556.645000	-18146.565000	-13121.595000	0.000000	0.000000	0.000000	0.000000	8.933477	-4.863861	12.563392	13.057347	0.000000	0.000000	-0.000000	-0.000000	2.838360	0.167860	-0.412020	0.008789	0.981260	-0.064087	-1.000000	-1.000000	-1.000000	-1.000000	-1.000000	-1.000000	-1.000000	146.344828	0.000000	-1.000000	-1.000000	254153.000000	1772311166.423570
-17163.720000	-14584.005000	-18136.215000	-13109.490000	0.000000	0.000000	0.000000	0.000000	7.296577	-3.065663	6.517828	5.320705	0.000000	0.000000	-0.000000	-0.000000	2.838360	0.167860	-0.412020	0.008789	0.981260	-0.064087	-1.000000	-1.000000	-1.000000	-1.000000	-1.000000	-1.000000	-1.000000	146.344828	0.000000	-1.000000	-1.000000	254154.000000	1772311166.423574
-17169.750000	-14602.500000	-18139.995000	-13114.845000	0.000000	0.000000	0.000000	0.000000	3.449156	-2.750721	-2.084122	-5.419168	0.000000	0.000000	-0.000000	-0.000000	2.838360	0.167860	-0.412020	0.008789	0.981260	-0.064087	-1.000000	-1.000000	-1.000000	-1.000000	-1.000000	-1.000000	-1.000000	146.344828	0.000000	-1.000000	-1.000000	254155.000000	1772311166.428923
-17193.465000	-14598.405000	-18167.040000	-13145.040000	0.000000	0.000000	0.000000	0.000000	-1.530719	-5.075390	-8.458328	-11.928614	0.000000	0.000000	-0.000000	-0.000000	2.838360	0.167860	-0.412020	0.008789	0.981260	-0.064087	-1.000000	-1.000000	-1.000000	-1.000000	-1.000000	-1.000000	-1.000000	146.344828	0.000000	-1.000000	-1.000000	254156.000000	1772311166.428928
-17187.435000	-14613.975000	-18158.895000	-13132.755000	0.000000	0.000000	0.000000	0.000000	-6.820699	-6.590555	-11.106930	-12.187013	0.000000	0.000000	-0.000000	-0.000000	2.838360	0.167860	-0.412020	0.008789	0.981260	-0.064087	-1.000000	-1.000000	-1.000000	-1.000000	-1.000000	-1.000000	-1.000000	146.344828	0.000000	-1.000000	-1.000000	254157.000000	1772311166.431106
-17179.155000	-14590.170000	-18151.155000	-13123.170000	0.000000	0.000000	0.000000	0.000000	-9.948281	-3.818925	-9.593595	-7.014079	0.000000	0.000000	-0.000000	-0.000000	2.838360	0.167860	-0.412020	0.008789	0.981260	-0.064087	-1.000000	-1.000000	-1.000000	-1.000000	-1.000000	-1.000000	-1.000000	146.344828	0.000000	-1.000000	-1.000000	254158.000000	1772311166.431109
-17185.230000	-14575.815000	-18158.310000	-13129.695000	0.000000	0.000000	0.000000	0.000000	-8.226778	3.738759	-3.852618	1.845894	0.000000	0.000000	-0.000000	-0.000000	2.838360	0.167860	-0.412020	0.008789	0.981260	-0.064087	-1.000000	-1.000000	-1.000000	-1.000000	-1.000000	-1.000000	-1.000000	146.344828	0.000000	-1.000000	-1.000000	254159.000000	1772311166.437728
-17176.005000	-14575.815000	-18149.850000	-13117.095000	0.000000	0.000000	0.000000	0.000000	-2.392499	13.057537	3.635759	10.441419	0.000000	0.000000	-0.000000	-0.000000	2.838360	0.167860	-0.412020	0.008789	0.981260	-0.064087	-1.000000	-1.000000	-1.000000	-1.000000	-1.000000	-1.000000	-1.000000	146.344828	0.000000	-1.000000	-1.000000	254160.000000	1772311166.437732
-17173.935000	-14569.110000	-18152.730000	-13115.655000	0.000000	0.000000	0.000000	0.000000	4.212664	18.544654	9.213155	14.821482	0.000000	0.000000	-0.000000	-0.000000	2.639980	0.137340	-0.381500	0.008545	0.981687	-0.063660	-1.000000	-1.000000	-1.000000	-1.000000	-1.000000	-1.000000	-1.000000	146.344828	0.000000	-1.000000	-1.000000	254161.000000	1772311166.443585
-17170.065000	-14573.655000	-18156.285000	-13121.685000	0.000000	0.000000	0.000000	0.000000	8.564909	16.284138	10.629316	13.486795	0.000000	0.000000	-0.000000	-0.000000	2.639980	0.137340	-0.381500	0.008545	0.981687	-0.063660	-1.000000	-1.000000	-1.000000	-1.000000	-1.000000	-1.000000	-1.000000	146.344828	0.000000	-1.000000	-1.000000	254162.000000	1772311166.443589
-17169.480000	-14531.805000	-18157.455000	-13131.000000	0.000000	0.000000	0.000000	0.000000	9.132636	7.842702	7.704332	7.031107	0.000000	0.000000	-0.000000	-0.000000	2.639980	0.137340	-0.381500	0.008545	0.981687	-0.063660	-1.000000	-1.000000	-1.000000	-1.000000	-1.000000	-1.000000	-1.000000	146.344828	0.000000	-1.000000	-1.000000	254163.000000	1772311166.443593
-17182.350000	-14451.030000	-18154.935000	-13132.845000	0.000000	0.000000	0.000000	0.000000	5.908996	0.328514	2.369030	-2.005630	0.000000	0.000000	-0.000000	-0.000000	2.639980	0.137340	-0.381500	0.008545	0.981687	-0.063660	-1.000000	-1.000000	-1.000000	-1.000000	-1.000000	-1.000000	-1.000000	146.344828	0.000000	-1.000000	-1.000000	254164.000000	1772311166.443595
-17196.750000	-14440.905000	-18162.765000	-13130.820000	0.000000	0.000000	0.000000	0.000000	-0.077689	-0.087347	-2.604016	-9.519373	0.000000	0.000000	-0.000000	-0.000000	2.639980	0.137340	-0.381500	0.008545	0.981687	-0.063660	-1.000000	-1.000000	-1.000000	-1.000000	-1.000000	-1.000000	-1.000000	146.344828	0.000000	-1.000000	-1.000000	254165.000000	1772311166.447291
-17190.630000	-14462.730000	-18155.970000	-13117.995000	0.000000	0.000000	0.000000	0.000000	-6.480362	2.809703	-5.412331	-11.851374	0.000000	0.000000	-0.000000	-0.000000	2.639980	0.137340	-0.381500	0.008545	0.981687	-0.063660	-1.000000	-1.000000	-1.000000	-1.000000	-1.000000	-1.000000	-1.000000	146.344828	0.000000	-1.000000	-1.000000	254166.000000	1772311166.447295
-17176.320000	-14443.695000	-18142.740000	-13106.295000	0.000000	0.000000	0.000000	0.000000	-9.454156	-0.450284	-5.251265	-7.990091	0.000000	0.000000	-0.000000	-0.000000	2.639980	0.137340	-0.381500	0.008545	0.981687	-0.063660	-1.000000	-1.000000	-1.000000	-1.000000	-1.000000	-1.000000	-1.000000	146.344828	0.000000	-1.000000	-1.000000	254167.000000	1772311166.451151
-17174.520000	-14424.570000	-18149.130000	-13114.440000	0.000000	0.000000	0.000000	0.000000	-6.489446	-11.104960	-2.393974	-0.643959	0.000000	0.000000	-0.000000	-0.000000	2.639980	0.137340	-0.381500	0.008545	0.981687	-0.063660	-1.000000	-1.000000	-1.000000	-1.000000	-1.000000	-1.000000	-1.000000	146.344828	0.000000	-1.000000	-1.000000	254168.000000	1772311166.451155
-17191.395000	-14418.675000	-18166.680000	-13131.585000	0.000000	0.000000	0.000000	0.000000	0.105480	-21.012468	0.649678	4.836070	0.000000	0.000000	-0.000000	-0.000000	2.639980	0.137340	-0.381500	0.008545	0.981687	-0.063660	-1.000000	-1.000000	-1.000000	-1.000000	-1.000000	-1.000000	-1.000000	146.344828	0.000000	-1.000000	-1.000000	254169.000000	1772311166.455666
-17181.630000	-14424.705000	-18156.060000	-13123.485000	0.000000	0.000000	0.000000	0.000000	5.115577	-23.489463	1.084393	4.799603	0.000000	0.000000	-0.000000	-0.000000	2.639980	0.137340	-0.381500	0.008545	0.981687	-0.063660	-1.000000	-1.000000	-1.000000	-1.000000	-1.000000	-1.000000	-1.000000	146.344828	0.000000	-1.000000	-1.000000	254170.000000	1772311166.455669
-17178.615000	-14428.620000	-18149.535000	-13116.915000	0.000000	0.000000	0.000000	0.000000	6.085420	-18.627355	-0.406772	1.008973	0.000000	0.000000	-0.000000	-0.000000	2.426340	0.030520	-0.381500	0.008667	0.980955	-0.062805	-1.000000	-1.000000	-1.000000	-1.000000	-1.000000	-1.000000	-1.000000	146.344828	0.000000	-1.000000	-1.000000	254171.000000	1772311166.459276
-17210.790000	-14433.075000	-18182.295000	-13147.155000	0.000000	0.000000	0.000000	0.000000	3.826854	-10.117114	-1.591552	-2.529269	0.000000	0.000000	-0.000000	-0.000000	2.426340	0.030520	-0.381500	0.008667	0.980955	-0.062805	-1.000000	-1.000000	-1.000000	-1.000000	-1.000000	-1.000000	-1.000000	146.344828	0.000000	-1.000000	-1.000000	254172.000000	1772311166.459279
-17226.720000	-14397.525000	-18201.870000	-13162.950000	0.000000	0.000000	0.000000	0.000000	-0.950467	-0.613543	-2.925778	-4.845417	0.000000	0.000000	-0.000000	-0.000000	2.426340	0.030520	-0.381500	0.008667	0.980955	-0.062805	-1.000000	-1.000000	-1.000000	-1.000000	-1.000000	-1.000000	-1.000000	146.344828	0.000000	-1.000000	-1.000000	254173.000000	1772311166.463202
-17192.025000	-14381.325000	-18167.850000	-13130.505000	0.000000	0.000000	0.000000	0.000000	-5.989678	9.427181	-4.576104	-5.835101	0.000000	0.000000	-0.000000	-0.000000	2.426340	0.030520	-0.381500	0.008667	0.980955	-0.062805	-1.000000	-1.000000	-1.000000	-1.000000	-1.000000	-1.000000	-1.000000	146.344828	0.000000	-1.000000	-1.000000	254174.000000	1772311166.463205
-17183.250000	-14379.570000	-18164.520000	-13127.805000	0.000000	0.000000	0.000000	0.000000	-6.157415	18.364279	-3.108040	-3.048221	0.000000	0.000000	-0.000000	-0.000000	2.426340	0.030520	-0.381500	0.008667	0.980955	-0.062805	-1.000000	-1.000000	-1.000000	-1.000000	-1.000000	-1.000000	-1.000000	146.344828	0.000000	-1.000000	-1.000000	254175.000000	1772311166.467195
-17177.580000	-14365.935000	-18164.745000	-13130.460000	0.000000	0.000000	0.000000	0.000000	0.321663	22.032821	2.967482	3.757591	0.000000	0.000000	-0.000000	-0.000000	2.426340	0.030520	-0.381500	0.008667	0.980955	-0.062805	-1.000000	-1.000000	-1.000000	-1.000000	-1.000000	-1.000000	-1.000000	146.344828	0.000000	-1.000000	-1.000000	254176.000000	1772311166.467198
-17186.580000	-14332.320000	-18168.660000	-13136.535000	0.000000	0.000000	0.000000	0.000000	8.228572	18.552671	9.332357	9.793291	0.000000	0.000000	-0.000000	-0.000000	2.426340	0.030520	-0.381500	0.008667	0.980955	-0.062805	-1.000000	-1.000000	-1.000000	-1.000000	-1.000000	-1.000000	-1.000000	146.344828	0.000000	-1.000000	-1.000000	254177.000000	1772311166.471135
-17196.840000	-14313.420000	-18165.420000	-13137.165000	0.000000	0.000000	0.000000	0.000000	10.711603	10.932508	10.955897	10.410404	0.000000	0.000000	-0.000000	-0.000000	2.426340	0.030520	-0.381500	0.008667	0.980955	-0.062805	-1.000000	-1.000000	-1.000000	-1.000000	-1.000000	-1.000000	-1.000000	146.344828	0.000000	-1.000000	-1.000000	254178.000000	1772311166.471138
-17182.710000	-14324.130000	-18143.460000	-13118.040000	0.000000	0.000000	0.000000	0.000000	5.989139	2.598188	7.466591	5.952419	0.000000	0.000000	-0.000000	-0.000000	2.426340	0.030520	-0.381500	0.008667	0.980955	-0.062805	-1.000000	-1.000000	-1.000000	-1.000000	-1.000000	-1.000000	-1.000000	146.344828	0.000000	-1.000000	-1.000000	254179.000000	1772311166.475212
-17181.855000	-14314.770000	-18150.390000	-13119.120000	0.000000	0.000000	0.000000	0.000000	-1.603370	-5.764982	2.212638	0.509657	0.000000	0.000000	-0.000000	-0.000000	2.426340	0.030520	-0.381500	0.008667	0.980955	-0.062805	-1.000000	-1.000000	-1.000000	-1.000000	-1.000000	-1.000000	-1.000000	146.344828	0.000000	-1.000000	-1.000000	254180.000000	1772311166.475216
-17216.415000	-14309.865000	-18185.715000	-13153.230000	0.000000	0.000000	0.000000	0.000000	-7.352241	-13.257620	-2.966714	-3.554224	0.000000	0.000000	-0.000000	-0.000000	3.906560	-0.091560	-0.228900	0.008301	0.980588	-0.060852	-1.000000	-1.000000	-1.000000	-1.000000	-1.000000	-1.000000	-1.000000	146.344828	0.000000	-1.000000	-1.000000	254181.000000	1772311166.479126
-17222.085000	-14301.090000	-18191.340000	-13162.635000	0.000000	0.000000	0.000000	0.000000	-10.589109	-17.094167	-8.835764	-7.456333	0.000000	0.000000	-0.000000	-0.000000	3.906560	-0.091560	-0.228900	0.008301	0.980588	-0.060852	-1.000000	-1.000000	-1.000000	-1.000000	-1.000000	-1.000000	-1.000000	146.344828	0.000000	-1.000000	-1.000000	254182.000000	1772311166.479129
-17229.375000	-14278.320000	-18200.385000	-13170.015000	0.000000	0.000000	0.000000	0.000000	-11.604418	-15.046636	-14.112578	-11.314975	0.000000	0.000000	-0.000000	-0.000000	3.906560	-0.091560	-0.228900	0.008301	0.980588	-0.060852	-1.000000	-1.000000	-1.000000	-1.000000	-1.000000	-1.000000	-1.000000	146.344828	0.000000	-1.000000	-1.000000	254183.000000	1772311166.483400
-17196.570000	-14250.645000	-18168.435000	-13130.640000	0.000000	0.000000	0.000000	0.000000	-8.541145	-7.186508	-14.311020	-11.406258	0.000000	0.000000	-0.000000	-0.000000	3.906560	-0.091560	-0.228900	0.008301	0.980588	-0.060852	-1.000000	-1.000000	-1.000000	-1.000000	-1.000000	-1.000000	-1.000000	146.344828	0.000000	-1.000000	-1.000000	254184.000000	1772311166.483403
-17182.170000	-14252.400000	-18156.015000	-13121.190000	0.000000	0.000000	0.000000	0.000000	0.184039	3.336299	-6.320192	-4.169037	0.000000	0.000000	-0.000000	-0.000000	3.906560	-0.091560	-0.228900	0.008301	0.980588	-0.060852	-1.000000	-1.000000	-1.000000	-1.000000	-1.000000	-1.000000	-1.000000	146.344828	0.000000	-1.000000	-1.000000	254185.000000	1772311166.487314
-17178.840000	-14261.895000	-18152.955000	-13118.355000	0.000000	0.000000	0.000000	0.000000	11.705509	10.560728	6.928232	7.902411	0.000000	0.000000	-0.000000	-0.000000	3.906560	-0.091560	-0.228900	0.008301	0.980588	-0.060852	-1.000000	-1.000000	-1.000000	-1.000000	-1.000000	-1.000000	-1.000000	146.344828	0.000000	-1.000000	-1.000000	254186.000000	1772311166.487318
-17176.455000	-14259.690000	-18149.355000	-13116.105000	0.000000	0.000000	0.000000	0.000000	19.109558	9.984119	17.453240	16.883762	0.000000	0.000000	-0.000000	-0.000000	3.906560	-0.091560	-0.228900	0.008301	0.980588	-0.060852	-1.000000	-1.000000	-1.000000	-1.000000	-1.000000	-1.000000	-1.000000	146.344828	0.000000	-1.000000	-1.000000	254187.000000	1772311166.491588
-17172.540000	-14247.540000	-18141.570000	-13110.435000	0.000000	0.000000	0.000000	0.000000	17.455115	3.270009	19.089849	16.937126	0.000000	0.000000	-0.000000	-0.000000	3.906560	-0.091560	-0.228900	0.008301	0.980588	-0.060852	-1.000000	-1.000000	-1.000000	-1.000000	-1.000000	-1.000000	-1.000000	146.344828	0.000000	-1.000000	-1.000000	254188.000000	1772311166.491591
-17179.200000	-14232.330000	-18149.085000	-13118.040000	0.000000	0.000000	0.000000	0.000000	7.755098	-3.315042	11.854659	8.685138	0.000000	0.000000	-0.000000	-0.000000	3.906560	-0.091560	-0.228900	0.008301	0.980588	-0.060852	-1.000000	-1.000000	-1.000000	-1.000000	-1.000000	-1.000000	-1.000000	146.344828	0.000000	-1.000000	-1.000000	254189.000000	1772311166.496452
-17203.095000	-14228.730000	-18171.405000	-13140.180000	0.000000	0.000000	0.000000	0.000000	-5.259642	-5.053493	-0.261375	-3.388130	0.000000	0.000000	-0.000000	-0.000000	3.906560	-0.091560	-0.228900	0.008301	0.980588	-0.060852	-1.000000	-1.000000	-1.000000	-1.000000	-1.000000	-1.000000	-1.000000	146.344828	0.000000	-1.000000	-1.000000	254190.000000	1772311166.496461
-17202.285000	-14230.395000	-18174.420000	-13145.985000	0.000000	0.000000	0.000000	0.000000	-16.453820	-2.439618	-12.389342	-14.403226	0.000000	0.000000	-0.000000	-0.000000	3.341940	-0.198380	-0.213640	0.008118	0.981443	-0.062561	-1.000000	-1.000000	-1.000000	-1.000000	-1.000000	-1.000000	-1.000000	146.344828	0.000000	-1.000000	-1.000000	254191.000000	1772311166.501510
-17198.100000	-14204.790000	-18174.240000	-13148.640000	0.000000	0.000000	0.000000	0.000000	-21.147117	1.233502	-19.486034	-19.950742	0.000000	0.000000	-0.000000	-0.000000	3.341940	-0.198380	-0.213640	0.008118	0.981443	-0.062561	-1.000000	-1.000000	-1.000000	-1.000000	-1.000000	-1.000000	-1.000000	146.344828	0.000000	-1.000000	-1.000000	254192.000000	1772311166.501515
-17178.795000	-14169.375000	-18156.330000	-13126.590000	0.000000	0.000000	0.000000	0.000000	-16.536477	4.568451	-17.808462	-16.971834	0.000000	0.000000	-0.000000	-0.000000	3.341940	-0.198380	-0.213640	0.008118	0.981443	-0.062561	-1.000000	-1.000000	-1.000000	-1.000000	-1.000000	-1.000000	-1.000000	146.344828	0.000000	-1.000000	-1.000000	254193.000000	1772311166.504126
-17137.350000	-14159.880000	-18117.180000	-13084.695000	0.000000	0.000000	0.000000	0.000000	-3.665108	7.808625	-7.113698	-5.289554	0.000000	0.000000	-0.000000	-0.000000	3.341940	-0.198380	-0.213640	0.008118	0.981443	-0.062561	-1.000000	-1.000000	-1.000000	-1.000000	-1.000000	-1.000000	-1.000000	146.344828	0.000000	-1.000000	-1.000000	254194.000000	1772311166.504154
-17119.800000	-14194.305000	-18101.340000	-13076.955000	0.000000	0.000000	0.000000	0.000000	12.459324	8.526344	8.514751	10.985310	0.000000	0.000000	-0.000000	-0.000000	3.341940	-0.198380	-0.213640	0.008118	0.981443	-0.062561	-1.000000	-1.000000	-1.000000	-1.000000	-1.000000	-1.000000	-1.000000	146.344828	0.000000	-1.000000	-1.000000	254195.000000	1772311166.507301
-17189.280000	-14258.160000	-18172.215000	-13140.855000	0.000000	0.000000	0.000000	0.000000	22.643199	1.668830	19.871484	22.192362	0.000000	0.000000	-0.000000	-0.000000	3.341940	-0.198380	-0.213640	0.008118	0.981443	-0.062561	-1.000000	-1.000000	-1.000000	-1.000000	-1.000000	-1.000000	-1.000000	146.344828	0.000000	-1.000000	-1.000000	254196.000000	1772311166.507306
-17205.705000	-14267.340000	-18180.765000	-13136.625000	0.000000	0.000000	0.000000	0.000000	17.620099	-13.192287	17.088088	18.760338	0.000000	0.000000	-0.000000	-0.000000	3.341940	-0.198380	-0.213640	0.008118	0.981443	-0.062561	-1.000000	-1.000000	-1.000000	-1.000000	-1.000000	-1.000000	-1.000000	146.344828	0.000000	-1.000000	-1.000000	254197.000000	1772311166.511429
-17165.880000	-14226.705000	-18136.215000	-13099.230000	0.000000	0.000000	0.000000	0.000000	-0.213669	-25.959803	1.944570	3.359183	0.000000	0.000000	-0.000000	-0.000000	3.341940	-0.198380	-0.213640	0.008118	0.981443	-0.062561	-1.000000	-1.000000	-1.000000	-1.000000	-1.000000	-1.000000	-1.000000	146.344828	0.000000	-1.000000	-1.000000	254198.000000	1772311166.511443
-17201.880000	-14241.420000	-18168.075000	-13130.820000	0.000000	0.000000	0.000000	0.000000	-16.378960	-23.886491	-11.880394	-10.722770	0.000000	0.000000	-0.000000	-0.000000	3.341940	-0.198380	-0.213640	0.008118	0.981443	-0.062561	-1.000000	-1.000000	-1.000000	-1.000000	-1.000000	-1.000000	-1.000000	146.344828	0.000000	-1.000000	-1.000000	254199.000000	1772311166.515329
-17213.355000	-14268.375000	-18184.815000	-13147.065000	0.000000	0.000000	0.000000	0.000000	-20.918073	-6.951494	-15.663535	-15.738522	0.000000	0.000000	-0.000000	-0.000000	3.341940	-0.198380	-0.213640	0.008118	0.981443	-0.062561	-1.000000	-1.000000	-1.000000	-1.000000	-1.000000	-1.000000	-1.000000	146.344828	0.000000	-1.000000	-1.000000	254200.000000	1772311166.515332
-17206.650000	-14295.645000	-18190.215000	-13154.805000	0.000000	0.000000	0.000000	0.000000	-15.136798	11.727712	-11.831352	-13.834220	0.000000	0.000000	-0.000000	-0.000000	0.976640	-0.289940	-0.427280	0.008789	0.981565	-0.066345	-1.000000	-1.000000	-1.000000	-1.000000	-1.000000	-1.000000	-1.000000	146.344828	0.000000	-1.000000	-1.000000	254201.000000	1772311166.519365
-17199.315000	-14297.355000	-18178.290000	-13142.880000	0.000000	0.000000	0.000000	0.000000	-3.851066	20.663951	-4.849671	-8.377183	0.000000	0.000000	-0.000000	-0.000000	0.976640	-0.289940	-0.427280	0.008789	0.981565	-0.066345	-1.000000	-1.000000	-1.000000	-1.000000	-1.000000	-1.000000	-1.000000	146.344828	0.000000	-1.000000	-1.000000	254202.000000	1772311166.519369
-17197.605000	-14292.630000	-18160.920000	-13123.845000	0.000000	0.000000	0.000000	0.000000	8.413964	19.225729	3.569018	-0.224103	0.000000	0.000000	-0.000000	-0.000000	0.976640	-0.289940	-0.427280	0.008789	0.981565	-0.066345	-1.000000	-1.000000	-1.000000	-1.000000	-1.000000	-1.000000	-1.000000	146.344828	0.000000	-1.000000	-1.000000	254203.000000	1772311166.526089
-17179.470000	-14270.715000	-18150.210000	-13118.895000	0.000000	0.000000	0.000000	0.000000	17.263613	13.988433	12.047358	9.360358	0.000000	0.000000	-0.000000	-0.000000	0.976640	-0.289940	-0.427280	0.008789	0.981565	-0.066345	-1.000000	-1.000000	-1.000000	-1.000000	-1.000000	-1.000000	-1.000000	146.344828	0.000000	-1.000000	-1.000000	254204.000000	1772311166.526104
-17208.405000	-14245.605000	-18181.080000	-13146.255000	0.000000	0.000000	0.000000	0.000000	19.436807	10.907516	16.900261	16.003137	0.000000	0.000000	-0.000000	-0.000000	0.976640	-0.289940	-0.427280	0.008789	0.981565	-0.066345	-1.000000	-1.000000	-1.000000	-1.000000	-1.000000	-1.000000	-1.000000	146.344828	0.000000	-1.000000	-1.000000	254205.000000	1772311166.527453
-17213.355000	-14216.490000	-18187.020000	-13149.135000	0.000000	0.000000	0.000000	0.000000	13.524143	11.191422	13.775741	14.680009	0.000000	0.000000	-0.000000	-0.000000	0.976640	-0.289940	-0.427280	0.008789	0.981565	-0.066345	-1.000000	-1.000000	-1.000000	-1.000000	-1.000000	-1.000000	-1.000000	146.344828	0.000000	-1.000000	-1.000000	254206.000000	1772311166.527466
-17188.155000	-14216.355000	-18161.775000	-13125.645000	0.000000	0.000000	0.000000	0.000000	2.377384	11.557729	3.743403	6.148013	0.000000	0.000000	-0.000000	-0.000000	0.976640	-0.289940	-0.427280	0.008789	0.981565	-0.066345	-1.000000	-1.000000	-1.000000	-1.000000	-1.000000	-1.000000	-1.000000	146.344828	0.000000	-1.000000	-1.000000	254207.000000	1772311166.531405
-17172.495000	-14203.800000	-18147.600000	-13112.685000	0.000000	0.000000	0.000000	0.000000	-6.631978	7.471081	-5.574554	-2.466025	0.000000	0.000000	-0.000000	-0.000000	0.976640	-0.289940	-0.427280	0.008789	0.981565	-0.066345	-1.000000	-1.000000	-1.000000	-1.000000	-1.000000	-1.000000	-1.000000	146.344828	0.000000	-1.000000	-1.000000	254208.000000	1772311166.531411
-17161.605000	-14203.530000	-18140.355000	-13106.205000	0.000000	0.000000	0.000000	0.000000	-8.294746	-2.275805	-8.056885	-5.474794	0.000000	0.000000	-0.000000	-0.000000	0.976640	-0.289940	-0.427280	0.008789	0.981565	-0.066345	-1.000000	-1.000000	-1.000000	-1.000000	-1.000000	-1.000000	-1.000000	146.344828	0.000000	-1.000000	-1.000000	254209.000000	1772311166.540477
-17162.595000	-14194.305000	-18143.550000	-13109.490000	0.000000	0.000000	0.000000	0.000000	-4.413243	-14.043863	-4.892892	-3.772214	0.000000	0.000000	-0.000000	-0.000000	0.976640	-0.289940	-0.427280	0.008789	0.981565	-0.066345	-1.000000	-1.000000	-1.000000	-1.000000	-1.000000	-1.000000	-1.000000	146.344828	0.000000	-1.000000	-1.000000	254210.000000	1772311166.540481
-17155.620000	-14171.355000	-18136.215000	-13105.080000	0.000000	0.000000	0.000000	0.000000	-0.452568	-21.959403	-1.221043	-1.703465	0.000000	0.000000	-0.000000	-0.000000	-0.091560	-0.473060	-0.961380	0.009216	0.982053	-0.066406	-1.000000	-1.000000	-1.000000	-1.000000	-1.000000	-1.000000	-1.000000	146.344828	0.000000	-1.000000	-1.000000	254211.000000	1772311166.540490
-17163.585000	-14201.055000	-18144.585000	-13111.560000	0.000000	0.000000	0.000000	0.000000	-0.013675	-22.509356	-0.423273	-1.970926	0.000000	0.000000	-0.000000	-0.000000	-0.091560	-0.473060	-0.961380	0.009216	0.982053	-0.066406	-1.000000	-1.000000	-1.000000	-1.000000	-1.000000	-1.000000	-1.000000	146.344828	0.000000	-1.000000	-1.000000	254212.000000	1772311166.540494
-17162.865000	-14229.765000	-18140.895000	-13103.505000	0.000000	0.000000	0.000000	0.000000	-3.004592	-18.084922	-2.455787	-4.084278	0.000000	0.000000	-0.000000	-0.000000	-0.091560	-0.473060	-0.961380	0.009216	0.982053	-0.066406	-1.000000	-1.000000	-1.000000	-1.000000	-1.000000	-1.000000	-1.000000	146.344828	0.000000	-1.000000	-1.000000	254213.000000	1772311166.543457
-17107.290000	-14264.190000	-18082.890000	-13054.320000	0.000000	0.000000	0.000000	0.000000	-5.818865	-13.841756	-4.072081	-4.883150	0.000000	0.000000	-0.000000	-0.000000	-0.091560	-0.473060	-0.961380	0.009216	0.982053	-0.066406	-1.000000	-1.000000	-1.000000	-1.000000	-1.000000	-1.000000	-1.000000	146.344828	0.000000	-1.000000	-1.000000	254214.000000	1772311166.543505
-17180.955000	-14309.820000	-18157.140000	-13132.845000	0.000000	0.000000	0.000000	0.000000	-5.185661	-11.763992	-2.574989	-2.666586	0.000000	0.000000	-0.000000	-0.000000	-0.091560	-0.473060	-0.961380	0.009216	0.982053	-0.066406	-1.000000	-1.000000	-1.000000	-1.000000	-1.000000	-1.000000	-1.000000	146.344828	0.000000	-1.000000	-1.000000	254215.000000	1772311166.547367
-17249.805000	-14328.495000	-18227.295000	-13186.665000	0.000000	0.000000	0.000000	0.000000	-5.110767	-9.809818	-2.605427	-2.589302	0.000000	0.000000	-0.000000	-0.000000	-0.091560	-0.473060	-0.961380	0.009216	0.982053	-0.066406	-1.000000	-1.000000	-1.000000	-1.000000	-1.000000	-1.000000	-1.000000	146.344828	0.000000	-1.000000	-1.000000	254216.000000	1772311166.547371
-17192.790000	-14329.350000	-18169.020000	-13123.440000	0.000000	0.000000	0.000000	0.000000	-9.958218	-4.113572	-8.708532	-8.107908	0.000000	0.000000	-0.000000	-0.000000	-0.091560	-0.473060	-0.961380	0.009216	0.982053	-0.066406	-1.000000	-1.000000	-1.000000	-1.000000	-1.000000	-1.000000	-1.000000	146.344828	0.000000	-1.000000	-1.000000	254217.000000	1772311166.551471
-17184.645000	-14296.095000	-18165.150000	-13125.105000	0.000000	0.000000	0.000000	0.000000	-12.461728	8.149441	-13.075149	-10.953744	0.000000	0.000000	-0.000000	-0.000000	-0.091560	-0.473060	-0.961380	0.009216	0.982053	-0.066406	-1.000000	-1.000000	-1.000000	-1.000000	-1.000000	-1.000000	-1.000000	146.344828	0.000000	-1.000000	-1.000000	254218.000000	1772311166.551484
-17174.430000	-14271.615000	-18157.815000	-13125.915000	0.000000	0.000000	0.000000	0.000000	-3.841425	25.439146	-6.180639	-3.388437	0.000000	0.000000	-0.000000	-0.000000	-0.091560	-0.473060	-0.961380	0.009216	0.982053	-0.066406	-1.000000	-1.000000	-1.000000	-1.000000	-1.000000	-1.000000	-1.000000	146.344828	0.000000	-1.000000	-1.000000	254219.000000	1772311166.556836
-17159.805000	-14260.500000	-18142.605000	-13110.930000	0.000000	0.000000	0.000000	0.000000	12.316957	40.493323	8.988104	10.012730	0.000000	0.000000	-0.000000	-0.000000	-0.091560	-0.473060	-0.961380	0.009216	0.982053	-0.066406	-1.000000	-1.000000	-1.000000	-1.000000	-1.000000	-1.000000	-1.000000	146.344828	0.000000	-1.000000	-1.000000	254220.000000	1772311166.556842
-17160.570000	-14199.930000	-18138.555000	-13104.315000	0.000000	0.000000	0.000000	0.000000	25.131762	44.900716	22.123608	20.007576	0.000000	0.000000	-0.000000	-0.000000	0.473060	-0.717220	-0.793520	0.009277	0.981565	-0.063537	-1.000000	-1.000000	-1.000000	-1.000000	-1.000000	-1.000000	-1.000000	146.344828	0.000000	-1.000000	-1.000000	254221.000000	1772311166.559635
-17210.340000	-14203.395000	-18190.215000	-13150.665000	0.000000	0.000000	0.000000	0.000000	25.793413	35.762197	24.539161	20.543437	0.000000	0.000000	-0.000000	-0.000000	0.473060	-0.717220	-0.793520	0.009277	0.981565	-0.063537	-1.000000	-1.000000	-1.000000	-1.000000	-1.000000	-1.000000	-1.000000	146.344828	0.000000	-1.000000	-1.000000	254222.000000	1772311166.559647
-17215.515000	-14245.605000	-18194.805000	-13159.620000	0.000000	0.000000	0.000000	0.000000	12.251676	14.612302	13.279352	10.044069	0.000000	0.000000	-0.000000	-0.000000	0.473060	-0.717220	-0.793520	0.009277	0.981565	-0.063537	-1.000000	-1.000000	-1.000000	-1.000000	-1.000000	-1.000000	-1.000000	146.344828	0.000000	-1.000000	-1.000000	254223.000000	1772311166.564032
-17198.145000	-14319.945000	-18173.970000	-13140.090000	0.000000	0.000000	0.000000	0.000000	-7.542876	-15.754184	-4.952619	-5.838210	0.000000	0.000000	-0.000000	-0.000000	0.473060	-0.717220	-0.793520	0.009277	0.981565	-0.063537	-1.000000	-1.000000	-1.000000	-1.000000	-1.000000	-1.000000	-1.000000	146.344828	0.000000	-1.000000	-1.000000	254224.000000	1772311166.564038
-17166.915000	-14304.870000	-18146.970000	-13107.330000	0.000000	0.000000	0.000000	0.000000	-19.823321	-46.900047	-16.973814	-15.755761	0.000000	0.000000	-0.000000	-0.000000	0.473060	-0.717220	-0.793520	0.009277	0.981565	-0.063537	-1.000000	-1.000000	-1.000000	-1.000000	-1.000000	-1.000000	-1.000000	146.344828	0.000000	-1.000000	-1.000000	254225.000000	1772311166.567786
-17141.040000	-14285.295000	-18134.145000	-13089.645000	0.000000	0.000000	0.000000	0.000000	-16.633565	-62.670355	-15.021875	-12.597650	0.000000	0.000000	-0.000000	-0.000000	0.473060	-0.717220	-0.793520	0.009277	0.981565	-0.063537	-1.000000	-1.000000	-1.000000	-1.000000	-1.000000	-1.000000	-1.000000	146.344828	0.000000	-1.000000	-1.000000	254226.000000	1772311166.567789
-17145.360000	-14294.205000	-18141.705000	-13103.100000	0.000000	0.000000	0.000000	0.000000	-2.429481	-51.462655	-3.435061	-0.616323	0.000000	0.000000	-0.000000	-0.000000	0.473060	-0.717220	-0.793520	0.009277	0.981565	-0.063537	-1.000000	-1.000000	-1.000000	-1.000000	-1.000000	-1.000000	-1.000000	146.344828	0.000000	-1.000000	-1.000000	254227.000000	1772311166.571476
-17148.825000	-14286.600000	-18117.855000	-13080.465000	0.000000	0.000000	0.000000	0.000000	10.529345	-19.112893	7.346345	9.448539	0.000000	0.000000	-0.000000	-0.000000	0.473060	-0.717220	-0.793520	0.009277	0.981565	-0.063537	-1.000000	-1.000000	-1.000000	-1.000000	-1.000000	-1.000000	-1.000000	146.344828	0.000000	-1.000000	-1.000000	254228.000000	1772311166.571480
-17131.410000	-14271.885000	-18098.730000	-13057.605000	0.000000	0.000000	0.000000	0.000000	13.264529	16.671161	11.166997	11.492239	0.000000	0.000000	-0.000000	-0.000000	0.473060	-0.717220	-0.793520	0.009277	0.981565	-0.063537	-1.000000	-1.000000	-1.000000	-1.000000	-1.000000	-1.000000	-1.000000	146.344828	0.000000	-1.000000	-1.000000	254229.000000	1772311166.575447
-17180.280000	-14280.930000	-18148.590000	-13100.805000	0.000000	0.000000	0.000000	0.000000	5.657923	40.211816	7.669831	6.377252	0.000000	0.000000	-0.000000	-0.000000	0.473060	-0.717220	-0.793520	0.009277	0.981565	-0.063537	-1.000000	-1.000000	-1.000000	-1.000000	-1.000000	-1.000000	-1.000000	146.344828	0.000000	-1.000000	-1.000000	254230.000000	1772311166.575451
-17207.010000	-14240.295000	-18175.590000	-13125.330000	0.000000	0.000000	0.000000	0.000000	-7.766168	45.109792	-2.478951	-3.981088	0.000000	0.000000	-0.000000	-0.000000	2.273740	-0.869820	-0.854560	0.008423	0.980832	-0.059936	-1.000000	-1.000000	-1.000000	-1.000000	-1.000000	-1.000000	-1.000000	146.344828	0.000000	-1.000000	-1.000000	254231.000000	1772311166.579850
-17180.505000	-14213.115000	-18157.860000	-13136.265000	0.000000	0.000000	0.000000	0.000000	-20.062775	35.266041	-15.434531	-16.416870	0.000000	0.000000	-0.000000	-0.000000	2.273740	-0.869820	-0.854560	0.008423	0.980832	-0.059936	-1.000000	-1.000000	-1.000000	-1.000000	-1.000000	-1.000000	-1.000000	146.344828	0.000000	-1.000000	-1.000000	254232.000000	1772311166.579855
-17187.255000	-14221.755000	-18171.540000	-13162.140000	0.000000	0.000000	0.000000	0.000000	-22.565981	18.916449	-22.357872	-24.393515	0.000000	0.000000	-0.000000	-0.000000	2.273740	-0.869820	-0.854560	0.008423	0.980832	-0.059936	-1.000000	-1.000000	-1.000000	-1.000000	-1.000000	-1.000000	-1.000000	146.344828	0.000000	-1.000000	-1.000000	254233.000000	1772311166.583488
-17173.800000	-14214.195000	-18166.590000	-13144.860000	0.000000	0.000000	0.000000	0.000000	-12.240278	1.260339	-17.621401	-22.322323	0.000000	0.000000	-0.000000	-0.000000	2.273740	-0.869820	-0.854560	0.008423	0.980832	-0.059936	-1.000000	-1.000000	-1.000000	-1.000000	-1.000000	-1.000000	-1.000000	146.344828	0.000000	-1.000000	-1.000000	254234.000000	1772311166.583492
-17167.770000	-14244.120000	-18162.315000	-13119.930000	0.000000	0.000000	0.000000	0.000000	4.869551	-15.258911	-4.070634	-9.128836	0.000000	0.000000	-0.000000	-0.000000	2.273740	-0.869820	-0.854560	0.008423	0.980832	-0.059936	-1.000000	-1.000000	-1.000000	-1.000000	-1.000000	-1.000000	-1.000000	146.344828	0.000000	-1.000000	-1.000000	254235.000000	1772311166.587541
-17172.225000	-14288.265000	-18151.020000	-13111.920000	0.000000	0.000000	0.000000	0.000000	19.241805	-28.684914	11.123156	10.841232	0.000000	0.000000	-0.000000	-0.000000	2.273740	-0.869820	-0.854560	0.008423	0.980832	-0.059936	-1.000000	-1.000000	-1.000000	-1.000000	-1.000000	-1.000000	-1.000000	146.344828	0.000000	-1.000000	-1.000000	254236.000000	1772311166.587545
-17177.580000	-14310.450000	-18143.280000	-13114.755000	0.000000	0.000000	0.000000	0.000000	23.877889	-36.889776	21.501465	28.064220	0.000000	0.000000	-0.000000	-0.000000	2.273740	-0.869820	-0.854560	0.008423	0.980832	-0.059936	-1.000000	-1.000000	-1.000000	-1.000000	-1.000000	-1.000000	-1.000000	146.344828	0.000000	-1.000000	-1.000000	254237.000000	1772311166.591498
-17177.580000	-14315.445000	-18134.775000	-13118.175000	0.000000	0.000000	0.000000	0.000000	17.708560	-36.229425	23.693466	33.150815	0.000000	0.000000	-0.000000	-0.000000	2.273740	-0.869820	-0.854560	0.008423	0.980832	-0.059936	-1.000000	-1.000000	-1.000000	-1.000000	-1.000000	-1.000000	-1.000000	146.344828	0.000000	-1.000000	-1.000000	254238.000000	1772311166.591501
-17173.575000	-14349.510000	-18133.290000	-13115.925000	0.000000	0.000000	0.000000	0.000000	5.624500	-24.271532	17.894861	23.906750	0.000000	0.000000	-0.000000	-0.000000	2.273740	-0.869820	-0.854560	0.008423	0.980832	-0.059936	-1.000000	-1.000000	-1.000000	-1.000000	-1.000000	-1.000000	-1.000000	146.344828	0.000000	-1.000000	-1.000000	254239.000000	1772311166.595535
-17166.330000	-14391.990000	-18130.770000	-13106.745000	0.000000	0.000000	0.000000	0.000000	-5.365100	-5.168798	7.014704	6.556514	0.000000	0.000000	-0.000000	-0.000000	2.273740	-0.869820	-0.854560	0.008423	0.980832	-0.059936	-1.000000	-1.000000	-1.000000	-1.000000	-1.000000	-1.000000	-1.000000	146.344828	0.000000	-1.000000	-1.000000	254240.000000	1772311166.595538
-17160.615000	-14389.110000	-18133.470000	-13100.670000	0.000000	0.000000	0.000000	0.000000	-10.607851	12.778235	-4.770745	-9.437169	0.000000	0.000000	-0.000000	-0.000000	4.333840	-0.625660	-0.335720	0.007629	0.979978	-0.057739	-1.000000	-1.000000	-1.000000	-1.000000	-1.000000	-1.000000	-1.000000	146.344828	0.000000	-1.000000	-1.000000	254241.000000	1772311166.599720
-17149.590000	-14407.515000	-18129.555000	-13087.755000	0.000000	0.000000	0.000000	0.000000	-9.620076	24.653209	-13.538564	-17.579376	0.000000	0.000000	-0.000000	-0.000000	4.333840	-0.625660	-0.335720	0.007629	0.979978	-0.057739	-1.000000	-1.000000	-1.000000	-1.000000	-1.000000	-1.000000	-1.000000	146.344828	0.000000	-1.000000	-1.000000	254242.000000	1772311166.599724
-17151.975000	-14422.680000	-18130.140000	-13085.865000	0.000000	0.000000	0.000000	0.000000	-5.086495	29.578173	-16.852115	-16.953771	0.000000	0.000000	-0.000000	-0.000000	4.333840	-0.625660	-0.335720	0.007629	0.979978	-0.057739	-1.000000	-1.000000	-1.000000	-1.000000	-1.000000	-1.000000	-1.000000	146.344828	0.000000	-1.000000	-1.000000	254243.000000	1772311166.603555
-17164.755000	-14438.475000	-18133.830000	-13092.525000	0.000000	0.000000	0.000000	0.000000	-1.007236	27.513768	-14.640958	-11.218484	0.000000	0.000000	-0.000000	-0.000000	4.333840	-0.625660	-0.335720	0.007629	0.979978	-0.057739	-1.000000	-1.000000	-1.000000	-1.000000	-1.000000	-1.000000	-1.000000	146.344828	0.000000	-1.000000	-1.000000	254244.000000	1772311166.603562
-17175.465000	-14449.050000	-18136.620000	-13097.610000	0.000000	0.000000	0.000000	0.000000	-0.413047	19.580390	-9.031767	-5.426100	0.000000	0.000000	-0.000000	-0.000000	4.333840	-0.625660	-0.335720	0.007629	0.979978	-0.057739	-1.000000	-1.000000	-1.000000	-1.000000	-1.000000	-1.000000	-1.000000	146.344828	0.000000	-1.000000	-1.000000	254245.000000	1772311166.609051
-17158.140000	-14462.910000	-18127.620000	-13095.405000	0.000000	0.000000	0.000000	0.000000	-2.687615	8.750511	-2.560482	-2.278824	0.000000	0.000000	-0.000000	-0.000000	4.333840	-0.625660	-0.335720	0.007629	0.979978	-0.057739	-1.000000	-1.000000	-1.000000	-1.000000	-1.000000	-1.000000	-1.000000	146.344828	0.000000	-1.000000	-1.000000	254246.000000	1772311166.609065
-17150.850000	-14444.775000	-18119.385000	-13091.940000	0.000000	0.000000	0.000000	0.000000	-3.846783	-0.979773	3.385227	-0.986657	0.000000	0.000000	-0.000000	-0.000000	4.333840	-0.625660	-0.335720	0.007629	0.979978	-0.057739	-1.000000	-1.000000	-1.000000	-1.000000	-1.000000	-1.000000	-1.000000	146.344828	0.000000	-1.000000	-1.000000	254247.000000	1772311166.611671
-17172.225000	-14422.545000	-18134.415000	-13105.125000	0.000000	0.000000	0.000000	0.000000	-1.663256	-5.674713	7.683532	0.177477	0.000000	0.000000	-0.000000	-0.000000	4.333840	-0.625660	-0.335720	0.007629	0.979978	-0.057739	-1.000000	-1.000000	-1.000000	-1.000000	-1.000000	-1.000000	-1.000000	146.344828	0.000000	-1.000000	-1.000000	254248.000000	1772311166.611676
-17202.240000	-14414.130000	-18167.760000	-13136.715000	0.000000	0.000000	0.000000	0.000000	0.905651	-4.121431	8.002171	0.876657	0.000000	0.000000	-0.000000	-0.000000	4.333840	-0.625660	-0.335720	0.007629	0.979978	-0.057739	-1.000000	-1.000000	-1.000000	-1.000000	-1.000000	-1.000000	-1.000000	146.344828	0.000000	-1.000000	-1.000000	254249.000000	1772311166.615585
-17208.270000	-14403.060000	-18177.165000	-13148.910000	0.000000	0.000000	0.000000	0.000000	0.118833	0.233730	2.938449	-0.398043	0.000000	0.000000	-0.000000	-0.000000	4.333840	-0.625660	-0.335720	0.007629	0.979978	-0.057739	-1.000000	-1.000000	-1.000000	-1.000000	-1.000000	-1.000000	-1.000000	146.344828	0.000000	-1.000000	-1.000000	254250.000000	1772311166.615589
-17205.390000	-14373.945000	-18175.320000	-13147.920000	0.000000	0.000000	0.000000	0.000000	-2.729457	2.677980	-4.250040	-2.611966	0.000000	0.000000	-0.000000	-0.000000	5.463080	-0.244160	0.320460	0.007385	0.979795	-0.058105	-1.000000	-1.000000	-1.000000	-1.000000	-1.000000	-1.000000	-1.000000	146.344828	0.000000	-1.000000	-1.000000	254251.000000	1772311166.619658
-17195.400000	-14341.770000	-18164.340000	-13139.820000	0.000000	0.000000	0.000000	0.000000	-2.880114	1.959982	-7.292094	-2.098262	0.000000	0.000000	-0.000000	-0.000000	5.463080	-0.244160	0.320460	0.007385	0.979795	-0.058105	-1.000000	-1.000000	-1.000000	-1.000000	-1.000000	-1.000000	-1.000000	146.344828	0.000000	-1.000000	-1.000000	254252.000000	1772311166.619662
-17168.940000	-14291.055000	-18143.055000	-13110.480000	0.000000	0.000000	0.000000	0.000000	2.309188	0.210928	-2.732608	3.480735	0.000000	0.000000	-0.000000	-0.000000	5.463080	-0.244160	0.320460	0.007385	0.979795	-0.058105	-1.000000	-1.000000	-1.000000	-1.000000	-1.000000	-1.000000	-1.000000	146.344828	0.000000	-1.000000	-1.000000	254253.000000	1772311166.623691
-17149.140000	-14268.960000	-18123.165000	-13089.510000	0.000000	0.000000	0.000000	0.000000	11.046003	-0.646500	7.271689	12.632725	0.000000	0.000000	-0.000000	-0.000000	5.463080	-0.244160	0.320460	0.007385	0.979795	-0.058105	-1.000000	-1.000000	-1.000000	-1.000000	-1.000000	-1.000000	-1.000000	146.344828	0.000000	-1.000000	-1.000000	254254.000000	1772311166.623695
-17176.680000	-14266.890000	-18146.520000	-13119.390000	0.000000	0.000000	0.000000	0.000000	17.578794	-1.936935	16.064004	19.640718	0.000000	0.000000	-0.000000	-0.000000	5.463080	-0.244160	0.320460	0.007385	0.979795	-0.058105	-1.000000	-1.000000	-1.000000	-1.000000	-1.000000	-1.000000	-1.000000	146.344828	0.000000	-1.000000	-1.000000	254255.000000	1772311166.628082
-17220.105000	-14255.730000	-18180.855000	-13155.345000	0.000000	0.000000	0.000000	0.000000	14.680930	-6.600787	15.866161	16.909961	0.000000	0.000000	-0.000000	-0.000000	5.463080	-0.244160	0.320460	0.007385	0.979795	-0.058105	-1.000000	-1.000000	-1.000000	-1.000000	-1.000000	-1.000000	-1.000000	146.344828	0.000000	-1.000000	-1.000000	254256.000000	1772311166.628086
-17190.900000	-14248.035000	-18140.310000	-13110.750000	0.000000	0.000000	0.000000	0.000000	1.135011	-14.212585	5.133210	3.368081	0.000000	0.000000	-0.000000	-0.000000	5.463080	-0.244160	0.320460	0.007385	0.979795	-0.058105	-1.000000	-1.000000	-1.000000	-1.000000	-1.000000	-1.000000	-1.000000	146.344828	0.000000	-1.000000	-1.000000	254257.000000	1772311166.633489
-17179.650000	-14233.320000	-18126.045000	-13085.010000	0.000000	0.000000	0.000000	0.000000	-13.571162	-20.203215	-7.433588	-10.776171	0.000000	0.000000	-0.000000	-0.000000	5.463080	-0.244160	0.320460	0.007385	0.979795	-0.058105	-1.000000	-1.000000	-1.000000	-1.000000	-1.000000	-1.000000	-1.000000	146.344828	0.000000	-1.000000	-1.000000	254258.000000	1772311166.633492
-17188.470000	-14243.940000	-18133.830000	-13080.645000	0.000000	0.000000	0.000000	0.000000	-18.630901	-20.468218	-12.382619	-14.747227	0.000000	0.000000	-0.000000	-0.000000	5.463080	-0.244160	0.320460	0.007385	0.979795	-0.058105	-1.000000	-1.000000	-1.000000	-1.000000	-1.000000	-1.000000	-1.000000	146.344828	0.000000	-1.000000	-1.000000	254259.000000	1772311166.635372
-17182.350000	-14254.245000	-18126.540000	-13068.720000	0.000000	0.000000	0.000000	0.000000	-13.037256	-15.213401	-9.506644	-8.842805	0.000000	0.000000	-0.000000	-0.000000	5.463080	-0.244160	0.320460	0.007385	0.979795	-0.058105	-1.000000	-1.000000	-1.000000	-1.000000	-1.000000	-1.000000	-1.000000	146.344828	0.000000	-1.000000	-1.000000	254260.000000	1772311166.635376
-17180.370000	-14251.995000	-18121.500000	-13062.150000	0.000000	0.000000	0.000000	0.000000	-3.062833	-7.510227	-4.121451	-0.776925	0.000000	0.000000	-0.000000	-0.000000	4.684820	-0.396760	0.091560	0.007996	0.979856	-0.062317	-1.000000	-1.000000	-1.000000	-1.000000	-1.000000	-1.000000	-1.000000	146.344828	0.000000	-1.000000	-1.000000	254261.000000	1772311166.641124
-17185.770000	-14247.450000	-18142.020000	-13114.215000	0.000000	0.000000	0.000000	0.000000	5.092684	0.550685	-0.478809	2.307022	0.000000	0.000000	-0.000000	-0.000000	4.684820	-0.396760	0.091560	0.007996	0.979856	-0.062317	-1.000000	-1.000000	-1.000000	-1.000000	-1.000000	-1.000000	-1.000000	146.344828	0.000000	-1.000000	-1.000000	254262.000000	1772311166.641127
-17178.885000	-14261.940000	-18133.200000	-13099.725000	0.000000	0.000000	0.000000	0.000000	8.304957	7.945322	-0.284506	-2.343364	0.000000	0.000000	-0.000000	-0.000000	4.684820	-0.396760	0.091560	0.007996	0.979856	-0.062317	-1.000000	-1.000000	-1.000000	-1.000000	-1.000000	-1.000000	-1.000000	146.344828	0.000000	-1.000000	-1.000000	254263.000000	1772311166.643692
-17184.555000	-14258.700000	-18134.775000	-13095.270000	0.000000	0.000000	0.000000	0.000000	6.879264	12.993611	-2.116688	-10.071656	0.000000	0.000000	-0.000000	-0.000000	4.684820	-0.396760	0.091560	0.007996	0.979856	-0.062317	-1.000000	-1.000000	-1.000000	-1.000000	-1.000000	-1.000000	-1.000000	146.344828	0.000000	-1.000000	-1.000000	254264.000000	1772311166.643695
-17187.345000	-14225.895000	-18166.770000	-13157.235000	0.000000	0.000000	0.000000	0.000000	2.987179	15.125116	-3.549659	-13.733870	0.000000	0.000000	-0.000000	-0.000000	4.684820	-0.396760	0.091560	0.007996	0.979856	-0.062317	-1.000000	-1.000000	-1.000000	-1.000000	-1.000000	-1.000000	-1.000000	146.344828	0.000000	-1.000000	-1.000000	254265.000000	1772311166.653097
-17177.355000	-14205.330000	-18163.575000	-13164.390000	0.000000	0.000000	0.000000	0.000000	-0.971152	16.170337	-4.145399	-12.340880	0.000000	0.000000	-0.000000	-0.000000	4.684820	-0.396760	0.091560	0.007996	0.979856	-0.062317	-1.000000	-1.000000	-1.000000	-1.000000	-1.000000	-1.000000	-1.000000	146.344828	0.000000	-1.000000	-1.000000	254266.000000	1772311166.653101
-17162.325000	-14203.845000	-18147.600000	-13140.495000	0.000000	0.000000	0.000000	0.000000	-2.673674	16.670129	-3.270763	-7.358465	0.000000	0.000000	-0.000000	-0.000000	4.684820	-0.396760	0.091560	0.007996	0.979856	-0.062317	-1.000000	-1.000000	-1.000000	-1.000000	-1.000000	-1.000000	-1.000000	146.344828	0.000000	-1.000000	-1.000000	254267.000000	1772311166.653105
-17142.030000	-14207.670000	-18126.495000	-13123.440000	0.000000	0.000000	0.000000	0.000000	-0.868620	13.751193	1.153540	2.530616	0.000000	0.000000	-0.000000	-0.000000	4.684820	-0.396760	0.091560	0.007996	0.979856	-0.062317	-1.000000	-1.000000	-1.000000	-1.000000	-1.000000	-1.000000	-1.000000	146.344828	0.000000	-1.000000	-1.000000	254268.000000	1772311166.653107
-17142.570000	-14217.705000	-18124.695000	-13128.930000	0.000000	0.000000	0.000000	0.000000	3.059388	5.047817	8.674913	15.911512	0.000000	0.000000	-0.000000	-0.000000	4.684820	-0.396760	0.091560	0.007996	0.979856	-0.062317	-1.000000	-1.000000	-1.000000	-1.000000	-1.000000	-1.000000	-1.000000	146.344828	0.000000	-1.000000	-1.000000	254269.000000	1772311166.655705
-17185.590000	-14199.975000	-18162.225000	-13147.245000	0.000000	0.000000	0.000000	0.000000	4.668834	-7.010504	13.911122	25.279549	0.000000	0.000000	-0.000000	-0.000000	4.684820	-0.396760	0.091560	0.007996	0.979856	-0.062317	-1.000000	-1.000000	-1.000000	-1.000000	-1.000000	-1.000000	-1.000000	146.344828	0.000000	-1.000000	-1.000000	254270.000000	1772311166.655708
-17198.280000	-14173.200000	-18165.780000	-13134.465000	0.000000	0.000000	0.000000	0.000000	-0.254380	-15.705821	10.936213	23.935473	0.000000	0.000000	-0.000000	-0.000000	1.526000	0.610400	-0.412020	0.009155	0.981321	-0.067871	-1.000000	-1.000000	-1.000000	-1.000000	-1.000000	-1.000000	-1.000000	146.344828	0.000000	-1.000000	-1.000000	254271.000000	1772311166.660659
-17197.020000	-14179.860000	-18161.235000	-13128.030000	0.000000	0.000000	0.000000	0.000000	-9.633143	-15.967395	0.765442	13.254783	0.000000	0.000000	-0.000000	-0.000000	1.526000	0.610400	-0.412020	0.009155	0.981321	-0.067871	-1.000000	-1.000000	-1.000000	-1.000000	-1.000000	-1.000000	-1.000000	146.344828	0.000000	-1.000000	-1.000000	254272.000000	1772311166.660663
-17196.345000	-14197.590000	-18174.870000	-13136.310000	0.000000	0.000000	0.000000	0.000000	-15.538881	-10.030892	-9.086328	0.180030	0.000000	0.000000	-0.000000	-0.000000	1.526000	0.610400	-0.412020	0.009155	0.981321	-0.067871	-1.000000	-1.000000	-1.000000	-1.000000	-1.000000	-1.000000	-1.000000	146.344828	0.000000	-1.000000	-1.000000	254273.000000	1772311166.663645
-17180.595000	-14204.655000	-18156.690000	-13125.690000	0.000000	0.000000	0.000000	0.000000	-12.174826	-4.494742	-12.442217	-9.667717	0.000000	0.000000	-0.000000	-0.000000	1.526000	0.610400	-0.412020	0.009155	0.981321	-0.067871	-1.000000	-1.000000	-1.000000	-1.000000	-1.000000	-1.000000	-1.000000	146.344828	0.000000	-1.000000	-1.000000	254274.000000	1772311166.663649
-17158.995000	-14173.560000	-18145.395000	-13115.160000	0.000000	0.000000	0.000000	0.000000	-0.465391	-2.011138	-8.051389	-13.751551	0.000000	0.000000	-0.000000	-0.000000	1.526000	0.610400	-0.412020	0.009155	0.981321	-0.067871	-1.000000	-1.000000	-1.000000	-1.000000	-1.000000	-1.000000	-1.000000	146.344828	0.000000	-1.000000	-1.000000	254275.000000	1772311166.673305
-17162.955000	-14134.995000	-18157.995000	-13123.305000	0.000000	0.000000	0.000000	0.000000	13.307046	0.994211	0.808819	-12.180673	0.000000	0.000000	-0.000000	-0.000000	1.526000	0.610400	-0.412020	0.009155	0.981321	-0.067871	-1.000000	-1.000000	-1.000000	-1.000000	-1.000000	-1.000000	-1.000000	146.344828	0.000000	-1.000000	-1.000000	254276.000000	1772311166.673308
-17184.555000	-14124.870000	-18172.215000	-13136.355000	0.000000	0.000000	0.000000	0.000000	20.732468	7.603210	7.653274	-8.070304	0.000000	0.000000	-0.000000	-0.000000	1.526000	0.610400	-0.412020	0.009155	0.981321	-0.067871	-1.000000	-1.000000	-1.000000	-1.000000	-1.000000	-1.000000	-1.000000	146.344828	0.000000	-1.000000	-1.000000	254277.000000	1772311166.673312
-17192.340000	-14108.625000	-18175.995000	-13138.920000	0.000000	0.000000	0.000000	0.000000	16.602900	14.615130	7.776037	-5.066500	0.000000	0.000000	-0.000000	-0.000000	1.526000	0.610400	-0.412020	0.009155	0.981321	-0.067871	-1.000000	-1.000000	-1.000000	-1.000000	-1.000000	-1.000000	-1.000000	146.344828	0.000000	-1.000000	-1.000000	254278.000000	1772311166.673314
-17200.980000	-14110.650000	-18181.620000	-13143.735000	0.000000	0.000000	0.000000	0.000000	3.567150	15.892223	2.383146	-3.902814	0.000000	0.000000	-0.000000	-0.000000	1.526000	0.610400	-0.412020	0.009155	0.981321	-0.067871	-1.000000	-1.000000	-1.000000	-1.000000	-1.000000	-1.000000	-1.000000	146.344828	0.000000	-1.000000	-1.000000	254279.000000	1772311166.675441
-17177.355000	-14113.845000	-18159.390000	-13126.950000	0.000000	0.000000	0.000000	0.000000	-9.519326	8.776893	-3.172840	-2.562488	0.000000	0.000000	-0.000000	-0.000000	1.526000	0.610400	-0.412020	0.009155	0.981321	-0.067871	-1.000000	-1.000000	-1.000000	-1.000000	-1.000000	-1.000000	-1.000000	146.344828	0.000000	-1.000000	-1.000000	254280.000000	1772311166.675443
-17173.620000	-14113.620000	-18145.440000	-13116.555000	0.000000	0.000000	0.000000	0.000000	-14.400122	-3.811379	-3.968158	1.063010	0.000000	0.000000	-0.000000	-0.000000	1.709120	0.976640	-0.076300	0.008789	0.980344	-0.065185	-1.000000	-1.000000	-1.000000	-1.000000	-1.000000	-1.000000	-1.000000	146.344828	0.000000	-1.000000	-1.000000	254281.000000	1772311166.679954
-17194.005000	-14112.360000	-18162.540000	-13139.730000	0.000000	0.000000	0.000000	0.000000	-10.080490	-15.407932	0.108628	6.064188	0.000000	0.000000	-0.000000	-0.000000	1.709120	0.976640	-0.076300	0.008789	0.980344	-0.065185	-1.000000	-1.000000	-1.000000	-1.000000	-1.000000	-1.000000	-1.000000	146.344828	0.000000	-1.000000	-1.000000	254282.000000	1772311166.679957
-17218.170000	-14140.485000	-18191.160000	-13160.610000	0.000000	0.000000	0.000000	0.000000	-3.121713	-20.794858	3.560365	8.039392	0.000000	0.000000	-0.000000	-0.000000	1.709120	0.976640	-0.076300	0.008789	0.980344	-0.065185	-1.000000	-1.000000	-1.000000	-1.000000	-1.000000	-1.000000	-1.000000	146.344828	0.000000	-1.000000	-1.000000	254283.000000	1772311166.683793
-17181.180000	-14133.510000	-18159.705000	-13121.415000	0.000000	0.000000	0.000000	0.000000	0.741299	-19.091262	2.013276	4.960325	0.000000	0.000000	-0.000000	-0.000000	1.709120	0.976640	-0.076300	0.008789	0.980344	-0.065185	-1.000000	-1.000000	-1.000000	-1.000000	-1.000000	-1.000000	-1.000000	146.344828	0.000000	-1.000000	-1.000000	254284.000000	1772311166.683796
-17189.910000	-14113.170000	-18169.920000	-13130.640000	0.000000	0.000000	0.000000	0.000000	2.484378	-11.379921	-1.963251	0.931357	0.000000	0.000000	-0.000000	-0.000000	1.709120	0.976640	-0.076300	0.008789	0.980344	-0.065185	-1.000000	-1.000000	-1.000000	-1.000000	-1.000000	-1.000000	-1.000000	146.344828	0.000000	-1.000000	-1.000000	254285.000000	1772311166.688541
-17213.490000	-14090.535000	-18189.990000	-13155.930000	0.000000	0.000000	0.000000	0.000000	4.109383	1.171119	-4.171583	-0.669935	0.000000	0.000000	-0.000000	-0.000000	1.709120	0.976640	-0.076300	0.008789	0.980344	-0.065185	-1.000000	-1.000000	-1.000000	-1.000000	-1.000000	-1.000000	-1.000000	146.344828	0.000000	-1.000000	-1.000000	254286.000000	1772311166.688545
-17213.175000	-14069.970000	-18188.640000	-13157.415000	0.000000	0.000000	0.000000	0.000000	3.985820	15.200549	-4.489627	-1.690990	0.000000	0.000000	-0.000000	-0.000000	1.709120	0.976640	-0.076300	0.008789	0.980344	-0.065185	-1.000000	-1.000000	-1.000000	-1.000000	-1.000000	-1.000000	-1.000000	146.344828	0.000000	-1.000000	-1.000000	254287.000000	1772311166.692065
-17191.485000	-14050.620000	-18163.440000	-13131.315000	0.000000	0.000000	0.000000	0.000000	1.829041	25.008414	-3.323121	-3.096760	0.000000	0.000000	-0.000000	-0.000000	1.709120	0.976640	-0.076300	0.008789	0.980344	-0.065185	-1.000000	-1.000000	-1.000000	-1.000000	-1.000000	-1.000000	-1.000000	146.344828	0.000000	-1.000000	-1.000000	254288.000000	1772311166.692068
-17187.525000	-14027.175000	-18155.520000	-13125.015000	0.000000	0.000000	0.000000	0.000000	0.788850	26.193787	0.583733	-2.190826	0.000000	0.000000	-0.000000	-0.000000	1.709120	0.976640	-0.076300	0.008789	0.980344	-0.065185	-1.000000	-1.000000	-1.000000	-1.000000	-1.000000	-1.000000	-1.000000	146.344828	0.000000	-1.000000	-1.000000	254289.000000	1772311166.695683
-17184.105000	-14032.530000	-18158.805000	-13125.780000	0.000000	0.000000	0.000000	0.000000	2.323959	18.169093	6.216118	1.829445	0.000000	0.000000	-0.000000	-0.000000	1.709120	0.976640	-0.076300	0.008789	0.980344	-0.065185	-1.000000	-1.000000	-1.000000	-1.000000	-1.000000	-1.000000	-1.000000	146.344828	0.000000	-1.000000	-1.000000	254290.000000	1772311166.695685
-17169.660000	-14035.770000	-18151.380000	-13116.240000	0.000000	0.000000	0.000000	0.000000	4.406173	3.503142	9.525880	5.693837	0.000000	0.000000	-0.000000	-0.000000	2.365300	0.701960	-0.289940	0.009216	0.980039	-0.063843	-1.000000	-1.000000	-1.000000	-1.000000	-1.000000	-1.000000	-1.000000	146.344828	0.000000	-1.000000	-1.000000	254291.000000	1772311166.699951
-17186.265000	-14028.660000	-18166.815000	-13136.355000	0.000000	0.000000	0.000000	0.000000	4.465260	-12.747556	7.632524	5.913424	0.000000	0.000000	-0.000000	-0.000000	2.365300	0.701960	-0.289940	0.009216	0.980039	-0.063843	-1.000000	-1.000000	-1.000000	-1.000000	-1.000000	-1.000000	-1.000000	146.344828	0.000000	-1.000000	-1.000000	254292.000000	1772311166.699956
-17205.165000	-14023.935000	-18186.165000	-13157.100000	0.000000	0.000000	0.000000	0.000000	0.848806	-23.948249	0.807673	1.216494	0.000000	0.000000	-0.000000	-0.000000	2.365300	0.701960	-0.289940	0.009216	0.980039	-0.063843	-1.000000	-1.000000	-1.000000	-1.000000	-1.000000	-1.000000	-1.000000	146.344828	0.000000	-1.000000	-1.000000	254293.000000	1772311166.703898
-17206.470000	-14028.255000	-18187.605000	-13155.075000	0.000000	0.000000	0.000000	0.000000	-5.915539	-25.723073	-7.987468	-6.527616	0.000000	0.000000	-0.000000	-0.000000	2.365300	0.701960	-0.289940	0.009216	0.980039	-0.063843	-1.000000	-1.000000	-1.000000	-1.000000	-1.000000	-1.000000	-1.000000	146.344828	0.000000	-1.000000	-1.000000	254294.000000	1772311166.703902
-17191.575000	-14041.350000	-18173.790000	-13138.695000	0.000000	0.000000	0.000000	0.000000	-11.545946	-19.149614	-13.552393	-11.895497	0.000000	0.000000	-0.000000	-0.000000	2.365300	0.701960	-0.289940	0.009216	0.980039	-0.063843	-1.000000	-1.000000	-1.000000	-1.000000	-1.000000	-1.000000	-1.000000	146.344828	0.000000	-1.000000	-1.000000	254295.000000	1772311166.710872
-17195.805000	-14031.360000	-18168.480000	-13133.430000	0.000000	0.000000	0.000000	0.000000	-11.199135	-8.775546	-11.578112	-9.924189	0.000000	0.000000	-0.000000	-0.000000	2.365300	0.701960	-0.289940	0.009216	0.980039	-0.063843	-1.000000	-1.000000	-1.000000	-1.000000	-1.000000	-1.000000	-1.000000	146.344828	0.000000	-1.000000	-1.000000	254296.000000	1772311166.710876
-17193.870000	-14011.965000	-18158.490000	-13124.745000	0.000000	0.000000	0.000000	0.000000	-4.795653	1.960727	-2.806410	-1.309070	0.000000	0.000000	-0.000000	-0.000000	2.365300	0.701960	-0.289940	0.009216	0.980039	-0.063843	-1.000000	-1.000000	-1.000000	-1.000000	-1.000000	-1.000000	-1.000000	146.344828	0.000000	-1.000000	-1.000000	254297.000000	1772311166.711849
-17187.345000	-14005.980000	-18161.460000	-13128.210000	0.000000	0.000000	0.000000	0.000000	3.362487	11.540135	7.305267	8.171310	0.000000	0.000000	-0.000000	-0.000000	2.365300	0.701960	-0.289940	0.009216	0.980039	-0.063843	-1.000000	-1.000000	-1.000000	-1.000000	-1.000000	-1.000000	-1.000000	146.344828	0.000000	-1.000000	-1.000000	254298.000000	1772311166.711852
-17188.470000	-14010.930000	-18164.700000	-13131.585000	0.000000	0.000000	0.000000	0.000000	9.019379	17.658826	12.777521	12.577881	0.000000	0.000000	-0.000000	-0.000000	2.365300	0.701960	-0.289940	0.009216	0.980039	-0.063843	-1.000000	-1.000000	-1.000000	-1.000000	-1.000000	-1.000000	-1.000000	146.344828	0.000000	-1.000000	-1.000000	254299.000000	1772311166.715900
-17193.330000	-13978.665000	-18167.805000	-13134.105000	0.000000	0.000000	0.000000	0.000000	10.068635	18.025377	11.025926	9.838576	0.000000	0.000000	-0.000000	-0.000000	2.365300	0.701960	-0.289940	0.009216	0.980039	-0.063843	-1.000000	-1.000000	-1.000000	-1.000000	-1.000000	-1.000000	-1.000000	146.344828	0.000000	-1.000000	-1.000000	254300.000000	1772311166.715903
-17192.205000	-13925.520000	-18173.745000	-13140.045000	0.000000	0.000000	0.000000	0.000000	6.683691	14.422132	3.968749	2.389393	0.000000	0.000000	-0.000000	-0.000000	2.746800	0.305200	-0.747740	0.009399	0.980344	-0.063171	-1.000000	-1.000000	-1.000000	-1.000000	-1.000000	-1.000000	-1.000000	146.344828	0.000000	-1.000000	-1.000000	254301.000000	1772311166.719980
-17167.680000	-13880.745000	-18151.335000	-13121.190000	0.000000	0.000000	0.000000	0.000000	1.610336	11.505860	-3.583702	-4.912978	0.000000	0.000000	-0.000000	-0.000000	2.746800	0.305200	-0.747740	0.009399	0.980344	-0.063171	-1.000000	-1.000000	-1.000000	-1.000000	-1.000000	-1.000000	-1.000000	146.344828	0.000000	-1.000000	-1.000000	254302.000000	1772311166.719982
-17135.190000	-13886.100000	-18114.660000	-13093.650000	0.000000	0.000000	0.000000	0.000000	-0.901478	9.969817	-6.322590	-7.315867	0.000000	0.000000	-0.000000	-0.000000	2.746800	0.305200	-0.747740	0.009399	0.980344	-0.063171	-1.000000	-1.000000	-1.000000	-1.000000	-1.000000	-1.000000	-1.000000	146.344828	0.000000	-1.000000	-1.000000	254303.000000	1772311166.724369
-17163.765000	-13908.285000	-18133.740000	-13119.030000	0.000000	0.000000	0.000000	0.000000	0.418930	4.465562	-2.663537	-3.880265	0.000000	0.000000	-0.000000	-0.000000	2.746800	0.305200	-0.747740	0.009399	0.980344	-0.063171	-1.000000	-1.000000	-1.000000	-1.000000	-1.000000	-1.000000	-1.000000	146.344828	0.000000	-1.000000	-1.000000	254304.000000	1772311166.724372
-17251.965000	-13919.670000	-18225.495000	-13204.800000	0.000000	0.000000	0.000000	0.000000	-0.220387	-8.966549	0.790532	-0.893971	0.000000	0.000000	-0.000000	-0.000000	2.746800	0.305200	-0.747740	0.009399	0.980344	-0.063171	-1.000000	-1.000000	-1.000000	-1.000000	-1.000000	-1.000000	-1.000000	146.344828	0.000000	-1.000000	-1.000000	254305.000000	1772311166.727865
-17214.615000	-13921.290000	-18188.055000	-13149.495000	0.000000	0.000000	0.000000	0.000000	-8.392991	-25.603889	-3.814649	-4.624489	0.000000	0.000000	-0.000000	-0.000000	2.746800	0.305200	-0.747740	0.009399	0.980344	-0.063171	-1.000000	-1.000000	-1.000000	-1.000000	-1.000000	-1.000000	-1.000000	146.344828	0.000000	-1.000000	-1.000000	254306.000000	1772311166.727868
-17130.915000	-13932.495000	-18105.480000	-13065.975000	0.000000	0.000000	0.000000	0.000000	-16.338436	-35.328780	-10.860923	-8.468519	0.000000	0.000000	-0.000000	-0.000000	2.746800	0.305200	-0.747740	0.009399	0.980344	-0.063171	-1.000000	-1.000000	-1.000000	-1.000000	-1.000000	-1.000000	-1.000000	146.344828	0.000000	-1.000000	-1.000000	254307.000000	1772311166.731875
-17175.015000	-13945.275000	-18149.535000	-13111.470000	0.000000	0.000000	0.000000	0.000000	-11.237707	-32.024106	-7.691544	-1.604916	0.000000	0.000000	-0.000000	-0.000000	2.746800	0.305200	-0.747740	0.009399	0.980344	-0.063171	-1.000000	-1.000000	-1.000000	-1.000000	-1.000000	-1.000000	-1.000000	146.344828	0.000000	-1.000000	-1.000000	254308.000000	1772311166.731878
-17237.745000	-13961.340000	-18214.695000	-13171.185000	0.000000	0.000000	0.000000	0.000000	2.843647	-17.804436	3.143603	10.244239	0.000000	0.000000	-0.000000	-0.000000	2.746800	0.305200	-0.747740	0.009399	0.980344	-0.063171	-1.000000	-1.000000	-1.000000	-1.000000	-1.000000	-1.000000	-1.000000	146.344828	0.000000	-1.000000	-1.000000	254309.000000	1772311166.735729
-17213.625000	-13978.350000	-18191.745000	-13151.340000	0.000000	0.000000	0.000000	0.000000	10.336614	0.108126	7.819701	12.203328	0.000000	0.000000	-0.000000	-0.000000	2.746800	0.305200	-0.747740	0.009399	0.980344	-0.063171	-1.000000	-1.000000	-1.000000	-1.000000	-1.000000	-1.000000	-1.000000	146.344828	0.000000	-1.000000	-1.000000	254310.000000	1772311166.735731
-17189.055000	-14013.945000	-18166.095000	-13128.300000	0.000000	0.000000	0.000000	0.000000	7.707823	14.228789	3.908315	3.341228	0.000000	0.000000	-0.000000	-0.000000	4.303320	-0.381500	-0.289940	0.008850	0.979978	-0.061523	-1.000000	-1.000000	-1.000000	-1.000000	-1.000000	-1.000000	-1.000000	146.344828	0.000000	-1.000000	-1.000000	254311.000000	1772311166.745197
-17197.605000	-14051.295000	-18172.215000	-13136.445000	0.000000	0.000000	0.000000	0.000000	3.703531	19.839575	0.478359	-4.927202	0.000000	0.000000	-0.000000	-0.000000	4.303320	-0.381500	-0.289940	0.008850	0.979978	-0.061523	-1.000000	-1.000000	-1.000000	-1.000000	-1.000000	-1.000000	-1.000000	146.344828	0.000000	-1.000000	-1.000000	254312.000000	1772311166.745199
-17199.945000	-14090.670000	-18171.855000	-13136.445000	0.000000	0.000000	0.000000	0.000000	3.257296	16.613644	2.036690	-6.045260	0.000000	0.000000	-0.000000	-0.000000	4.303320	-0.381500	-0.289940	0.008850	0.979978	-0.061523	-1.000000	-1.000000	-1.000000	-1.000000	-1.000000	-1.000000	-1.000000	146.344828	0.000000	-1.000000	-1.000000	254313.000000	1772311166.745203
-17192.295000	-14077.305000	-18162.720000	-13127.670000	0.000000	0.000000	0.000000	0.000000	4.223877	9.321019	5.406520	-2.205715	0.000000	0.000000	-0.000000	-0.000000	4.303320	-0.381500	-0.289940	0.008850	0.979978	-0.061523	-1.000000	-1.000000	-1.000000	-1.000000	-1.000000	-1.000000	-1.000000	146.344828	0.000000	-1.000000	-1.000000	254314.000000	1772311166.745205
-17171.280000	-14076.045000	-18143.055000	-13108.950000	0.000000	0.000000	0.000000	0.000000	4.373874	5.443809	7.145315	2.643252	0.000000	0.000000	-0.000000	-0.000000	4.303320	-0.381500	-0.289940	0.008850	0.979978	-0.061523	-1.000000	-1.000000	-1.000000	-1.000000	-1.000000	-1.000000	-1.000000	146.344828	0.000000	-1.000000	-1.000000	254315.000000	1772311166.747969
-17186.670000	-14092.785000	-18160.425000	-13127.040000	0.000000	0.000000	0.000000	0.000000	3.500342	8.263441	6.240982	5.883289	0.000000	0.000000	-0.000000	-0.000000	4.303320	-0.381500	-0.289940	0.008850	0.979978	-0.061523	-1.000000	-1.000000	-1.000000	-1.000000	-1.000000	-1.000000	-1.000000	146.344828	0.000000	-1.000000	-1.000000	254316.000000	1772311166.747971
-17179.065000	-14071.635000	-18158.670000	-13125.645000	0.000000	0.000000	0.000000	0.000000	1.165980	13.829488	2.273939	5.364509	0.000000	0.000000	-0.000000	-0.000000	4.303320	-0.381500	-0.289940	0.008850	0.979978	-0.061523	-1.000000	-1.000000	-1.000000	-1.000000	-1.000000	-1.000000	-1.000000	146.344828	0.000000	-1.000000	-1.000000	254317.000000	1772311166.751992
-17182.080000	-14017.365000	-18160.380000	-13124.970000	0.000000	0.000000	0.000000	0.000000	-2.681132	17.651018	-3.919011	0.951488	0.000000	0.000000	-0.000000	-0.000000	4.303320	-0.381500	-0.289940	0.008850	0.979978	-0.061523	-1.000000	-1.000000	-1.000000	-1.000000	-1.000000	-1.000000	-1.000000	146.344828	0.000000	-1.000000	-1.000000	254318.000000	1772311166.751996
-17175.195000	-13999.815000	-18150.345000	-13115.250000	0.000000	0.000000	0.000000	0.000000	-6.306979	18.914243	-9.124853	-4.169271	0.000000	0.000000	-0.000000	-0.000000	4.303320	-0.381500	-0.289940	0.008850	0.979978	-0.061523	-1.000000	-1.000000	-1.000000	-1.000000	-1.000000	-1.000000	-1.000000	146.344828	0.000000	-1.000000	-1.000000	254319.000000	1772311166.756158
-17176.320000	-14014.755000	-18154.845000	-13121.280000	0.000000	0.000000	0.000000	0.000000	-7.701643	15.816861	-10.290897	-6.521977	0.000000	0.000000	-0.000000	-0.000000	4.303320	-0.381500	-0.289940	0.008850	0.979978	-0.061523	-1.000000	-1.000000	-1.000000	-1.000000	-1.000000	-1.000000	-1.000000	146.344828	0.000000	-1.000000	-1.000000	254320.000000	1772311166.756161
-17164.530000	-14032.080000	-18147.285000	-13113.945000	0.000000	0.000000	0.000000	0.000000	-6.194917	4.515599	-7.236615	-5.429112	0.000000	0.000000	-0.000000	-0.000000	3.479280	-0.335720	-0.381500	0.008728	0.980955	-0.064148	-1.000000	-1.000000	-1.000000	-1.000000	-1.000000	-1.000000	-1.000000	146.344828	0.000000	-1.000000	-1.000000	254321.000000	1772311166.760415
-17177.130000	-14035.770000	-18152.865000	-13118.940000	0.000000	0.000000	0.000000	0.000000	-2.784702	-14.082224	-2.210105	-2.474140	0.000000	0.000000	-0.000000	-0.000000	3.479280	-0.335720	-0.381500	0.008728	0.980955	-0.064148	-1.000000	-1.000000	-1.000000	-1.000000	-1.000000	-1.000000	-1.000000	146.344828	0.000000	-1.000000	-1.000000	254322.000000	1772311166.760418
-17194.545000	-14022.495000	-18159.615000	-13125.195000	0.000000	0.000000	0.000000	0.000000	-0.019557	-31.264447	1.930274	0.221673	0.000000	0.000000	-0.000000	-0.000000	3.479280	-0.335720	-0.381500	0.008728	0.980955	-0.064148	-1.000000	-1.000000	-1.000000	-1.000000	-1.000000	-1.000000	-1.000000	146.344828	0.000000	-1.000000	-1.000000	254323.000000	1772311166.768444
