Channel1	Channel2	Channel3	Channel4	Channel5	Channel6	Channel7	Channel8	FilteredChannel1	FilteredChannel2	FilteredChannel3	FilteredChannel4	FilteredChannel5	FilteredChannel6	FilteredChannel7	FilteredChannel8	GyroX	GyroY	GyroZ	AccX	AccY	AccZ	PPG1	PPG2	rawPPG1	rawPPG2	rawPPG3	Hr	Hrv	Battery	Trigger	PhysicalTrigger	AutoTrigger	NumMeasurements	Timestamp
-1857.150000	33479.730000	-14477.400000	-16030.125000	0.000000	0.000000	0.000000	0.000000	131.485752	4.517536	186.883700	203.905243	0.000000	0.000000	-0.000000	0.000000	5.997180	-0.106820	-1.007160	-0.011475	0.907407	0.405517	-1.000000	-1.000000	-1.000000	-1.000000	-1.000000	-1.000000	-1.000000	138.620690	0.000000	-1.000000	-1.000000	252067.000000	1772918532.589649
-2003.940000	33535.260000	-14676.390000	-16235.325000	0.000000	0.000000	0.000000	0.000000	82.051768	3.093704	106.505758	121.772692	0.000000	0.000000	-0.000000	0.000000	5.997180	-0.106820	-1.007160	-0.011475	0.907407	0.405517	-1.000000	-1.000000	-1.000000	-1.000000	-1.000000	-1.000000	-1.000000	138.620690	0.000000	-1.000000	-1.000000	252068.000000	1772918532.589652
-2104.830000	33472.395000	-14817.600000	-16390.080000	0.000000	0.000000	0.000000	0.000000	-8.985702	-6.063036	-30.249367	-23.451683	0.000000	0.000000	-0.000000	0.000000	5.997180	-0.106820	-1.007160	-0.011475	0.907407	0.405517	-1.000000	-1.000000	-1.000000	-1.000000	-1.000000	-1.000000	-1.000000	138.620690	0.000000	-1.000000	-1.000000	252069.000000	1772918532.589655
-2067.345000	33388.785000	-14769.450000	-16340.580000	0.000000	0.000000	0.000000	0.000000	-92.407434	-26.202586	-148.153918	-152.111061	0.000000	0.000000	-0.000000	0.000000	5.966660	-0.015260	-0.991900	-0.011414	0.906431	0.405822	-1.000000	-1.000000	-1.000000	-1.000000	-1.000000	-1.000000	-1.000000	138.620690	0.000000	-1.000000	-1.000000	252070.000000	1772918532.591292
-2022.615000	33378.075000	-14700.555000	-16268.220000	0.000000	0.000000	0.000000	0.000000	-121.066724	-52.419652	-181.123772	-192.687845	0.000000	0.000000	-0.000000	0.000000	5.966660	-0.015260	-0.991900	-0.011414	0.906431	0.405822	-1.000000	-1.000000	-1.000000	-1.000000	-1.000000	-1.000000	-1.000000	138.620690	0.000000	-1.000000	-1.000000	252071.000000	1772918532.591295
-1929.420000	33400.620000	-14557.005000	-16120.080000	0.000000	0.000000	0.000000	0.000000	-79.248207	-69.182348	-111.373108	-123.825086	0.000000	0.000000	-0.000000	0.000000	5.966660	-0.015260	-0.991900	-0.011414	0.906431	0.405822	-1.000000	-1.000000	-1.000000	-1.000000	-1.000000	-1.000000	-1.000000	138.620690	0.000000	-1.000000	-1.000000	252072.000000	1772918532.595362
-1821.195000	33475.140000	-14390.010000	-15940.620000	0.000000	0.000000	0.000000	0.000000	7.390192	-59.282120	20.575494	13.588234	0.000000	0.000000	-0.000000	0.000000	5.966660	-0.015260	-0.991900	-0.011414	0.906431	0.405822	-1.000000	-1.000000	-1.000000	-1.000000	-1.000000	-1.000000	-1.000000	138.620690	0.000000	-1.000000	-1.000000	252073.000000	1772918532.595364
-1847.655000	33565.320000	-14421.960000	-15971.040000	0.000000	0.000000	0.000000	0.000000	89.769409	-19.873664	142.451652	143.696001	0.000000	0.000000	-0.000000	0.000000	5.966660	-0.015260	-0.991900	-0.011414	0.906431	0.405822	-1.000000	-1.000000	-1.000000	-1.000000	-1.000000	-1.000000	-1.000000	138.620690	0.000000	-1.000000	-1.000000	252074.000000	1772918532.599306
-1888.695000	33554.520000	-14488.830000	-16040.565000	0.000000	0.000000	0.000000	0.000000	122.051951	31.306564	187.611009	195.184115	0.000000	0.000000	-0.000000	0.000000	5.966660	-0.015260	-0.991900	-0.011414	0.906431	0.405822	-1.000000	-1.000000	-1.000000	-1.000000	-1.000000	-1.000000	-1.000000	138.620690	0.000000	-1.000000	-1.000000	252075.000000	1772918532.599309
-1990.665000	33582.960000	-14632.830000	-16189.020000	0.000000	0.000000	0.000000	0.000000	86.776820	65.236440	131.210063	139.891516	0.000000	0.000000	-0.000000	0.000000	5.966660	-0.015260	-0.991900	-0.011414	0.906431	0.405822	-1.000000	-1.000000	-1.000000	-1.000000	-1.000000	-1.000000	-1.000000	138.620690	0.000000	-1.000000	-1.000000	252076.000000	1772918532.603132
-2127.105000	33561.990000	-14833.440000	-16402.770000	0.000000	0.000000	0.000000	0.000000	3.950221	62.979164	4.226583	8.630434	0.000000	0.000000	-0.000000	0.000000	5.966660	-0.015260	-0.991900	-0.011414	0.906431	0.405822	-1.000000	-1.000000	-1.000000	-1.000000	-1.000000	-1.000000	-1.000000	138.620690	0.000000	-1.000000	-1.000000	252077.000000	1772918532.603135
-2147.535000	33600.870000	-14857.290000	-16430.085000	0.000000	0.000000	0.000000	0.000000	-82.319795	29.410136	-126.349728	-128.878864	0.000000	0.000000	-0.000000	0.000000	5.966660	-0.015260	-0.991900	-0.011414	0.906431	0.405822	-1.000000	-1.000000	-1.000000	-1.000000	-1.000000	-1.000000	-1.000000	138.620690	0.000000	-1.000000	-1.000000	252078.000000	1772918532.612496
-2110.680000	33656.490000	-14798.565000	-16367.130000	0.000000	0.000000	0.000000	0.000000	-125.539910	-12.339254	-190.798491	-198.776603	0.000000	0.000000	-0.000000	0.000000	5.966660	-0.015260	-0.991900	-0.011414	0.906431	0.405822	-1.000000	-1.000000	-1.000000	-1.000000	-1.000000	-1.000000	-1.000000	138.620690	0.000000	-1.000000	-1.000000	252079.000000	1772918532.612499
-2001.420000	33534.045000	-14654.970000	-16219.305000	0.000000	0.000000	0.000000	0.000000	-100.516873	-41.084590	-152.616572	-161.200056	0.000000	0.000000	-0.000000	0.000000	6.958560	0.289940	-1.068200	-0.010986	0.907285	0.405150	-1.000000	-1.000000	-1.000000	-1.000000	-1.000000	-1.000000	-1.000000	138.620690	0.000000	-1.000000	-1.000000	252080.000000	1772918532.612503
-1821.240000	33382.305000	-14408.415000	-15960.960000	0.000000	0.000000	0.000000	0.000000	-17.916301	-55.888363	-29.877508	-33.826606	0.000000	0.000000	-0.000000	0.000000	6.958560	0.289940	-1.068200	-0.010986	0.907285	0.405150	-1.000000	-1.000000	-1.000000	-1.000000	-1.000000	-1.000000	-1.000000	138.620690	0.000000	-1.000000	-1.000000	252081.000000	1772918532.612505
-1798.290000	33371.055000	-14373.855000	-15919.605000	0.000000	0.000000	0.000000	0.000000	80.373960	-64.829753	114.268951	117.537356	0.000000	0.000000	-0.000000	0.000000	6.958560	0.289940	-1.068200	-0.010986	0.907285	0.405150	-1.000000	-1.000000	-1.000000	-1.000000	-1.000000	-1.000000	-1.000000	138.620690	0.000000	-1.000000	-1.000000	252082.000000	1772918532.616197
-1866.240000	33425.235000	-14458.995000	-16008.570000	0.000000	0.000000	0.000000	0.000000	139.057463	-60.659257	200.425119	209.407909	0.000000	0.000000	-0.000000	0.000000	6.958560	0.289940	-1.068200	-0.010986	0.907285	0.405150	-1.000000	-1.000000	-1.000000	-1.000000	-1.000000	-1.000000	-1.000000	138.620690	0.000000	-1.000000	-1.000000	252083.000000	1772918532.616200
-1965.555000	33516.675000	-14583.015000	-16137.270000	0.000000	0.000000	0.000000	0.000000	120.342518	-27.593147	176.388304	186.173999	0.000000	0.000000	-0.000000	0.000000	6.958560	0.289940	-1.068200	-0.010986	0.907285	0.405150	-1.000000	-1.000000	-1.000000	-1.000000	-1.000000	-1.000000	-1.000000	138.620690	0.000000	-1.000000	-1.000000	252084.000000	1772918532.623240
-2114.685000	33558.660000	-14804.415000	-16370.955000	0.000000	0.000000	0.000000	0.000000	31.651407	31.486186	53.113764	58.128103	0.000000	0.000000	-0.000000	0.000000	6.958560	0.289940	-1.068200	-0.010986	0.907285	0.405150	-1.000000	-1.000000	-1.000000	-1.000000	-1.000000	-1.000000	-1.000000	138.620690	0.000000	-1.000000	-1.000000	252085.000000	1772918532.623243
-2136.780000	33459.885000	-14855.130000	-16427.205000	0.000000	0.000000	0.000000	0.000000	-77.603359	86.084742	-101.733813	-104.507927	0.000000	0.000000	-0.000000	0.000000	6.958560	0.289940	-1.068200	-0.010986	0.907285	0.405150	-1.000000	-1.000000	-1.000000	-1.000000	-1.000000	-1.000000	-1.000000	138.620690	0.000000	-1.000000	-1.000000	252086.000000	1772918532.623248
-2096.415000	33436.530000	-14796.315000	-16361.955000	0.000000	0.000000	0.000000	0.000000	-145.335120	99.620286	-202.334088	-211.486506	0.000000	0.000000	-0.000000	0.000000	6.958560	0.289940	-1.068200	-0.010986	0.907285	0.405150	-1.000000	-1.000000	-1.000000	-1.000000	-1.000000	-1.000000	-1.000000	138.620690	0.000000	-1.000000	-1.000000	252087.000000	1772918532.623250
-2045.745000	33455.160000	-14719.725000	-16281.180000	0.000000	0.000000	0.000000	0.000000	-133.917802	63.891414	-193.114274	-203.400822	0.000000	0.000000	-0.000000	0.000000	6.958560	0.289940	-1.068200	-0.010986	0.907285	0.405150	-1.000000	-1.000000	-1.000000	-1.000000	-1.000000	-1.000000	-1.000000	138.620690	0.000000	-1.000000	-1.000000	252088.000000	1772918532.628249
-1929.780000	33530.625000	-14539.500000	-16092.720000	0.000000	0.000000	0.000000	0.000000	-52.727187	7.652259	-82.146821	-87.719679	0.000000	0.000000	-0.000000	0.000000	6.958560	0.289940	-1.068200	-0.010986	0.907285	0.405150	-1.000000	-1.000000	-1.000000	-1.000000	-1.000000	-1.000000	-1.000000	138.620690	0.000000	-1.000000	-1.000000	252089.000000	1772918532.628251
-1897.020000	33711.030000	-14463.540000	-16007.040000	0.000000	0.000000	0.000000	0.000000	51.834876	-29.326279	68.166277	70.263818	0.000000	0.000000	-0.000000	0.000000	5.386780	0.549360	-0.717220	-0.011047	0.908262	0.404479	-1.000000	-1.000000	-1.000000	-1.000000	-1.000000	-1.000000	-1.000000	138.620690	0.000000	-1.000000	-1.000000	252090.000000	1772918532.632207
-1965.645000	33871.635000	-14544.225000	-16091.055000	0.000000	0.000000	0.000000	0.000000	123.810539	-25.629304	177.525357	185.985113	0.000000	0.000000	-0.000000	0.000000	5.386780	0.549360	-0.717220	-0.011047	0.908262	0.404479	-1.000000	-1.000000	-1.000000	-1.000000	-1.000000	-1.000000	-1.000000	138.620690	0.000000	-1.000000	-1.000000	252091.000000	1772918532.632210
-2039.085000	34001.370000	-14643.180000	-16196.625000	0.000000	0.000000	0.000000	0.000000	126.098615	8.594816	188.316592	198.340389	0.000000	0.000000	-0.000000	0.000000	5.386780	0.549360	-0.717220	-0.011047	0.908262	0.404479	-1.000000	-1.000000	-1.000000	-1.000000	-1.000000	-1.000000	-1.000000	138.620690	0.000000	-1.000000	-1.000000	252092.000000	1772918532.636208
-2164.590000	34045.335000	-14834.745000	-16391.205000	0.000000	0.000000	0.000000	0.000000	61.263039	39.992191	98.058281	104.021793	0.000000	0.000000	-0.000000	0.000000	5.386780	0.549360	-0.717220	-0.011047	0.908262	0.404479	-1.000000	-1.000000	-1.000000	-1.000000	-1.000000	-1.000000	-1.000000	138.620690	0.000000	-1.000000	-1.000000	252093.000000	1772918532.636211
-2241.900000	33993.945000	-14968.890000	-16529.985000	0.000000	0.000000	0.000000	0.000000	-31.919941	36.246146	-41.197745	-42.341333	0.000000	0.000000	-0.000000	0.000000	5.386780	0.549360	-0.717220	-0.011047	0.908262	0.404479	-1.000000	-1.000000	-1.000000	-1.000000	-1.000000	-1.000000	-1.000000	138.620690	0.000000	-1.000000	-1.000000	252094.000000	1772918532.639222
-2223.630000	34017.120000	-14925.645000	-16491.465000	0.000000	0.000000	0.000000	0.000000	-102.181676	-9.969707	-153.403157	-160.648875	0.000000	0.000000	-0.000000	0.000000	5.386780	0.549360	-0.717220	-0.011047	0.908262	0.404479	-1.000000	-1.000000	-1.000000	-1.000000	-1.000000	-1.000000	-1.000000	138.620690	0.000000	-1.000000	-1.000000	252095.000000	1772918532.639225
-2175.075000	34059.735000	-14845.365000	-16418.115000	0.000000	0.000000	0.000000	0.000000	-112.367832	-72.358971	-177.208693	-186.837095	0.000000	0.000000	-0.000000	0.000000	5.386780	0.549360	-0.717220	-0.011047	0.908262	0.404479	-1.000000	-1.000000	-1.000000	-1.000000	-1.000000	-1.000000	-1.000000	138.620690	0.000000	-1.000000	-1.000000	252096.000000	1772918532.644367
-2046.375000	33976.530000	-14665.635000	-16227.090000	0.000000	0.000000	0.000000	0.000000	-58.454479	-112.415005	-100.183096	-107.914287	0.000000	0.000000	-0.000000	0.000000	5.386780	0.549360	-0.717220	-0.011047	0.908262	0.404479	-1.000000	-1.000000	-1.000000	-1.000000	-1.000000	-1.000000	-1.000000	138.620690	0.000000	-1.000000	-1.000000	252097.000000	1772918532.644370
-1927.440000	33978.870000	-14503.905000	-16042.680000	0.000000	0.000000	0.000000	0.000000	30.406558	-111.545604	34.767596	32.698843	0.000000	0.000000	-0.000000	0.000000	5.386780	0.549360	-0.717220	-0.011047	0.908262	0.404479	-1.000000	-1.000000	-1.000000	-1.000000	-1.000000	-1.000000	-1.000000	138.620690	0.000000	-1.000000	-1.000000	252098.000000	1772918532.648232
-1929.285000	33953.715000	-14513.490000	-16054.290000	0.000000	0.000000	0.000000	0.000000	107.536370	-75.420758	154.395767	160.009342	0.000000	0.000000	-0.000000	0.000000	5.386780	0.549360	-0.717220	-0.011047	0.908262	0.404479	-1.000000	-1.000000	-1.000000	-1.000000	-1.000000	-1.000000	-1.000000	138.620690	0.000000	-1.000000	-1.000000	252099.000000	1772918532.648234
-1976.445000	33939.855000	-14578.065000	-16130.340000	0.000000	0.000000	0.000000	0.000000	130.024330	-20.664628	192.378251	203.498124	0.000000	0.000000	-0.000000	0.000000	5.295220	0.854560	-0.717220	-0.011047	0.908689	0.404357	-1.000000	-1.000000	-1.000000	-1.000000	-1.000000	-1.000000	-1.000000	138.620690	0.000000	-1.000000	-1.000000	252100.000000	1772918532.652155
-2058.435000	33881.580000	-14702.490000	-16261.470000	0.000000	0.000000	0.000000	0.000000	82.978592	32.425833	126.681294	136.894153	0.000000	0.000000	-0.000000	0.000000	5.295220	0.854560	-0.717220	-0.011047	0.908689	0.404357	-1.000000	-1.000000	-1.000000	-1.000000	-1.000000	-1.000000	-1.000000	138.620690	0.000000	-1.000000	-1.000000	252101.000000	1772918532.652158
-2185.470000	33818.985000	-14890.230000	-16463.160000	0.000000	0.000000	0.000000	0.000000	-10.182520	65.746702	-7.755531	-4.812914	0.000000	0.000000	-0.000000	0.000000	5.295220	0.854560	-0.717220	-0.011047	0.908689	0.404357	-1.000000	-1.000000	-1.000000	-1.000000	-1.000000	-1.000000	-1.000000	138.620690	0.000000	-1.000000	-1.000000	252102.000000	1772918532.656306
-2169.855000	33733.260000	-14868.495000	-16446.915000	0.000000	0.000000	0.000000	0.000000	-101.381721	70.801441	-140.620307	-146.906352	0.000000	0.000000	-0.000000	0.000000	5.295220	0.854560	-0.717220	-0.011047	0.908689	0.404357	-1.000000	-1.000000	-1.000000	-1.000000	-1.000000	-1.000000	-1.000000	138.620690	0.000000	-1.000000	-1.000000	252103.000000	1772918532.656310
-2134.530000	33732.360000	-14814.630000	-16384.635000	0.000000	0.000000	0.000000	0.000000	-142.421641	53.300657	-201.487372	-213.443149	0.000000	0.000000	-0.000000	0.000000	5.295220	0.854560	-0.717220	-0.011047	0.908689	0.404357	-1.000000	-1.000000	-1.000000	-1.000000	-1.000000	-1.000000	-1.000000	138.620690	0.000000	-1.000000	-1.000000	252104.000000	1772918532.660345
-2063.520000	33768.990000	-14709.465000	-16272.900000	0.000000	0.000000	0.000000	0.000000	-111.685228	31.037706	-158.313834	-168.915952	0.000000	0.000000	-0.000000	0.000000	5.295220	0.854560	-0.717220	-0.011047	0.908689	0.404357	-1.000000	-1.000000	-1.000000	-1.000000	-1.000000	-1.000000	-1.000000	138.620690	0.000000	-1.000000	-1.000000	252105.000000	1772918532.660384
-1914.705000	33753.645000	-14494.860000	-16045.605000	0.000000	0.000000	0.000000	0.000000	-26.548419	20.352472	-36.013012	-38.955588	0.000000	0.000000	-0.000000	0.000000	5.295220	0.854560	-0.717220	-0.011047	0.908689	0.404357	-1.000000	-1.000000	-1.000000	-1.000000	-1.000000	-1.000000	-1.000000	138.620690	0.000000	-1.000000	-1.000000	252106.000000	1772918532.664275
-1926.810000	33884.820000	-14494.320000	-16042.545000	0.000000	0.000000	0.000000	0.000000	68.624651	24.037877	101.087828	107.650009	0.000000	0.000000	-0.000000	0.000000	5.295220	0.854560	-0.717220	-0.011047	0.908689	0.404357	-1.000000	-1.000000	-1.000000	-1.000000	-1.000000	-1.000000	-1.000000	138.620690	0.000000	-1.000000	-1.000000	252107.000000	1772918532.664279
-1983.105000	33974.235000	-14573.205000	-16128.855000	0.000000	0.000000	0.000000	0.000000	123.703814	35.841696	180.573303	192.985759	0.000000	0.000000	-0.000000	0.000000	5.295220	0.854560	-0.717220	-0.011047	0.908689	0.404357	-1.000000	-1.000000	-1.000000	-1.000000	-1.000000	-1.000000	-1.000000	138.620690	0.000000	-1.000000	-1.000000	252108.000000	1772918532.667416
-2056.185000	33977.565000	-14676.480000	-16233.480000	0.000000	0.000000	0.000000	0.000000	109.257436	44.746529	159.508214	170.823814	0.000000	0.000000	-0.000000	0.000000	5.295220	0.854560	-0.717220	-0.011047	0.908689	0.404357	-1.000000	-1.000000	-1.000000	-1.000000	-1.000000	-1.000000	-1.000000	138.620690	0.000000	-1.000000	-1.000000	252109.000000	1772918532.667420
-2203.245000	33975.810000	-14892.390000	-16458.525000	0.000000	0.000000	0.000000	0.000000	35.754518	35.438849	51.900144	56.177285	0.000000	0.000000	-0.000000	0.000000	5.539380	0.656180	-0.625660	-0.010193	0.908750	0.403991	-1.000000	-1.000000	-1.000000	-1.000000	-1.000000	-1.000000	-1.000000	138.620690	0.000000	-1.000000	-1.000000	252110.000000	1772918532.685847
-2237.400000	33954.930000	-14951.295000	-16519.095000	0.000000	0.000000	0.000000	0.000000	-54.771351	1.164242	-82.035470	-86.479846	0.000000	0.000000	-0.000000	0.000000	5.539380	0.656180	-0.625660	-0.010193	0.908750	0.403991	-1.000000	-1.000000	-1.000000	-1.000000	-1.000000	-1.000000	-1.000000	138.620690	0.000000	-1.000000	-1.000000	252111.000000	1772918532.685851
-2175.525000	33913.395000	-14887.350000	-16444.350000	0.000000	0.000000	0.000000	0.000000	-111.815716	-46.471212	-168.775327	-178.857263	0.000000	0.000000	-0.000000	0.000000	5.539380	0.656180	-0.625660	-0.010193	0.908750	0.403991	-1.000000	-1.000000	-1.000000	-1.000000	-1.000000	-1.000000	-1.000000	138.620690	0.000000	-1.000000	-1.000000	252112.000000	1772918532.685855
-2144.790000	33979.545000	-14819.310000	-16375.320000	0.000000	0.000000	0.000000	0.000000	-103.184574	-83.994610	-159.842831	-169.660775	0.000000	0.000000	-0.000000	0.000000	5.539380	0.656180	-0.625660	-0.010193	0.908750	0.403991	-1.000000	-1.000000	-1.000000	-1.000000	-1.000000	-1.000000	-1.000000	138.620690	0.000000	-1.000000	-1.000000	252113.000000	1772918532.685858
-2028.375000	34086.960000	-14623.560000	-16178.895000	0.000000	0.000000	0.000000	0.000000	-35.799094	-88.244528	-61.281838	-65.906190	0.000000	0.000000	-0.000000	0.000000	5.539380	0.656180	-0.625660	-0.010193	0.908750	0.403991	-1.000000	-1.000000	-1.000000	-1.000000	-1.000000	-1.000000	-1.000000	138.620690	0.000000	-1.000000	-1.000000	252114.000000	1772918532.685862
-1971.405000	34167.285000	-14529.195000	-16076.295000	0.000000	0.000000	0.000000	0.000000	51.237824	-51.672540	72.677559	74.444890	0.000000	0.000000	-0.000000	0.000000	5.539380	0.656180	-0.625660	-0.010193	0.908750	0.403991	-1.000000	-1.000000	-1.000000	-1.000000	-1.000000	-1.000000	-1.000000	138.620690	0.000000	-1.000000	-1.000000	252115.000000	1772918532.685864
-1983.825000	34110.135000	-14561.280000	-16113.240000	0.000000	0.000000	0.000000	0.000000	111.558292	5.372684	170.614556	176.601016	0.000000	0.000000	-0.000000	0.000000	5.539380	0.656180	-0.625660	-0.010193	0.908750	0.403991	-1.000000	-1.000000	-1.000000	-1.000000	-1.000000	-1.000000	-1.000000	138.620690	0.000000	-1.000000	-1.000000	252116.000000	1772918532.689544
-2052.045000	34150.680000	-14658.165000	-16215.300000	0.000000	0.000000	0.000000	0.000000	113.676835	46.607683	178.880878	185.274545	0.000000	0.000000	-0.000000	0.000000	5.539380	0.656180	-0.625660	-0.010193	0.908750	0.403991	-1.000000	-1.000000	-1.000000	-1.000000	-1.000000	-1.000000	-1.000000	138.620690	0.000000	-1.000000	-1.000000	252117.000000	1772918532.689548
-2204.955000	34228.485000	-14870.025000	-16435.080000	0.000000	0.000000	0.000000	0.000000	55.380990	52.931318	90.894384	94.038133	0.000000	0.000000	-0.000000	0.000000	5.539380	0.656180	-0.625660	-0.010193	0.908750	0.403991	-1.000000	-1.000000	-1.000000	-1.000000	-1.000000	-1.000000	-1.000000	138.620690	0.000000	-1.000000	-1.000000	252118.000000	1772918532.689552
-2291.670000	34240.185000	-15003.495000	-16579.350000	0.000000	0.000000	0.000000	0.000000	-35.107786	34.440567	-48.802954	-50.718926	0.000000	0.000000	-0.000000	0.000000	5.539380	0.656180	-0.625660	-0.010193	0.908750	0.403991	-1.000000	-1.000000	-1.000000	-1.000000	-1.000000	-1.000000	-1.000000	138.620690	0.000000	-1.000000	-1.000000	252119.000000	1772918532.689554
-2299.905000	34401.555000	-14995.620000	-16567.920000	0.000000	0.000000	0.000000	0.000000	-111.001812	11.962133	-166.605579	-172.638816	0.000000	0.000000	-0.000000	0.000000	4.242280	1.083460	-1.297100	-0.010254	0.908567	0.404479	-1.000000	-1.000000	-1.000000	-1.000000	-1.000000	-1.000000	-1.000000	138.620690	0.000000	-1.000000	-1.000000	252120.000000	1772918532.692959
-2257.560000	34490.880000	-14927.040000	-16499.205000	0.000000	0.000000	0.000000	0.000000	-130.154202	1.287968	-197.423096	-204.172634	0.000000	0.000000	-0.000000	0.000000	4.242280	1.083460	-1.297100	-0.010254	0.908567	0.404479	-1.000000	-1.000000	-1.000000	-1.000000	-1.000000	-1.000000	-1.000000	138.620690	0.000000	-1.000000	-1.000000	252121.000000	1772918532.692962
-2153.070000	34593.255000	-14768.415000	-16335.765000	0.000000	0.000000	0.000000	0.000000	-80.564519	5.271595	-123.261027	-126.696377	0.000000	0.000000	-0.000000	0.000000	4.242280	1.083460	-1.297100	-0.010254	0.908567	0.404479	-1.000000	-1.000000	-1.000000	-1.000000	-1.000000	-1.000000	-1.000000	138.620690	0.000000	-1.000000	-1.000000	252122.000000	1772918532.696459
-2061.315000	34737.615000	-14625.405000	-16176.690000	0.000000	0.000000	0.000000	0.000000	12.420397	14.133923	16.412635	18.734812	0.000000	0.000000	-0.000000	0.000000	4.242280	1.083460	-1.297100	-0.010254	0.908567	0.404479	-1.000000	-1.000000	-1.000000	-1.000000	-1.000000	-1.000000	-1.000000	138.620690	0.000000	-1.000000	-1.000000	252123.000000	1772918532.696462
-2070.630000	34765.470000	-14643.540000	-16196.130000	0.000000	0.000000	0.000000	0.000000	100.145849	16.190718	147.484534	155.332871	0.000000	0.000000	-0.000000	0.000000	4.242280	1.083460	-1.297100	-0.010254	0.908567	0.404479	-1.000000	-1.000000	-1.000000	-1.000000	-1.000000	-1.000000	-1.000000	138.620690	0.000000	-1.000000	-1.000000	252124.000000	1772918532.700411
-2107.350000	34719.660000	-14696.550000	-16252.245000	0.000000	0.000000	0.000000	0.000000	135.898220	2.208350	199.974936	210.158071	0.000000	0.000000	-0.000000	0.000000	4.242280	1.083460	-1.297100	-0.010254	0.908567	0.404479	-1.000000	-1.000000	-1.000000	-1.000000	-1.000000	-1.000000	-1.000000	138.620690	0.000000	-1.000000	-1.000000	252125.000000	1772918532.700414
-2223.135000	34764.795000	-14862.105000	-16421.670000	0.000000	0.000000	0.000000	0.000000	101.052427	-29.423786	147.021273	154.536736	0.000000	0.000000	-0.000000	0.000000	4.242280	1.083460	-1.297100	-0.010254	0.908567	0.404479	-1.000000	-1.000000	-1.000000	-1.000000	-1.000000	-1.000000	-1.000000	138.620690	0.000000	-1.000000	-1.000000	252126.000000	1772918532.704236
-2337.345000	34759.980000	-15053.625000	-16624.170000	0.000000	0.000000	0.000000	0.000000	14.686030	-63.685625	18.110858	18.961038	0.000000	0.000000	-0.000000	0.000000	4.242280	1.083460	-1.297100	-0.010254	0.908567	0.404479	-1.000000	-1.000000	-1.000000	-1.000000	-1.000000	-1.000000	-1.000000	138.620690	0.000000	-1.000000	-1.000000	252127.000000	1772918532.704239
-2285.820000	34597.890000	-15003.135000	-16571.520000	0.000000	0.000000	0.000000	0.000000	-76.468090	-81.830473	-117.813332	-124.280310	0.000000	0.000000	-0.000000	0.000000	4.242280	1.083460	-1.297100	-0.010254	0.908567	0.404479	-1.000000	-1.000000	-1.000000	-1.000000	-1.000000	-1.000000	-1.000000	138.620690	0.000000	-1.000000	-1.000000	252128.000000	1772918532.710396
-2242.440000	34534.080000	-14921.820000	-16487.505000	0.000000	0.000000	0.000000	0.000000	-121.108929	-80.255453	-185.007918	-195.594520	0.000000	0.000000	-0.000000	0.000000	4.242280	1.083460	-1.297100	-0.010254	0.908567	0.404479	-1.000000	-1.000000	-1.000000	-1.000000	-1.000000	-1.000000	-1.000000	138.620690	0.000000	-1.000000	-1.000000	252129.000000	1772918532.710401
-2148.030000	34506.315000	-14782.950000	-16346.925000	0.000000	0.000000	0.000000	0.000000	-95.448155	-61.947373	-145.821113	-155.223936	0.000000	0.000000	-0.000000	0.000000	4.242280	0.610400	-1.373400	-0.011353	0.909849	0.404601	-1.000000	-1.000000	-1.000000	-1.000000	-1.000000	-1.000000	-1.000000	138.620690	0.000000	-1.000000	-1.000000	252130.000000	1772918532.712457
-2009.565000	34537.095000	-14579.955000	-16133.130000	0.000000	0.000000	0.000000	0.000000	-17.814343	-24.778142	-25.646182	-29.516500	0.000000	0.000000	-0.000000	0.000000	4.242280	0.610400	-1.373400	-0.011353	0.909849	0.404601	-1.000000	-1.000000	-1.000000	-1.000000	-1.000000	-1.000000	-1.000000	138.620690	0.000000	-1.000000	-1.000000	252131.000000	1772918532.712460
-2002.140000	34572.555000	-14568.435000	-16117.965000	0.000000	0.000000	0.000000	0.000000	66.722108	29.509865	106.318246	109.352055	0.000000	0.000000	-0.000000	0.000000	4.242280	0.610400	-1.373400	-0.011353	0.909849	0.404601	-1.000000	-1.000000	-1.000000	-1.000000	-1.000000	-1.000000	-1.000000	138.620690	0.000000	-1.000000	-1.000000	252132.000000	1772918532.716517
-2042.640000	34563.195000	-14632.830000	-16186.500000	0.000000	0.000000	0.000000	0.000000	110.679099	85.058258	175.665205	183.578609	0.000000	0.000000	-0.000000	0.000000	4.242280	0.610400	-1.373400	-0.011353	0.909849	0.404601	-1.000000	-1.000000	-1.000000	-1.000000	-1.000000	-1.000000	-1.000000	138.620690	0.000000	-1.000000	-1.000000	252133.000000	1772918532.716520
-2123.415000	34563.870000	-14748.345000	-16302.330000	0.000000	0.000000	0.000000	0.000000	89.011359	117.370639	143.233912	151.610970	0.000000	0.000000	-0.000000	0.000000	4.242280	0.610400	-1.373400	-0.011353	0.909849	0.404601	-1.000000	-1.000000	-1.000000	-1.000000	-1.000000	-1.000000	-1.000000	138.620690	0.000000	-1.000000	-1.000000	252134.000000	1772918532.722527
-2298.240000	34651.080000	-14996.025000	-16556.445000	0.000000	0.000000	0.000000	0.000000	13.340497	112.323426	27.288643	31.801277	0.000000	0.000000	-0.000000	0.000000	4.242280	0.610400	-1.373400	-0.011353	0.909849	0.404601	-1.000000	-1.000000	-1.000000	-1.000000	-1.000000	-1.000000	-1.000000	138.620690	0.000000	-1.000000	-1.000000	252135.000000	1772918532.722529
-2323.800000	34664.130000	-15050.925000	-16609.050000	0.000000	0.000000	0.000000	0.000000	-76.090220	77.252063	-110.142089	-111.332734	0.000000	0.000000	-0.000000	0.000000	4.242280	0.610400	-1.373400	-0.011353	0.909849	0.404601	-1.000000	-1.000000	-1.000000	-1.000000	-1.000000	-1.000000	-1.000000	138.620690	0.000000	-1.000000	-1.000000	252136.000000	1772918532.728417
-2280.600000	34687.305000	-14986.395000	-16541.775000	0.000000	0.000000	0.000000	0.000000	-129.218428	29.586081	-193.689494	-199.157810	0.000000	0.000000	-0.000000	0.000000	4.242280	0.610400	-1.373400	-0.011353	0.909849	0.404601	-1.000000	-1.000000	-1.000000	-1.000000	-1.000000	-1.000000	-1.000000	138.620690	0.000000	-1.000000	-1.000000	252137.000000	1772918532.728420
-2217.150000	34708.320000	-14883.120000	-16446.555000	0.000000	0.000000	0.000000	0.000000	-112.792955	-16.301133	-173.253592	-179.655389	0.000000	0.000000	-0.000000	0.000000	4.242280	0.610400	-1.373400	-0.011353	0.909849	0.404601	-1.000000	-1.000000	-1.000000	-1.000000	-1.000000	-1.000000	-1.000000	138.620690	0.000000	-1.000000	-1.000000	252138.000000	1772918532.728424
-2089.440000	34803.360000	-14687.415000	-16243.110000	0.000000	0.000000	0.000000	0.000000	-33.579682	-48.850514	-57.047318	-61.481469	0.000000	0.000000	-0.000000	0.000000	4.242280	0.610400	-1.373400	-0.011353	0.909849	0.404601	-1.000000	-1.000000	-1.000000	-1.000000	-1.000000	-1.000000	-1.000000	138.620690	0.000000	-1.000000	-1.000000	252139.000000	1772918532.728427
-2059.380000	34941.960000	-14623.425000	-16173.765000	0.000000	0.000000	0.000000	0.000000	65.796069	-57.671979	92.777644	91.795978	0.000000	0.000000	-0.000000	0.000000	4.913720	0.976640	-0.976640	-0.012512	0.907041	0.404601	-1.000000	-1.000000	-1.000000	-1.000000	-1.000000	-1.000000	-1.000000	138.620690	0.000000	-1.000000	-1.000000	252140.000000	1772918532.732477
-2103.345000	34957.935000	-14664.915000	-16222.230000	0.000000	0.000000	0.000000	0.000000	131.520340	-41.732840	195.517680	198.035313	0.000000	0.000000	-0.000000	0.000000	4.913720	0.976640	-0.976640	-0.012512	0.907041	0.404601	-1.000000	-1.000000	-1.000000	-1.000000	-1.000000	-1.000000	-1.000000	138.620690	0.000000	-1.000000	-1.000000	252141.000000	1772918532.732480
-2143.215000	34921.305000	-14736.690000	-16293.195000	0.000000	0.000000	0.000000	0.000000	128.484197	-18.127150	196.278844	200.636071	0.000000	0.000000	-0.000000	0.000000	4.913720	0.976640	-0.976640	-0.012512	0.907041	0.404601	-1.000000	-1.000000	-1.000000	-1.000000	-1.000000	-1.000000	-1.000000	138.620690	0.000000	-1.000000	-1.000000	252142.000000	1772918532.763114
-2274.480000	34906.815000	-14942.745000	-16505.505000	0.000000	0.000000	0.000000	0.000000	60.751706	-9.765187	96.789026	100.405265	0.000000	0.000000	-0.000000	0.000000	4.913720	0.976640	-0.976640	-0.012512	0.907041	0.404601	-1.000000	-1.000000	-1.000000	-1.000000	-1.000000	-1.000000	-1.000000	138.620690	0.000000	-1.000000	-1.000000	252143.000000	1772918532.763118
-2349.090000	34893.180000	-15064.740000	-16633.800000	0.000000	0.000000	0.000000	0.000000	-34.552057	-21.787844	-50.113347	-49.158958	0.000000	0.000000	-0.000000	0.000000	4.913720	0.976640	-0.976640	-0.012512	0.907041	0.404601	-1.000000	-1.000000	-1.000000	-1.000000	-1.000000	-1.000000	-1.000000	138.620690	0.000000	-1.000000	-1.000000	252144.000000	1772918532.763122
-2290.815000	34808.355000	-15001.785000	-16557.795000	0.000000	0.000000	0.000000	0.000000	-108.008934	-40.340958	-168.385188	-170.189742	0.000000	0.000000	-0.000000	0.000000	4.913720	0.976640	-0.976640	-0.012512	0.907041	0.404601	-1.000000	-1.000000	-1.000000	-1.000000	-1.000000	-1.000000	-1.000000	138.620690	0.000000	-1.000000	-1.000000	252145.000000	1772918532.763124
-2245.545000	34798.455000	-14922.270000	-16479.540000	0.000000	0.000000	0.000000	0.000000	-120.776199	-49.528263	-194.574809	-197.135330	0.000000	0.000000	-0.000000	0.000000	4.913720	0.976640	-0.976640	-0.012512	0.907041	0.404601	-1.000000	-1.000000	-1.000000	-1.000000	-1.000000	-1.000000	-1.000000	138.620690	0.000000	-1.000000	-1.000000	252146.000000	1772918532.763127
-2144.115000	34898.670000	-14755.590000	-16316.505000	0.000000	0.000000	0.000000	0.000000	-67.841078	-38.148578	-115.663024	-116.639499	0.000000	0.000000	-0.000000	0.000000	4.913720	0.976640	-0.976640	-0.012512	0.907041	0.404601	-1.000000	-1.000000	-1.000000	-1.000000	-1.000000	-1.000000	-1.000000	138.620690	0.000000	-1.000000	-1.000000	252147.000000	1772918532.763129
-2055.915000	35009.460000	-14613.705000	-16164.270000	0.000000	0.000000	0.000000	0.000000	19.071500	-0.574080	22.835657	24.069239	0.000000	0.000000	-0.000000	0.000000	4.913720	0.976640	-0.976640	-0.012512	0.907041	0.404601	-1.000000	-1.000000	-1.000000	-1.000000	-1.000000	-1.000000	-1.000000	138.620690	0.000000	-1.000000	-1.000000	252148.000000	1772918532.763132
-2080.755000	35038.170000	-14648.265000	-16196.265000	0.000000	0.000000	0.000000	0.000000	92.143776	52.762859	145.042291	147.743230	0.000000	0.000000	-0.000000	0.000000	4.913720	0.976640	-0.976640	-0.012512	0.907041	0.404601	-1.000000	-1.000000	-1.000000	-1.000000	-1.000000	-1.000000	-1.000000	138.620690	0.000000	-1.000000	-1.000000	252149.000000	1772918532.763134
-2095.290000	34931.430000	-14689.935000	-16242.255000	0.000000	0.000000	0.000000	0.000000	112.846169	90.762301	185.242681	188.212981	0.000000	0.000000	-0.000000	0.000000	5.753020	0.350980	-0.335720	-0.013000	0.906553	0.405456	-1.000000	-1.000000	-1.000000	-1.000000	-1.000000	-1.000000	-1.000000	138.620690	0.000000	-1.000000	-1.000000	252150.000000	1772918532.763137
-2189.745000	34863.210000	-14839.560000	-16396.470000	0.000000	0.000000	0.000000	0.000000	72.332600	82.455807	124.349078	125.954804	0.000000	0.000000	-0.000000	0.000000	5.753020	0.350980	-0.335720	-0.013000	0.906553	0.405456	-1.000000	-1.000000	-1.000000	-1.000000	-1.000000	-1.000000	-1.000000	138.620690	0.000000	-1.000000	-1.000000	252151.000000	1772918532.763139
-2305.620000	34808.895000	-15017.040000	-16585.830000	0.000000	0.000000	0.000000	0.000000	-6.334747	27.608993	-2.281463	-3.641081	0.000000	0.000000	-0.000000	0.000000	5.753020	0.350980	-0.335720	-0.013000	0.906553	0.405456	-1.000000	-1.000000	-1.000000	-1.000000	-1.000000	-1.000000	-1.000000	138.620690	0.000000	-1.000000	-1.000000	252152.000000	1772918532.763142
-2276.820000	34726.320000	-14984.145000	-16550.820000	0.000000	0.000000	0.000000	0.000000	-82.326491	-40.808755	-127.144990	-131.842041	0.000000	0.000000	-0.000000	0.000000	5.753020	0.350980	-0.335720	-0.013000	0.906553	0.405456	-1.000000	-1.000000	-1.000000	-1.000000	-1.000000	-1.000000	-1.000000	138.620690	0.000000	-1.000000	-1.000000	252153.000000	1772918532.763144
-2224.845000	34678.035000	-14912.100000	-16471.845000	0.000000	0.000000	0.000000	0.000000	-114.443547	-85.002241	-182.303954	-188.453944	0.000000	0.000000	-0.000000	0.000000	5.753020	0.350980	-0.335720	-0.013000	0.906553	0.405456	-1.000000	-1.000000	-1.000000	-1.000000	-1.000000	-1.000000	-1.000000	138.620690	0.000000	-1.000000	-1.000000	252154.000000	1772918532.763147
-2126.745000	34649.055000	-14774.085000	-16329.555000	0.000000	0.000000	0.000000	0.000000	-83.622567	-86.044787	-136.849316	-140.887789	0.000000	0.000000	-0.000000	0.000000	5.753020	0.350980	-0.335720	-0.013000	0.906553	0.405456	-1.000000	-1.000000	-1.000000	-1.000000	-1.000000	-1.000000	-1.000000	138.620690	0.000000	-1.000000	-1.000000	252155.000000	1772918532.763149
-1980.225000	34626.060000	-14560.830000	-16104.510000	0.000000	0.000000	0.000000	0.000000	-6.109537	-48.216630	-16.425400	-15.475969	0.000000	0.000000	-0.000000	0.000000	5.753020	0.350980	-0.335720	-0.013000	0.906553	0.405456	-1.000000	-1.000000	-1.000000	-1.000000	-1.000000	-1.000000	-1.000000	138.620690	0.000000	-1.000000	-1.000000	252156.000000	1772918532.764592
-1984.050000	34636.635000	-14555.745000	-16099.110000	0.000000	0.000000	0.000000	0.000000	76.286173	7.999027	113.591181	119.705377	0.000000	0.000000	-0.000000	0.000000	5.753020	0.350980	-0.335720	-0.013000	0.906553	0.405456	-1.000000	-1.000000	-1.000000	-1.000000	-1.000000	-1.000000	-1.000000	138.620690	0.000000	-1.000000	-1.000000	252157.000000	1772918532.764594
-2040.300000	34670.970000	-14629.185000	-16176.825000	0.000000	0.000000	0.000000	0.000000	116.886474	58.832033	181.181739	189.571137	0.000000	0.000000	-0.000000	0.000000	5.753020	0.350980	-0.335720	-0.013000	0.906553	0.405456	-1.000000	-1.000000	-1.000000	-1.000000	-1.000000	-1.000000	-1.000000	138.620690	0.000000	-1.000000	-1.000000	252158.000000	1772918532.768610
-2099.835000	34583.535000	-14729.490000	-16279.695000	0.000000	0.000000	0.000000	0.000000	90.877320	85.761489	147.269962	153.424103	0.000000	0.000000	-0.000000	0.000000	5.753020	0.350980	-0.335720	-0.013000	0.906553	0.405456	-1.000000	-1.000000	-1.000000	-1.000000	-1.000000	-1.000000	-1.000000	138.620690	0.000000	-1.000000	-1.000000	252159.000000	1772918532.768613
-2235.915000	34509.285000	-14940.045000	-16501.455000	0.000000	0.000000	0.000000	0.000000	12.820974	77.339879	31.038125	31.472091	0.000000	0.000000	-0.000000	0.000000	6.210820	0.534100	-0.793520	-0.011780	0.907407	0.405089	-1.000000	-1.000000	-1.000000	-1.000000	-1.000000	-1.000000	-1.000000	138.620690	0.000000	-1.000000	-1.000000	252160.000000	1772918532.771638
-2246.040000	34428.060000	-14957.145000	-16523.055000	0.000000	0.000000	0.000000	0.000000	-73.909861	35.883050	-103.605308	-109.480709	0.000000	0.000000	-0.000000	0.000000	6.210820	0.534100	-0.793520	-0.011780	0.907407	0.405089	-1.000000	-1.000000	-1.000000	-1.000000	-1.000000	-1.000000	-1.000000	138.620690	0.000000	-1.000000	-1.000000	252161.000000	1772918532.771641
-2207.340000	34435.080000	-14903.190000	-16465.140000	0.000000	0.000000	0.000000	0.000000	-121.680154	-17.075715	-182.761930	-192.328503	0.000000	0.000000	-0.000000	0.000000	6.210820	0.534100	-0.793520	-0.011780	0.907407	0.405089	-1.000000	-1.000000	-1.000000	-1.000000	-1.000000	-1.000000	-1.000000	138.620690	0.000000	-1.000000	-1.000000	252162.000000	1772918532.779161
-2157.885000	34503.480000	-14825.880000	-16384.230000	0.000000	0.000000	0.000000	0.000000	-104.103573	-50.567166	-162.698805	-171.220817	0.000000	0.000000	-0.000000	0.000000	6.210820	0.534100	-0.793520	-0.011780	0.907407	0.405089	-1.000000	-1.000000	-1.000000	-1.000000	-1.000000	-1.000000	-1.000000	138.620690	0.000000	-1.000000	-1.000000	252163.000000	1772918532.779163
-2021.760000	34541.910000	-14613.120000	-16162.470000	0.000000	0.000000	0.000000	0.000000	-31.480151	-45.387533	-55.856430	-58.935729	0.000000	0.000000	-0.000000	0.000000	6.210820	0.534100	-0.793520	-0.011780	0.907407	0.405089	-1.000000	-1.000000	-1.000000	-1.000000	-1.000000	-1.000000	-1.000000	138.620690	0.000000	-1.000000	-1.000000	252164.000000	1772918532.796897
-1976.895000	34540.425000	-14534.685000	-16078.410000	0.000000	0.000000	0.000000	0.000000	57.775123	-10.129897	80.740711	84.769869	0.000000	0.000000	-0.000000	0.000000	6.210820	0.534100	-0.793520	-0.011780	0.907407	0.405089	-1.000000	-1.000000	-1.000000	-1.000000	-1.000000	-1.000000	-1.000000	138.620690	0.000000	-1.000000	-1.000000	252165.000000	1772918532.796900
-2005.650000	34486.380000	-14578.830000	-16126.695000	0.000000	0.000000	0.000000	0.000000	117.524001	25.153527	175.817538	184.976152	0.000000	0.000000	-0.000000	0.000000	6.210820	0.534100	-0.793520	-0.011780	0.907407	0.405089	-1.000000	-1.000000	-1.000000	-1.000000	-1.000000	-1.000000	-1.000000	138.620690	0.000000	-1.000000	-1.000000	252166.000000	1772918532.796905
-2052.810000	34429.005000	-14660.145000	-16210.665000	0.000000	0.000000	0.000000	0.000000	116.123054	33.479792	178.005857	187.587651	0.000000	0.000000	-0.000000	0.000000	6.210820	0.534100	-0.793520	-0.011780	0.907407	0.405089	-1.000000	-1.000000	-1.000000	-1.000000	-1.000000	-1.000000	-1.000000	138.620690	0.000000	-1.000000	-1.000000	252167.000000	1772918532.796907
-2194.245000	34388.460000	-14875.020000	-16427.475000	0.000000	0.000000	0.000000	0.000000	54.382203	10.843600	85.439623	90.678653	0.000000	0.000000	-0.000000	0.000000	6.210820	0.534100	-0.793520	-0.011780	0.907407	0.405089	-1.000000	-1.000000	-1.000000	-1.000000	-1.000000	-1.000000	-1.000000	138.620690	0.000000	-1.000000	-1.000000	252168.000000	1772918532.796910
-2246.805000	34324.740000	-14975.415000	-16532.010000	0.000000	0.000000	0.000000	0.000000	-35.515886	-24.631146	-53.506047	-54.705828	0.000000	0.000000	-0.000000	0.000000	6.210820	0.534100	-0.793520	-0.011780	0.907407	0.405089	-1.000000	-1.000000	-1.000000	-1.000000	-1.000000	-1.000000	-1.000000	138.620690	0.000000	-1.000000	-1.000000	252169.000000	1772918532.796912
-2186.415000	34219.575000	-14894.415000	-16453.620000	0.000000	0.000000	0.000000	0.000000	-105.469936	-51.010562	-164.050297	-170.443665	0.000000	0.000000	-0.000000	0.000000	5.859840	0.595140	-1.342880	-0.009582	0.907713	0.405578	-1.000000	-1.000000	-1.000000	-1.000000	-1.000000	-1.000000	-1.000000	138.620690	0.000000	-1.000000	-1.000000	252170.000000	1772918532.796915
-2135.790000	34229.160000	-14820.390000	-16383.015000	0.000000	0.000000	0.000000	0.000000	-115.818416	-56.112625	-183.232988	-191.534865	0.000000	0.000000	-0.000000	0.000000	5.859840	0.595140	-1.342880	-0.009582	0.907713	0.405578	-1.000000	-1.000000	-1.000000	-1.000000	-1.000000	-1.000000	-1.000000	138.620690	0.000000	-1.000000	-1.000000	252171.000000	1772918532.796918
-2020.770000	34263.945000	-14644.080000	-16197.210000	0.000000	0.000000	0.000000	0.000000	-61.551348	-35.868427	-100.659149	-107.228894	0.000000	0.000000	-0.000000	0.000000	5.859840	0.595140	-1.342880	-0.009582	0.907713	0.405578	-1.000000	-1.000000	-1.000000	-1.000000	-1.000000	-1.000000	-1.000000	138.620690	0.000000	-1.000000	-1.000000	252172.000000	1772918532.796921
-1964.925000	34393.275000	-14531.355000	-16073.325000	0.000000	0.000000	0.000000	0.000000	24.689451	7.333344	35.440141	33.528440	0.000000	0.000000	-0.000000	0.000000	5.859840	0.595140	-1.342880	-0.009582	0.907713	0.405578	-1.000000	-1.000000	-1.000000	-1.000000	-1.000000	-1.000000	-1.000000	138.620690	0.000000	-1.000000	-1.000000	252173.000000	1772918532.796922
-2005.515000	34474.050000	-14582.790000	-16128.180000	0.000000	0.000000	0.000000	0.000000	93.652802	60.472450	149.024996	152.835091	0.000000	0.000000	-0.000000	0.000000	5.859840	0.595140	-1.342880	-0.009582	0.907713	0.405578	-1.000000	-1.000000	-1.000000	-1.000000	-1.000000	-1.000000	-1.000000	138.620690	0.000000	-1.000000	-1.000000	252174.000000	1772918532.800791
-2048.580000	34496.595000	-14659.155000	-16212.330000	0.000000	0.000000	0.000000	0.000000	107.083667	99.274442	177.408749	184.820507	0.000000	0.000000	-0.000000	0.000000	5.859840	0.595140	-1.342880	-0.009582	0.907713	0.405578	-1.000000	-1.000000	-1.000000	-1.000000	-1.000000	-1.000000	-1.000000	138.620690	0.000000	-1.000000	-1.000000	252175.000000	1772918532.800794
-2164.095000	34493.985000	-14825.070000	-16384.995000	0.000000	0.000000	0.000000	0.000000	59.650007	99.100630	106.818761	113.225696	0.000000	0.000000	-0.000000	0.000000	5.859840	0.595140	-1.342880	-0.009582	0.907713	0.405578	-1.000000	-1.000000	-1.000000	-1.000000	-1.000000	-1.000000	-1.000000	138.620690	0.000000	-1.000000	-1.000000	252176.000000	1772918532.804609
-2293.245000	34476.210000	-14996.835000	-16566.705000	0.000000	0.000000	0.000000	0.000000	-21.216626	53.682610	-21.990107	-20.619650	0.000000	0.000000	-0.000000	0.000000	5.859840	0.595140	-1.342880	-0.009582	0.907713	0.405578	-1.000000	-1.000000	-1.000000	-1.000000	-1.000000	-1.000000	-1.000000	138.620690	0.000000	-1.000000	-1.000000	252177.000000	1772918532.804613
-2273.940000	34499.790000	-14970.645000	-16539.300000	0.000000	0.000000	0.000000	0.000000	-92.449820	-16.784777	-139.011778	-143.446769	0.000000	0.000000	-0.000000	0.000000	5.859840	0.595140	-1.342880	-0.009582	0.907713	0.405578	-1.000000	-1.000000	-1.000000	-1.000000	-1.000000	-1.000000	-1.000000	138.620690	0.000000	-1.000000	-1.000000	252178.000000	1772918532.808574
-2236.545000	34556.310000	-14913.270000	-16476.525000	0.000000	0.000000	0.000000	0.000000	-114.373925	-77.011962	-179.773494	-187.037425	0.000000	0.000000	-0.000000	0.000000	5.859840	0.595140	-1.342880	-0.009582	0.907713	0.405578	-1.000000	-1.000000	-1.000000	-1.000000	-1.000000	-1.000000	-1.000000	138.620690	0.000000	-1.000000	-1.000000	252179.000000	1772918532.808577
-2151.270000	34645.320000	-14789.520000	-16348.185000	0.000000	0.000000	0.000000	0.000000	-72.666384	-97.964565	-121.418428	-126.696736	0.000000	0.000000	-0.000000	0.000000	6.546540	0.747740	-1.388660	-0.010010	0.907896	0.405456	-1.000000	-1.000000	-1.000000	-1.000000	-1.000000	-1.000000	-1.000000	138.620690	0.000000	-1.000000	-1.000000	252180.000000	1772918532.812590
-2025.540000	34727.760000	-14598.270000	-16144.245000	0.000000	0.000000	0.000000	0.000000	11.365456	-73.595038	3.799901	4.108795	0.000000	0.000000	-0.000000	0.000000	6.546540	0.747740	-1.388660	-0.010010	0.907896	0.405456	-1.000000	-1.000000	-1.000000	-1.000000	-1.000000	-1.000000	-1.000000	138.620690	0.000000	-1.000000	-1.000000	252181.000000	1772918532.812593
-2033.460000	34794.945000	-14604.795000	-16150.005000	0.000000	0.000000	0.000000	0.000000	93.634141	-22.425651	129.474536	135.743199	0.000000	0.000000	-0.000000	0.000000	6.546540	0.747740	-1.388660	-0.010010	0.907896	0.405456	-1.000000	-1.000000	-1.000000	-1.000000	-1.000000	-1.000000	-1.000000	138.620690	0.000000	-1.000000	-1.000000	252182.000000	1772918532.816657
-2087.640000	34862.265000	-14685.255000	-16235.955000	0.000000	0.000000	0.000000	0.000000	129.268681	26.101834	187.783187	196.884933	0.000000	0.000000	-0.000000	0.000000	6.546540	0.747740	-1.388660	-0.010010	0.907896	0.405456	-1.000000	-1.000000	-1.000000	-1.000000	-1.000000	-1.000000	-1.000000	138.620690	0.000000	-1.000000	-1.000000	252183.000000	1772918532.816659
-2186.415000	34890.480000	-14813.865000	-16366.140000	0.000000	0.000000	0.000000	0.000000	96.732494	49.472233	145.188650	152.099428	0.000000	0.000000	-0.000000	0.000000	6.546540	0.747740	-1.388660	-0.010010	0.907896	0.405456	-1.000000	-1.000000	-1.000000	-1.000000	-1.000000	-1.000000	-1.000000	138.620690	0.000000	-1.000000	-1.000000	252184.000000	1772918532.820626
-2307.420000	34791.885000	-15005.025000	-16567.515000	0.000000	0.000000	0.000000	0.000000	12.322641	39.347011	24.311508	25.118178	0.000000	0.000000	-0.000000	0.000000	6.546540	0.747740	-1.388660	-0.010010	0.907896	0.405456	-1.000000	-1.000000	-1.000000	-1.000000	-1.000000	-1.000000	-1.000000	138.620690	0.000000	-1.000000	-1.000000	252185.000000	1772918532.820628
-2281.905000	34632.090000	-15002.865000	-16560.495000	0.000000	0.000000	0.000000	0.000000	-78.139688	-1.357914	-109.128414	-114.934894	0.000000	0.000000	-0.000000	0.000000	6.546540	0.747740	-1.388660	-0.010010	0.907896	0.405456	-1.000000	-1.000000	-1.000000	-1.000000	-1.000000	-1.000000	-1.000000	138.620690	0.000000	-1.000000	-1.000000	252186.000000	1772918532.827428
-2249.910000	34650.450000	-14952.420000	-16502.985000	0.000000	0.000000	0.000000	0.000000	-124.163314	-55.103049	-181.776245	-190.958837	0.000000	0.000000	-0.000000	0.000000	6.546540	0.747740	-1.388660	-0.010010	0.907896	0.405456	-1.000000	-1.000000	-1.000000	-1.000000	-1.000000	-1.000000	-1.000000	138.620690	0.000000	-1.000000	-1.000000	252187.000000	1772918532.827431
-2191.410000	34713.450000	-14854.095000	-16407.765000	0.000000	0.000000	0.000000	0.000000	-101.556465	-86.871422	-154.447828	-162.010890	0.000000	0.000000	-0.000000	0.000000	6.546540	0.747740	-1.388660	-0.010010	0.907896	0.405456	-1.000000	-1.000000	-1.000000	-1.000000	-1.000000	-1.000000	-1.000000	138.620690	0.000000	-1.000000	-1.000000	252188.000000	1772918532.829221
-2052.405000	34768.935000	-14636.565000	-16185.015000	0.000000	0.000000	0.000000	0.000000	-26.297778	-67.383167	-44.569292	-47.118157	0.000000	0.000000	-0.000000	0.000000	6.546540	0.747740	-1.388660	-0.010010	0.907896	0.405456	-1.000000	-1.000000	-1.000000	-1.000000	-1.000000	-1.000000	-1.000000	138.620690	0.000000	-1.000000	-1.000000	252189.000000	1772918532.829223
-2017.395000	34796.295000	-14582.565000	-16121.655000	0.000000	0.000000	0.000000	0.000000	60.249563	-3.213992	88.615039	91.381619	0.000000	0.000000	-0.000000	0.000000	6.805960	0.412020	-1.907500	-0.011780	0.907224	0.405272	-1.000000	-1.000000	-1.000000	-1.000000	-1.000000	-1.000000	-1.000000	138.620690	0.000000	-1.000000	-1.000000	252190.000000	1772918532.832694
-2060.190000	34815.330000	-14652.450000	-16191.405000	0.000000	0.000000	0.000000	0.000000	112.885854	67.113961	173.868607	180.090304	0.000000	0.000000	-0.000000	0.000000	6.805960	0.412020	-1.907500	-0.011780	0.907224	0.405272	-1.000000	-1.000000	-1.000000	-1.000000	-1.000000	-1.000000	-1.000000	138.620690	0.000000	-1.000000	-1.000000	252191.000000	1772918532.832696
-2136.735000	34879.680000	-14753.790000	-16302.690000	0.000000	0.000000	0.000000	0.000000	102.946875	105.486312	163.009254	169.573261	0.000000	0.000000	-0.000000	0.000000	6.805960	0.412020	-1.907500	-0.011780	0.907224	0.405272	-1.000000	-1.000000	-1.000000	-1.000000	-1.000000	-1.000000	-1.000000	138.620690	0.000000	-1.000000	-1.000000	252192.000000	1772918532.840333
-2312.055000	34988.355000	-14991.255000	-16555.680000	0.000000	0.000000	0.000000	0.000000	34.513615	100.436432	60.535526	63.724892	0.000000	0.000000	-0.000000	0.000000	6.805960	0.412020	-1.907500	-0.011780	0.907224	0.405272	-1.000000	-1.000000	-1.000000	-1.000000	-1.000000	-1.000000	-1.000000	138.620690	0.000000	-1.000000	-1.000000	252193.000000	1772918532.840335
-2359.980000	34987.680000	-15069.915000	-16645.590000	0.000000	0.000000	0.000000	0.000000	-57.103047	64.903590	-78.960702	-81.803400	0.000000	0.000000	-0.000000	0.000000	6.805960	0.412020	-1.907500	-0.011780	0.907224	0.405272	-1.000000	-1.000000	-1.000000	-1.000000	-1.000000	-1.000000	-1.000000	138.620690	0.000000	-1.000000	-1.000000	252194.000000	1772918532.840339
-2302.920000	34933.860000	-14995.035000	-16565.355000	0.000000	0.000000	0.000000	0.000000	-120.916000	14.936840	-178.457479	-186.678746	0.000000	0.000000	-0.000000	0.000000	6.805960	0.412020	-1.907500	-0.011780	0.907224	0.405272	-1.000000	-1.000000	-1.000000	-1.000000	-1.000000	-1.000000	-1.000000	138.620690	0.000000	-1.000000	-1.000000	252195.000000	1772918532.840341
-2247.480000	34929.720000	-14910.840000	-16477.965000	0.000000	0.000000	0.000000	0.000000	-117.528595	-38.283429	-179.367877	-188.437140	0.000000	0.000000	-0.000000	0.000000	6.805960	0.412020	-1.907500	-0.011780	0.907224	0.405272	-1.000000	-1.000000	-1.000000	-1.000000	-1.000000	-1.000000	-1.000000	138.620690	0.000000	-1.000000	-1.000000	252196.000000	1772918532.844662
-2106.045000	34931.610000	-14709.105000	-16267.905000	0.000000	0.000000	0.000000	0.000000	-46.788359	-79.908865	-79.786017	-83.947968	0.000000	0.000000	-0.000000	0.000000	6.805960	0.412020	-1.907500	-0.011780	0.907224	0.405272	-1.000000	-1.000000	-1.000000	-1.000000	-1.000000	-1.000000	-1.000000	138.620690	0.000000	-1.000000	-1.000000	252197.000000	1772918532.844664
-2032.020000	34979.220000	-14591.520000	-16134.840000	0.000000	0.000000	0.000000	0.000000	52.471111	-92.689724	65.386906	69.423175	0.000000	0.000000	-0.000000	0.000000	6.805960	0.412020	-1.907500	-0.011780	0.907224	0.405272	-1.000000	-1.000000	-1.000000	-1.000000	-1.000000	-1.000000	-1.000000	138.620690	0.000000	-1.000000	-1.000000	252198.000000	1772918532.848656
-2070.270000	35042.535000	-14649.120000	-16196.670000	0.000000	0.000000	0.000000	0.000000	126.028649	-69.475879	177.107163	188.292196	0.000000	0.000000	-0.000000	0.000000	6.805960	0.412020	-1.907500	-0.011780	0.907224	0.405272	-1.000000	-1.000000	-1.000000	-1.000000	-1.000000	-1.000000	-1.000000	138.620690	0.000000	-1.000000	-1.000000	252199.000000	1772918532.848658
-2147.265000	35153.730000	-14750.910000	-16302.330000	0.000000	0.000000	0.000000	0.000000	132.351572	-19.228971	192.863393	206.045125	0.000000	0.000000	-0.000000	0.000000	7.172200	-0.167860	-0.961380	-0.012939	0.906553	0.404296	-1.000000	-1.000000	-1.000000	-1.000000	-1.000000	-1.000000	-1.000000	138.620690	0.000000	-1.000000	-1.000000	252200.000000	1772918532.852754
-2299.635000	35246.655000	-14943.015000	-16499.655000	0.000000	0.000000	0.000000	0.000000	66.256989	37.517828	102.851921	111.366706	0.000000	0.000000	-0.000000	0.000000	7.172200	-0.167860	-0.961380	-0.012939	0.906553	0.404296	-1.000000	-1.000000	-1.000000	-1.000000	-1.000000	-1.000000	-1.000000	138.620690	0.000000	-1.000000	-1.000000	252201.000000	1772918532.852759
-2373.255000	35162.010000	-15080.265000	-16648.920000	0.000000	0.000000	0.000000	0.000000	-37.207615	74.680888	-43.780654	-44.250772	0.000000	0.000000	-0.000000	0.000000	7.172200	-0.167860	-0.961380	-0.012939	0.906553	0.404296	-1.000000	-1.000000	-1.000000	-1.000000	-1.000000	-1.000000	-1.000000	138.620690	0.000000	-1.000000	-1.000000	252202.000000	1772918532.856724
-2336.670000	35100.495000	-15037.020000	-16602.840000	0.000000	0.000000	0.000000	0.000000	-121.038062	69.370968	-166.904429	-176.055069	0.000000	0.000000	-0.000000	0.000000	7.172200	-0.167860	-0.961380	-0.012939	0.906553	0.404296	-1.000000	-1.000000	-1.000000	-1.000000	-1.000000	-1.000000	-1.000000	138.620690	0.000000	-1.000000	-1.000000	252203.000000	1772918532.856728
-2308.410000	35180.505000	-14982.885000	-16545.060000	0.000000	0.000000	0.000000	0.000000	-138.180720	23.222079	-198.667402	-211.797555	0.000000	0.000000	-0.000000	0.000000	7.172200	-0.167860	-0.961380	-0.012939	0.906553	0.404296	-1.000000	-1.000000	-1.000000	-1.000000	-1.000000	-1.000000	-1.000000	138.620690	0.000000	-1.000000	-1.000000	252204.000000	1772918532.860465
-2200.905000	35217.810000	-14830.290000	-16389.000000	0.000000	0.000000	0.000000	0.000000	-81.135029	-29.866692	-123.384231	-133.955675	0.000000	0.000000	-0.000000	0.000000	7.172200	-0.167860	-0.961380	-0.012939	0.906553	0.404296	-1.000000	-1.000000	-1.000000	-1.000000	-1.000000	-1.000000	-1.000000	138.620690	0.000000	-1.000000	-1.000000	252205.000000	1772918532.860471
-2072.070000	35247.150000	-14642.910000	-16186.770000	0.000000	0.000000	0.000000	0.000000	17.225485	-54.375332	16.317554	13.126498	0.000000	0.000000	-0.000000	0.000000	7.172200	-0.167860	-0.961380	-0.012939	0.906553	0.404296	-1.000000	-1.000000	-1.000000	-1.000000	-1.000000	-1.000000	-1.000000	138.620690	0.000000	-1.000000	-1.000000	252206.000000	1772918532.867025
-2104.605000	35346.015000	-14671.440000	-16213.680000	0.000000	0.000000	0.000000	0.000000	105.612959	-41.958811	146.965561	152.136131	0.000000	0.000000	-0.000000	0.000000	7.172200	-0.167860	-0.961380	-0.012939	0.906553	0.404296	-1.000000	-1.000000	-1.000000	-1.000000	-1.000000	-1.000000	-1.000000	138.620690	0.000000	-1.000000	-1.000000	252207.000000	1772918532.867029
-2140.155000	35305.470000	-14720.130000	-16267.725000	0.000000	0.000000	0.000000	0.000000	137.774730	-8.635706	199.533367	209.887708	0.000000	0.000000	-0.000000	0.000000	7.172200	-0.167860	-0.961380	-0.012939	0.906553	0.404296	-1.000000	-1.000000	-1.000000	-1.000000	-1.000000	-1.000000	-1.000000	138.620690	0.000000	-1.000000	-1.000000	252208.000000	1772918532.868808
-2221.695000	35275.725000	-14849.010000	-16401.015000	0.000000	0.000000	0.000000	0.000000	97.213842	19.200605	146.430679	156.115072	0.000000	0.000000	-0.000000	0.000000	7.172200	-0.167860	-0.961380	-0.012939	0.906553	0.404296	-1.000000	-1.000000	-1.000000	-1.000000	-1.000000	-1.000000	-1.000000	138.620690	0.000000	-1.000000	-1.000000	252209.000000	1772918532.868811
-2353.995000	35253.900000	-15056.145000	-16621.110000	0.000000	0.000000	0.000000	0.000000	7.312044	22.665995	17.414521	21.121824	0.000000	0.000000	-0.000000	0.000000	8.072540	0.000000	-0.701960	-0.012268	0.907835	0.404845	-1.000000	-1.000000	-1.000000	-1.000000	-1.000000	-1.000000	-1.000000	138.620690	0.000000	-1.000000	-1.000000	252210.000000	1772918532.872462
-2350.890000	35243.685000	-15068.025000	-16633.440000	0.000000	0.000000	0.000000	0.000000	-84.448080	4.756044	-120.070026	-124.186260	0.000000	0.000000	-0.000000	0.000000	8.072540	0.000000	-0.701960	-0.012268	0.907835	0.404845	-1.000000	-1.000000	-1.000000	-1.000000	-1.000000	-1.000000	-1.000000	138.620690	0.000000	-1.000000	-1.000000	252211.000000	1772918532.872466
-2295.405000	35212.905000	-14988.510000	-16550.190000	0.000000	0.000000	0.000000	0.000000	-130.020149	-16.672251	-193.320824	-202.667928	0.000000	0.000000	-0.000000	0.000000	8.072540	0.000000	-0.701960	-0.012268	0.907835	0.404845	-1.000000	-1.000000	-1.000000	-1.000000	-1.000000	-1.000000	-1.000000	138.620690	0.000000	-1.000000	-1.000000	252212.000000	1772918532.895811
-2202.480000	35128.980000	-14855.580000	-16414.605000	0.000000	0.000000	0.000000	0.000000	-105.010081	-27.702636	-161.618283	-170.699257	0.000000	0.000000	-0.000000	0.000000	8.072540	0.000000	-0.701960	-0.012268	0.907835	0.404845	-1.000000	-1.000000	-1.000000	-1.000000	-1.000000	-1.000000	-1.000000	138.620690	0.000000	-1.000000	-1.000000	252213.000000	1772918532.895815
-2018.565000	34989.390000	-14600.970000	-16148.430000	0.000000	0.000000	0.000000	0.000000	-22.962912	-28.227143	-41.419845	-45.166811	0.000000	0.000000	-0.000000	0.000000	8.072540	0.000000	-0.701960	-0.012268	0.907835	0.404845	-1.000000	-1.000000	-1.000000	-1.000000	-1.000000	-1.000000	-1.000000	138.620690	0.000000	-1.000000	-1.000000	252214.000000	1772918532.895819
-1982.295000	34931.430000	-14548.770000	-16088.940000	0.000000	0.000000	0.000000	0.000000	73.123987	-24.865698	103.586651	107.189425	0.000000	0.000000	-0.000000	0.000000	8.072540	0.000000	-0.701960	-0.012268	0.907835	0.404845	-1.000000	-1.000000	-1.000000	-1.000000	-1.000000	-1.000000	-1.000000	138.620690	0.000000	-1.000000	-1.000000	252215.000000	1772918532.895821
-2029.995000	34924.725000	-14619.465000	-16161.975000	0.000000	0.000000	0.000000	0.000000	130.776402	-16.906123	193.752081	202.884606	0.000000	0.000000	-0.000000	0.000000	8.072540	0.000000	-0.701960	-0.012268	0.907835	0.404845	-1.000000	-1.000000	-1.000000	-1.000000	-1.000000	-1.000000	-1.000000	138.620690	0.000000	-1.000000	-1.000000	252216.000000	1772918532.895825
-2087.190000	34864.425000	-14709.690000	-16255.395000	0.000000	0.000000	0.000000	0.000000	115.577188	1.962618	176.260036	186.125528	0.000000	0.000000	-0.000000	0.000000	8.072540	0.000000	-0.701960	-0.012268	0.907835	0.404845	-1.000000	-1.000000	-1.000000	-1.000000	-1.000000	-1.000000	-1.000000	138.620690	0.000000	-1.000000	-1.000000	252217.000000	1772918532.895827
-2202.480000	34696.575000	-14898.465000	-16453.980000	0.000000	0.000000	0.000000	0.000000	35.222595	26.617374	60.405325	65.722984	0.000000	0.000000	-0.000000	0.000000	8.072540	0.000000	-0.701960	-0.012268	0.907835	0.404845	-1.000000	-1.000000	-1.000000	-1.000000	-1.000000	-1.000000	-1.000000	138.620690	0.000000	-1.000000	-1.000000	252218.000000	1772918532.895830
-2228.310000	34540.470000	-14952.195000	-16512.300000	0.000000	0.000000	0.000000	0.000000	-65.273365	38.456726	-89.127383	-91.236152	0.000000	0.000000	-0.000000	0.000000	8.072540	0.000000	-0.701960	-0.012268	0.907835	0.404845	-1.000000	-1.000000	-1.000000	-1.000000	-1.000000	-1.000000	-1.000000	138.620690	0.000000	-1.000000	-1.000000	252219.000000	1772918532.895832
-2175.840000	34423.920000	-14873.130000	-16428.735000	0.000000	0.000000	0.000000	0.000000	-130.711478	26.823440	-190.218541	-198.590555	0.000000	0.000000	-0.000000	0.000000	8.530340	0.213640	-0.961380	-0.010986	0.907590	0.404357	-1.000000	-1.000000	-1.000000	-1.000000	-1.000000	-1.000000	-1.000000	138.620690	0.000000	-1.000000	-1.000000	252220.000000	1772918532.897825
-2127.420000	34400.970000	-14789.925000	-16347.240000	0.000000	0.000000	0.000000	0.000000	-126.404887	4.236782	-187.992235	-198.065937	0.000000	0.000000	-0.000000	0.000000	8.530340	0.213640	-0.961380	-0.010986	0.907590	0.404357	-1.000000	-1.000000	-1.000000	-1.000000	-1.000000	-1.000000	-1.000000	138.620690	0.000000	-1.000000	-1.000000	252221.000000	1772918532.897828
-2000.700000	34461.720000	-14602.230000	-16153.200000	0.000000	0.000000	0.000000	0.000000	-57.667437	-3.822219	-86.831171	-93.497759	0.000000	0.000000	-0.000000	0.000000	8.530340	0.213640	-0.961380	-0.010986	0.907590	0.404357	-1.000000	-1.000000	-1.000000	-1.000000	-1.000000	-1.000000	-1.000000	138.620690	0.000000	-1.000000	-1.000000	252222.000000	1772918532.897833
-1947.690000	34571.160000	-14520.240000	-16061.220000	0.000000	0.000000	0.000000	0.000000	36.718093	18.387029	55.628401	55.326044	0.000000	0.000000	-0.000000	0.000000	8.530340	0.213640	-0.961380	-0.010986	0.907590	0.404357	-1.000000	-1.000000	-1.000000	-1.000000	-1.000000	-1.000000	-1.000000	138.620690	0.000000	-1.000000	-1.000000	252223.000000	1772918532.897836
-1994.220000	34663.545000	-14584.230000	-16131.240000	0.000000	0.000000	0.000000	0.000000	106.768457	62.120978	162.285328	168.081738	0.000000	0.000000	-0.000000	0.000000	8.530340	0.213640	-0.961380	-0.010986	0.907590	0.404357	-1.000000	-1.000000	-1.000000	-1.000000	-1.000000	-1.000000	-1.000000	138.620690	0.000000	-1.000000	-1.000000	252224.000000	1772918532.900867
-2056.590000	34680.015000	-14667.480000	-16217.280000	0.000000	0.000000	0.000000	0.000000	115.836518	97.505711	176.444048	184.950240	0.000000	0.000000	-0.000000	0.000000	8.530340	0.213640	-0.961380	-0.010986	0.907590	0.404357	-1.000000	-1.000000	-1.000000	-1.000000	-1.000000	-1.000000	-1.000000	138.620690	0.000000	-1.000000	-1.000000	252225.000000	1772918532.900870
-2180.295000	34613.145000	-14842.890000	-16398.045000	0.000000	0.000000	0.000000	0.000000	61.255306	92.351836	93.954469	100.438298	0.000000	0.000000	-0.000000	0.000000	8.530340	0.213640	-0.961380	-0.010986	0.907590	0.404357	-1.000000	-1.000000	-1.000000	-1.000000	-1.000000	-1.000000	-1.000000	138.620690	0.000000	-1.000000	-1.000000	252226.000000	1772918532.909154
-2225.565000	34392.645000	-14943.105000	-16507.980000	0.000000	0.000000	0.000000	0.000000	-24.330080	32.724676	-36.412876	-35.246041	0.000000	0.000000	-0.000000	0.000000	8.530340	0.213640	-0.961380	-0.010986	0.907590	0.404357	-1.000000	-1.000000	-1.000000	-1.000000	-1.000000	-1.000000	-1.000000	138.620690	0.000000	-1.000000	-1.000000	252227.000000	1772918532.909157
-2145.330000	34165.575000	-14857.515000	-16418.340000	0.000000	0.000000	0.000000	0.000000	-90.921938	-66.963294	-141.221240	-145.546856	0.000000	0.000000	-0.000000	0.000000	8.530340	0.213640	-0.961380	-0.010986	0.907590	0.404357	-1.000000	-1.000000	-1.000000	-1.000000	-1.000000	-1.000000	-1.000000	138.620690	0.000000	-1.000000	-1.000000	252228.000000	1772918532.909162
-2081.025000	34028.280000	-14776.155000	-16328.655000	0.000000	0.000000	0.000000	0.000000	-98.952757	-164.949037	-161.068077	-167.834192	0.000000	0.000000	-0.000000	0.000000	8.530340	0.213640	-0.961380	-0.010986	0.907590	0.404357	-1.000000	-1.000000	-1.000000	-1.000000	-1.000000	-1.000000	-1.000000	138.620690	0.000000	-1.000000	-1.000000	252229.000000	1772918532.909164
-1975.140000	33992.730000	-14621.805000	-16161.840000	0.000000	0.000000	0.000000	0.000000	-45.534243	-207.839457	-86.817382	-91.317877	0.000000	0.000000	-0.000000	0.000000	9.400160	0.732480	-1.754900	-0.009949	0.907224	0.403319	-1.000000	-1.000000	-1.000000	-1.000000	-1.000000	-1.000000	-1.000000	138.620690	0.000000	-1.000000	-1.000000	252230.000000	1772918532.912679
-1880.820000	34087.185000	-14463.630000	-15994.845000	0.000000	0.000000	0.000000	0.000000	35.220658	-161.315234	36.643607	37.849995	0.000000	0.000000	-0.000000	0.000000	9.400160	0.732480	-1.754900	-0.009949	0.907224	0.403319	-1.000000	-1.000000	-1.000000	-1.000000	-1.000000	-1.000000	-1.000000	138.620690	0.000000	-1.000000	-1.000000	252231.000000	1772918532.912682
-1907.055000	34110.855000	-14478.525000	-16019.415000	0.000000	0.000000	0.000000	0.000000	96.302947	-36.730578	140.698779	147.239092	0.000000	0.000000	-0.000000	0.000000	9.400160	0.732480	-1.754900	-0.009949	0.907224	0.403319	-1.000000	-1.000000	-1.000000	-1.000000	-1.000000	-1.000000	-1.000000	138.620690	0.000000	-1.000000	-1.000000	252232.000000	1772918532.916969
-1943.190000	34020.585000	-14531.625000	-16080.030000	0.000000	0.000000	0.000000	0.000000	103.114905	106.384105	168.408727	175.841433	0.000000	0.000000	-0.000000	0.000000	9.400160	0.732480	-1.754900	-0.009949	0.907224	0.403319	-1.000000	-1.000000	-1.000000	-1.000000	-1.000000	-1.000000	-1.000000	138.620690	0.000000	-1.000000	-1.000000	252233.000000	1772918532.916971
-2053.260000	34015.230000	-14686.920000	-16239.015000	0.000000	0.000000	0.000000	0.000000	51.210520	194.602700	103.601304	106.480748	0.000000	0.000000	-0.000000	0.000000	9.400160	0.732480	-1.754900	-0.009949	0.907224	0.403319	-1.000000	-1.000000	-1.000000	-1.000000	-1.000000	-1.000000	-1.000000	138.620690	0.000000	-1.000000	-1.000000	252234.000000	1772918532.920767
-2214.810000	34099.470000	-14919.930000	-16487.055000	0.000000	0.000000	0.000000	0.000000	-33.380659	194.252185	-21.764319	-25.952418	0.000000	0.000000	-0.000000	0.000000	9.400160	0.732480	-1.754900	-0.009949	0.907224	0.403319	-1.000000	-1.000000	-1.000000	-1.000000	-1.000000	-1.000000	-1.000000	138.620690	0.000000	-1.000000	-1.000000	252235.000000	1772918532.920769
-2240.595000	34236.270000	-14952.420000	-16521.120000	0.000000	0.000000	0.000000	0.000000	-109.397492	130.078833	-145.616808	-155.244303	0.000000	0.000000	-0.000000	0.000000	9.400160	0.732480	-1.754900	-0.009949	0.907224	0.403319	-1.000000	-1.000000	-1.000000	-1.000000	-1.000000	-1.000000	-1.000000	138.620690	0.000000	-1.000000	-1.000000	252236.000000	1772918532.924973
-2213.190000	34314.660000	-14896.935000	-16460.145000	0.000000	0.000000	0.000000	0.000000	-136.656359	51.139670	-201.801830	-212.247242	0.000000	0.000000	-0.000000	0.000000	9.400160	0.732480	-1.754900	-0.009949	0.907224	0.403319	-1.000000	-1.000000	-1.000000	-1.000000	-1.000000	-1.000000	-1.000000	138.620690	0.000000	-1.000000	-1.000000	252237.000000	1772918532.924977
-2119.095000	34311.870000	-14773.725000	-16328.475000	0.000000	0.000000	0.000000	0.000000	-95.610938	-12.184799	-154.321153	-160.081771	0.000000	0.000000	-0.000000	0.000000	9.400160	0.732480	-1.754900	-0.009949	0.907224	0.403319	-1.000000	-1.000000	-1.000000	-1.000000	-1.000000	-1.000000	-1.000000	138.620690	0.000000	-1.000000	-1.000000	252238.000000	1772918532.928994
-1965.060000	34285.095000	-14554.440000	-16089.570000	0.000000	0.000000	0.000000	0.000000	-1.597338	-58.188031	-22.655789	-19.991754	0.000000	0.000000	-0.000000	0.000000	9.400160	0.732480	-1.754900	-0.009949	0.907224	0.403319	-1.000000	-1.000000	-1.000000	-1.000000	-1.000000	-1.000000	-1.000000	138.620690	0.000000	-1.000000	-1.000000	252239.000000	1772918532.928997
-1962.135000	34342.785000	-14534.775000	-16069.050000	0.000000	0.000000	0.000000	0.000000	100.592879	-92.242599	127.175883	138.178636	0.000000	0.000000	-0.000000	0.000000	8.286180	0.778260	-1.403920	-0.011230	0.908872	0.401488	-1.000000	-1.000000	-1.000000	-1.000000	-1.000000	-1.000000	-1.000000	138.620690	0.000000	-1.000000	-1.000000	252240.000000	1772918532.933760
-2025.900000	34441.335000	-14610.465000	-16159.005000	0.000000	0.000000	0.000000	0.000000	156.619276	-107.334572	215.165131	229.761119	0.000000	0.000000	-0.000000	0.000000	8.286180	0.778260	-1.403920	-0.011230	0.908872	0.401488	-1.000000	-1.000000	-1.000000	-1.000000	-1.000000	-1.000000	-1.000000	138.620690	0.000000	-1.000000	-1.000000	252241.000000	1772918532.933763
-2084.625000	34432.290000	-14706.045000	-16258.500000	0.000000	0.000000	0.000000	0.000000	133.889489	-93.274273	191.986467	202.522687	0.000000	0.000000	-0.000000	0.000000	8.286180	0.778260	-1.403920	-0.011230	0.908872	0.401488	-1.000000	-1.000000	-1.000000	-1.000000	-1.000000	-1.000000	-1.000000	138.620690	0.000000	-1.000000	-1.000000	252242.000000	1772918532.936879
-2186.955000	34245.495000	-14890.680000	-16450.110000	0.000000	0.000000	0.000000	0.000000	45.576871	-60.217560	71.558007	72.281606	0.000000	0.000000	-0.000000	0.000000	8.286180	0.778260	-1.403920	-0.011230	0.908872	0.401488	-1.000000	-1.000000	-1.000000	-1.000000	-1.000000	-1.000000	-1.000000	138.620690	0.000000	-1.000000	-1.000000	252243.000000	1772918532.936882
-2201.850000	34104.420000	-14935.320000	-16492.995000	0.000000	0.000000	0.000000	0.000000	-58.888677	-36.102914	-79.656143	-88.723266	0.000000	0.000000	-0.000000	0.000000	8.286180	0.778260	-1.403920	-0.011230	0.908872	0.401488	-1.000000	-1.000000	-1.000000	-1.000000	-1.000000	-1.000000	-1.000000	138.620690	0.000000	-1.000000	-1.000000	252244.000000	1772918532.940910
-2166.030000	34044.030000	-14867.325000	-16423.155000	0.000000	0.000000	0.000000	0.000000	-124.877973	-33.550596	-181.219783	-194.734903	0.000000	0.000000	-0.000000	0.000000	8.286180	0.778260	-1.403920	-0.011230	0.908872	0.401488	-1.000000	-1.000000	-1.000000	-1.000000	-1.000000	-1.000000	-1.000000	138.620690	0.000000	-1.000000	-1.000000	252245.000000	1772918532.940913
-2115.180000	34047.585000	-14778.045000	-16340.085000	0.000000	0.000000	0.000000	0.000000	-122.137155	-33.678666	-181.398327	-192.548109	0.000000	0.000000	-0.000000	0.000000	8.286180	0.778260	-1.403920	-0.011230	0.908872	0.401488	-1.000000	-1.000000	-1.000000	-1.000000	-1.000000	-1.000000	-1.000000	138.620690	0.000000	-1.000000	-1.000000	252246.000000	1772918532.947284
-1952.415000	33991.830000	-14547.240000	-16105.050000	0.000000	0.000000	0.000000	0.000000	-57.985205	-11.617360	-85.050637	-89.586901	0.000000	0.000000	-0.000000	0.000000	8.286180	0.778260	-1.403920	-0.011230	0.908872	0.401488	-1.000000	-1.000000	-1.000000	-1.000000	-1.000000	-1.000000	-1.000000	138.620690	0.000000	-1.000000	-1.000000	252247.000000	1772918532.947287
-1896.525000	34024.455000	-14455.485000	-16004.520000	0.000000	0.000000	0.000000	0.000000	31.757918	33.998773	53.367709	55.993360	0.000000	0.000000	-0.000000	0.000000	8.286180	0.778260	-1.403920	-0.011230	0.908872	0.401488	-1.000000	-1.000000	-1.000000	-1.000000	-1.000000	-1.000000	-1.000000	138.620690	0.000000	-1.000000	-1.000000	252248.000000	1772918532.949036
-1941.930000	34051.905000	-14515.470000	-16067.790000	0.000000	0.000000	0.000000	0.000000	99.465759	83.443654	158.251573	166.024476	0.000000	0.000000	-0.000000	0.000000	8.286180	0.778260	-1.403920	-0.011230	0.908872	0.401488	-1.000000	-1.000000	-1.000000	-1.000000	-1.000000	-1.000000	-1.000000	138.620690	0.000000	-1.000000	-1.000000	252249.000000	1772918532.949038
-2001.690000	34030.080000	-14597.685000	-16148.745000	0.000000	0.000000	0.000000	0.000000	107.243873	113.490112	170.496880	179.880533	0.000000	0.000000	-0.000000	0.000000	5.814060	0.610400	-1.541260	-0.012634	0.911680	0.399169	-1.000000	-1.000000	-1.000000	-1.000000	-1.000000	-1.000000	-1.000000	138.620690	0.000000	-1.000000	-1.000000	252250.000000	1772918532.953012
-2099.880000	33888.285000	-14770.395000	-16324.515000	0.000000	0.000000	0.000000	0.000000	51.512278	106.142099	84.102727	91.258476	0.000000	0.000000	-0.000000	0.000000	5.814060	0.610400	-1.541260	-0.012634	0.911680	0.399169	-1.000000	-1.000000	-1.000000	-1.000000	-1.000000	-1.000000	-1.000000	138.620690	0.000000	-1.000000	-1.000000	252251.000000	1772918532.953015
-2164.005000	33746.580000	-14888.340000	-16452.045000	0.000000	0.000000	0.000000	0.000000	-34.111777	55.605384	-51.018335	-48.711394	0.000000	0.000000	-0.000000	0.000000	5.814060	0.610400	-1.541260	-0.012634	0.911680	0.399169	-1.000000	-1.000000	-1.000000	-1.000000	-1.000000	-1.000000	-1.000000	138.620690	0.000000	-1.000000	-1.000000	252252.000000	1772918532.957069
-2161.395000	33779.385000	-14867.595000	-16425.720000	0.000000	0.000000	0.000000	0.000000	-101.081395	-18.931047	-160.138014	-163.118165	0.000000	0.000000	-0.000000	0.000000	5.814060	0.610400	-1.541260	-0.012634	0.911680	0.399169	-1.000000	-1.000000	-1.000000	-1.000000	-1.000000	-1.000000	-1.000000	138.620690	0.000000	-1.000000	-1.000000	252253.000000	1772918532.957071
-2120.265000	33780.870000	-14791.770000	-16348.455000	0.000000	0.000000	0.000000	0.000000	-113.338535	-75.743813	-183.349861	-189.520752	0.000000	0.000000	-0.000000	0.000000	5.814060	0.610400	-1.541260	-0.012634	0.911680	0.399169	-1.000000	-1.000000	-1.000000	-1.000000	-1.000000	-1.000000	-1.000000	138.620690	0.000000	-1.000000	-1.000000	252254.000000	1772918532.959966
-1983.330000	33703.245000	-14601.420000	-16153.065000	0.000000	0.000000	0.000000	0.000000	-64.770673	-84.523051	-107.476863	-113.214839	0.000000	0.000000	-0.000000	0.000000	5.814060	0.610400	-1.541260	-0.012634	0.911680	0.399169	-1.000000	-1.000000	-1.000000	-1.000000	-1.000000	-1.000000	-1.000000	138.620690	0.000000	-1.000000	-1.000000	252255.000000	1772918532.959968
-1862.595000	33706.035000	-14432.760000	-15974.865000	0.000000	0.000000	0.000000	0.000000	20.741119	-52.094250	28.404273	26.133646	0.000000	0.000000	-0.000000	0.000000	5.814060	0.610400	-1.541260	-0.012634	0.911680	0.399169	-1.000000	-1.000000	-1.000000	-1.000000	-1.000000	-1.000000	-1.000000	138.620690	0.000000	-1.000000	-1.000000	252256.000000	1772918532.965014
-1873.485000	33699.330000	-14459.670000	-16004.565000	0.000000	0.000000	0.000000	0.000000	100.079903	-5.896051	153.134111	155.194849	0.000000	0.000000	-0.000000	0.000000	5.814060	0.610400	-1.541260	-0.012634	0.911680	0.399169	-1.000000	-1.000000	-1.000000	-1.000000	-1.000000	-1.000000	-1.000000	138.620690	0.000000	-1.000000	-1.000000	252257.000000	1772918532.965016
-1920.105000	33660.045000	-14525.640000	-16075.125000	0.000000	0.000000	0.000000	0.000000	129.017844	30.696820	197.713292	202.278757	0.000000	0.000000	-0.000000	0.000000	5.814060	0.610400	-1.541260	-0.012634	0.911680	0.399169	-1.000000	-1.000000	-1.000000	-1.000000	-1.000000	-1.000000	-1.000000	138.620690	0.000000	-1.000000	-1.000000	252258.000000	1772918532.968684
-2028.600000	33611.940000	-14677.875000	-16227.090000	0.000000	0.000000	0.000000	0.000000	88.552924	44.605515	135.963847	139.647465	0.000000	0.000000	-0.000000	0.000000	5.814060	0.610400	-1.541260	-0.012634	0.911680	0.399169	-1.000000	-1.000000	-1.000000	-1.000000	-1.000000	-1.000000	-1.000000	138.620690	0.000000	-1.000000	-1.000000	252259.000000	1772918532.968687
-2120.040000	33415.470000	-14845.590000	-16399.215000	0.000000	0.000000	0.000000	0.000000	-0.730118	31.537002	1.468201	1.776234	0.000000	0.000000	-0.000000	0.000000	4.181240	0.106820	-1.266580	-0.012756	0.911619	0.399108	-1.000000	-1.000000	-1.000000	-1.000000	-1.000000	-1.000000	-1.000000	138.620690	0.000000	-1.000000	-1.000000	252260.000000	1772918532.973036
-2080.350000	33233.085000	-14808.195000	-16359.210000	0.000000	0.000000	0.000000	0.000000	-89.544816	-5.354053	-132.733843	-135.879453	0.000000	0.000000	-0.000000	0.000000	4.181240	0.106820	-1.266580	-0.012756	0.911619	0.399108	-1.000000	-1.000000	-1.000000	-1.000000	-1.000000	-1.000000	-1.000000	138.620690	0.000000	-1.000000	-1.000000	252261.000000	1772918532.973038
-2030.220000	33152.040000	-14734.080000	-16282.890000	0.000000	0.000000	0.000000	0.000000	-127.520963	-50.327124	-192.656405	-197.225845	0.000000	0.000000	-0.000000	0.000000	4.181240	0.106820	-1.266580	-0.012756	0.911619	0.399108	-1.000000	-1.000000	-1.000000	-1.000000	-1.000000	-1.000000	-1.000000	138.620690	0.000000	-1.000000	-1.000000	252262.000000	1772918532.976129
-1970.055000	33209.460000	-14626.980000	-16177.905000	0.000000	0.000000	0.000000	0.000000	-95.179446	-72.582102	-146.659631	-150.038591	0.000000	0.000000	-0.000000	0.000000	4.181240	0.106820	-1.266580	-0.012756	0.911619	0.399108	-1.000000	-1.000000	-1.000000	-1.000000	-1.000000	-1.000000	-1.000000	138.620690	0.000000	-1.000000	-1.000000	252263.000000	1772918532.976133
-1851.570000	33295.230000	-14430.015000	-15974.955000	0.000000	0.000000	0.000000	0.000000	-14.904661	-45.473184	-24.117638	-24.750574	0.000000	0.000000	-0.000000	0.000000	4.181240	0.106820	-1.266580	-0.012756	0.911619	0.399108	-1.000000	-1.000000	-1.000000	-1.000000	-1.000000	-1.000000	-1.000000	138.620690	0.000000	-1.000000	-1.000000	252264.000000	1772918532.981503
-1870.245000	33415.470000	-14436.585000	-15979.005000	0.000000	0.000000	0.000000	0.000000	67.542873	26.914738	106.832839	108.988851	0.000000	0.000000	-0.000000	0.000000	4.181240	0.106820	-1.266580	-0.012756	0.911619	0.399108	-1.000000	-1.000000	-1.000000	-1.000000	-1.000000	-1.000000	-1.000000	138.620690	0.000000	-1.000000	-1.000000	252265.000000	1772918532.981505
-1917.450000	33437.745000	-14511.060000	-16053.390000	0.000000	0.000000	0.000000	0.000000	108.117189	106.333229	175.447406	179.321135	0.000000	0.000000	-0.000000	0.000000	4.181240	0.106820	-1.266580	-0.012756	0.911619	0.399108	-1.000000	-1.000000	-1.000000	-1.000000	-1.000000	-1.000000	-1.000000	138.620690	0.000000	-1.000000	-1.000000	252266.000000	1772918532.987728
-1987.290000	33423.840000	-14619.510000	-16163.820000	0.000000	0.000000	0.000000	0.000000	86.729381	144.013202	145.123317	148.936300	0.000000	0.000000	-0.000000	0.000000	4.181240	0.106820	-1.266580	-0.012756	0.911619	0.399108	-1.000000	-1.000000	-1.000000	-1.000000	-1.000000	-1.000000	-1.000000	138.620690	0.000000	-1.000000	-1.000000	252267.000000	1772918532.987731
-2125.125000	33378.390000	-14837.580000	-16390.170000	0.000000	0.000000	0.000000	0.000000	18.026168	113.228120	34.889006	36.734811	0.000000	0.000000	-0.000000	0.000000	4.181240	0.106820	-1.266580	-0.012756	0.911619	0.399108	-1.000000	-1.000000	-1.000000	-1.000000	-1.000000	-1.000000	-1.000000	138.620690	0.000000	-1.000000	-1.000000	252268.000000	1772918532.990626
-2153.790000	33362.055000	-14891.580000	-16447.545000	0.000000	0.000000	0.000000	0.000000	-59.669003	27.734248	-94.674587	-96.001269	0.000000	0.000000	-0.000000	0.000000	4.181240	0.106820	-1.266580	-0.012756	0.911619	0.399108	-1.000000	-1.000000	-1.000000	-1.000000	-1.000000	-1.000000	-1.000000	138.620690	0.000000	-1.000000	-1.000000	252269.000000	1772918532.990634
-2142.405000	33419.610000	-14842.845000	-16393.545000	0.000000	0.000000	0.000000	0.000000	-104.400917	-66.947779	-173.216581	-177.260327	0.000000	0.000000	-0.000000	0.000000	3.296160	0.289940	-1.007160	-0.013428	0.911314	0.399047	-1.000000	-1.000000	-1.000000	-1.000000	-1.000000	-1.000000	-1.000000	138.620690	0.000000	-1.000000	-1.000000	252270.000000	1772918533.021504
-2090.115000	33430.185000	-14746.545000	-16295.895000	0.000000	0.000000	0.000000	0.000000	-91.488978	-123.243214	-156.213307	-160.638080	0.000000	0.000000	-0.000000	0.000000	3.296160	0.289940	-1.007160	-0.013428	0.911314	0.399047	-1.000000	-1.000000	-1.000000	-1.000000	-1.000000	-1.000000	-1.000000	138.620690	0.000000	-1.000000	-1.000000	252271.000000	1772918533.021507
-1924.245000	33396.480000	-14512.770000	-16058.250000	0.000000	0.000000	0.000000	0.000000	-26.637030	-122.690253	-51.088496	-53.143790	0.000000	0.000000	-0.000000	0.000000	3.296160	0.289940	-1.007160	-0.013428	0.911314	0.399047	-1.000000	-1.000000	-1.000000	-1.000000	-1.000000	-1.000000	-1.000000	138.620690	0.000000	-1.000000	-1.000000	252272.000000	1772918533.021533
-1864.215000	33407.505000	-14429.745000	-15971.580000	0.000000	0.000000	0.000000	0.000000	58.791492	-81.499233	87.893479	89.479277	0.000000	0.000000	-0.000000	0.000000	3.296160	0.289940	-1.007160	-0.013428	0.911314	0.399047	-1.000000	-1.000000	-1.000000	-1.000000	-1.000000	-1.000000	-1.000000	138.620690	0.000000	-1.000000	-1.000000	252273.000000	1772918533.021537
-1927.530000	33512.130000	-14510.655000	-16058.565000	0.000000	0.000000	0.000000	0.000000	119.782452	-26.382840	185.562214	189.853477	0.000000	0.000000	-0.000000	0.000000	3.296160	0.289940	-1.007160	-0.013428	0.911314	0.399047	-1.000000	-1.000000	-1.000000	-1.000000	-1.000000	-1.000000	-1.000000	138.620690	0.000000	-1.000000	-1.000000	252274.000000	1772918533.021541
-2013.075000	33630.525000	-14622.570000	-16172.055000	0.000000	0.000000	0.000000	0.000000	118.087681	26.481380	183.794290	188.203170	0.000000	0.000000	-0.000000	0.000000	3.296160	0.289940	-1.007160	-0.013428	0.911314	0.399047	-1.000000	-1.000000	-1.000000	-1.000000	-1.000000	-1.000000	-1.000000	138.620690	0.000000	-1.000000	-1.000000	252275.000000	1772918533.021543
-2164.545000	33696.225000	-14846.805000	-16398.720000	0.000000	0.000000	0.000000	0.000000	49.364833	67.801267	79.585967	81.539913	0.000000	0.000000	-0.000000	0.000000	3.296160	0.289940	-1.007160	-0.013428	0.911314	0.399047	-1.000000	-1.000000	-1.000000	-1.000000	-1.000000	-1.000000	-1.000000	138.620690	0.000000	-1.000000	-1.000000	252276.000000	1772918533.021546
-2211.975000	33588.585000	-14943.420000	-16501.770000	0.000000	0.000000	0.000000	0.000000	-50.034453	82.871171	-71.173999	-72.635423	0.000000	0.000000	-0.000000	0.000000	3.296160	0.289940	-1.007160	-0.013428	0.911314	0.399047	-1.000000	-1.000000	-1.000000	-1.000000	-1.000000	-1.000000	-1.000000	138.620690	0.000000	-1.000000	-1.000000	252277.000000	1772918533.021547
-2183.445000	33563.925000	-14896.215000	-16450.920000	0.000000	0.000000	0.000000	0.000000	-123.721914	57.342323	-185.190185	-189.123542	0.000000	0.000000	-0.000000	0.000000	3.296160	0.289940	-1.007160	-0.013428	0.911314	0.399047	-1.000000	-1.000000	-1.000000	-1.000000	-1.000000	-1.000000	-1.000000	138.620690	0.000000	-1.000000	-1.000000	252278.000000	1772918533.021550
-2153.295000	33618.015000	-14830.380000	-16383.465000	0.000000	0.000000	0.000000	0.000000	-129.666055	0.700124	-198.401193	-202.552311	0.000000	0.000000	-0.000000	0.000000	3.296160	0.289940	-1.007160	-0.013428	0.911314	0.399047	-1.000000	-1.000000	-1.000000	-1.000000	-1.000000	-1.000000	-1.000000	138.620690	0.000000	-1.000000	-1.000000	252279.000000	1772918533.021553
-2039.355000	33684.030000	-14655.150000	-16204.095000	0.000000	0.000000	0.000000	0.000000	-66.572602	-50.620768	-104.988286	-106.951912	0.000000	0.000000	-0.000000	0.000000	2.441600	-0.167860	-0.427280	-0.013123	0.911924	0.399352	-1.000000	-1.000000	-1.000000	-1.000000	-1.000000	-1.000000	-1.000000	138.620690	0.000000	-1.000000	-1.000000	252280.000000	1772918533.021555
-1942.920000	33804.405000	-14510.340000	-16049.160000	0.000000	0.000000	0.000000	0.000000	29.987116	-63.488540	42.919081	44.442615	0.000000	0.000000	-0.000000	0.000000	2.441600	-0.167860	-0.427280	-0.013123	0.911924	0.399352	-1.000000	-1.000000	-1.000000	-1.000000	-1.000000	-1.000000	-1.000000	138.620690	0.000000	-1.000000	-1.000000	252281.000000	1772918533.021557
-1953.360000	33813.495000	-14535.810000	-16075.890000	0.000000	0.000000	0.000000	0.000000	110.328205	-35.147913	167.474162	172.094504	0.000000	0.000000	-0.000000	0.000000	2.441600	-0.167860	-0.427280	-0.013123	0.911924	0.399352	-1.000000	-1.000000	-1.000000	-1.000000	-1.000000	-1.000000	-1.000000	138.620690	0.000000	-1.000000	-1.000000	252282.000000	1772918533.021560
-2001.645000	33776.550000	-14605.155000	-16146.720000	0.000000	0.000000	0.000000	0.000000	133.373675	6.592803	203.356211	208.950434	0.000000	0.000000	-0.000000	0.000000	2.441600	-0.167860	-0.427280	-0.013123	0.911924	0.399352	-1.000000	-1.000000	-1.000000	-1.000000	-1.000000	-1.000000	-1.000000	138.620690	0.000000	-1.000000	-1.000000	252283.000000	1772918533.021562
-2127.600000	33787.530000	-14776.335000	-16320.150000	0.000000	0.000000	0.000000	0.000000	86.955800	28.469625	132.265910	135.844063	0.000000	0.000000	-0.000000	0.000000	2.441600	-0.167860	-0.427280	-0.013123	0.911924	0.399352	-1.000000	-1.000000	-1.000000	-1.000000	-1.000000	-1.000000	-1.000000	138.620690	0.000000	-1.000000	-1.000000	252284.000000	1772918533.021566
-2227.320000	33665.670000	-14936.895000	-16488.180000	0.000000	0.000000	0.000000	0.000000	-4.965009	18.276049	-7.257656	-7.836953	0.000000	0.000000	-0.000000	0.000000	2.441600	-0.167860	-0.427280	-0.013123	0.911924	0.399352	-1.000000	-1.000000	-1.000000	-1.000000	-1.000000	-1.000000	-1.000000	138.620690	0.000000	-1.000000	-1.000000	252285.000000	1772918533.021568
-2183.265000	33541.560000	-14898.105000	-16447.995000	0.000000	0.000000	0.000000	0.000000	-93.285578	-14.931438	-140.934641	-145.734244	0.000000	0.000000	-0.000000	0.000000	2.441600	-0.167860	-0.427280	-0.013123	0.911924	0.399352	-1.000000	-1.000000	-1.000000	-1.000000	-1.000000	-1.000000	-1.000000	138.620690	0.000000	-1.000000	-1.000000	252286.000000	1772918533.025431
-2146.995000	33580.755000	-14847.705000	-16393.995000	0.000000	0.000000	0.000000	0.000000	-128.717061	-49.775168	-196.423095	-203.235570	0.000000	0.000000	-0.000000	0.000000	2.441600	-0.167860	-0.427280	-0.013123	0.911924	0.399352	-1.000000	-1.000000	-1.000000	-1.000000	-1.000000	-1.000000	-1.000000	138.620690	0.000000	-1.000000	-1.000000	252287.000000	1772918533.025434
-2079.360000	33675.480000	-14731.830000	-16275.960000	0.000000	0.000000	0.000000	0.000000	-93.321192	-57.203224	-145.864539	-151.270105	0.000000	0.000000	-0.000000	0.000000	2.441600	-0.167860	-0.427280	-0.013123	0.911924	0.399352	-1.000000	-1.000000	-1.000000	-1.000000	-1.000000	-1.000000	-1.000000	138.620690	0.000000	-1.000000	-1.000000	252288.000000	1772918533.029740
-1986.975000	33882.345000	-14562.360000	-16097.580000	0.000000	0.000000	0.000000	0.000000	-11.266484	-18.159479	-21.372130	-22.689126	0.000000	0.000000	-0.000000	0.000000	2.441600	-0.167860	-0.427280	-0.013123	0.911924	0.399352	-1.000000	-1.000000	-1.000000	-1.000000	-1.000000	-1.000000	-1.000000	138.620690	0.000000	-1.000000	-1.000000	252289.000000	1772918533.029743
-2009.430000	34040.205000	-14578.560000	-16111.395000	0.000000	0.000000	0.000000	0.000000	70.380319	56.389036	108.488634	111.842364	0.000000	0.000000	-0.000000	0.000000	1.403920	0.320460	-0.381500	-0.012329	0.911130	0.400329	-1.000000	-1.000000	-1.000000	-1.000000	-1.000000	-1.000000	-1.000000	138.620690	0.000000	-1.000000	-1.000000	252290.000000	1772918533.032230
-2068.605000	34155.315000	-14671.260000	-16199.145000	0.000000	0.000000	0.000000	0.000000	107.909581	126.723754	174.075984	180.455515	0.000000	0.000000	-0.000000	0.000000	1.403920	0.320460	-0.381500	-0.012329	0.911130	0.400329	-1.000000	-1.000000	-1.000000	-1.000000	-1.000000	-1.000000	-1.000000	138.620690	0.000000	-1.000000	-1.000000	252291.000000	1772918533.032233
-2125.575000	34106.265000	-14774.445000	-16300.395000	0.000000	0.000000	0.000000	0.000000	83.746857	146.464821	141.292758	147.767547	0.000000	0.000000	-0.000000	0.000000	1.403920	0.320460	-0.381500	-0.012329	0.911130	0.400329	-1.000000	-1.000000	-1.000000	-1.000000	-1.000000	-1.000000	-1.000000	138.620690	0.000000	-1.000000	-1.000000	252292.000000	1772918533.037157
-2262.915000	34044.255000	-14979.330000	-16522.065000	0.000000	0.000000	0.000000	0.000000	15.253992	91.922659	32.032646	35.574654	0.000000	0.000000	-0.000000	0.000000	1.403920	0.320460	-0.381500	-0.012329	0.911130	0.400329	-1.000000	-1.000000	-1.000000	-1.000000	-1.000000	-1.000000	-1.000000	138.620690	0.000000	-1.000000	-1.000000	252293.000000	1772918533.037159
-2267.910000	33981.345000	-14994.720000	-16542.675000	0.000000	0.000000	0.000000	0.000000	-58.738516	-18.151670	-91.710765	-93.367408	0.000000	0.000000	-0.000000	0.000000	1.403920	0.320460	-0.381500	-0.012329	0.911130	0.400329	-1.000000	-1.000000	-1.000000	-1.000000	-1.000000	-1.000000	-1.000000	138.620690	0.000000	-1.000000	-1.000000	252294.000000	1772918533.041166
-2192.895000	33857.235000	-14896.575000	-16442.010000	0.000000	0.000000	0.000000	0.000000	-97.250743	-131.452849	-160.727243	-167.612533	0.000000	0.000000	-0.000000	0.000000	1.403920	0.320460	-0.381500	-0.012329	0.911130	0.400329	-1.000000	-1.000000	-1.000000	-1.000000	-1.000000	-1.000000	-1.000000	138.689655	0.000000	-1.000000	-1.000000	252295.000000	1772918533.041169
-2136.915000	33854.220000	-14796.675000	-16345.395000	0.000000	0.000000	0.000000	0.000000	-77.403171	-194.846876	-135.028065	-144.006081	0.000000	0.000000	-0.000000	0.000000	1.403920	0.320460	-0.381500	-0.012329	0.911130	0.400329	-1.000000	-1.000000	-1.000000	-1.000000	-1.000000	-1.000000	-1.000000	138.689655	0.000000	-1.000000	-1.000000	252296.000000	1772918533.044989
-2057.085000	34126.020000	-14637.195000	-16179.345000	0.000000	0.000000	0.000000	0.000000	-11.403415	-175.760505	-30.557008	-37.063655	0.000000	0.000000	-0.000000	0.000000	1.403920	0.320460	-0.381500	-0.012329	0.911130	0.400329	-1.000000	-1.000000	-1.000000	-1.000000	-1.000000	-1.000000	-1.000000	138.689655	0.000000	-1.000000	-1.000000	252297.000000	1772918533.044992
-2017.350000	34222.500000	-14568.075000	-16102.395000	0.000000	0.000000	0.000000	0.000000	61.275561	-73.166911	91.965258	91.240413	0.000000	0.000000	-0.000000	0.000000	1.403920	0.320460	-0.381500	-0.012329	0.911130	0.400329	-1.000000	-1.000000	-1.000000	-1.000000	-1.000000	-1.000000	-1.000000	138.689655	0.000000	-1.000000	-1.000000	252298.000000	1772918533.049088
-2019.510000	34134.930000	-14601.690000	-16137.270000	0.000000	0.000000	0.000000	0.000000	100.625438	64.052755	164.795629	170.335909	0.000000	0.000000	-0.000000	0.000000	1.403920	0.320460	-0.381500	-0.012329	0.911130	0.400329	-1.000000	-1.000000	-1.000000	-1.000000	-1.000000	-1.000000	-1.000000	138.689655	0.000000	-1.000000	-1.000000	252299.000000	1772918533.049092
-2066.940000	34085.970000	-14697.450000	-16226.145000	0.000000	0.000000	0.000000	0.000000	87.359271	154.893613	148.638004	157.895672	0.000000	0.000000	-0.000000	0.000000	2.212700	0.412020	-0.701960	-0.010681	0.909238	0.402282	-1.000000	-1.000000	-1.000000	-1.000000	-1.000000	-1.000000	-1.000000	138.689655	0.000000	-1.000000	-1.000000	252300.000000	1772918533.053190
-2222.460000	34125.435000	-14933.385000	-16461.720000	0.000000	0.000000	0.000000	0.000000	28.283879	152.909795	50.695630	59.619045	0.000000	0.000000	-0.000000	0.000000	2.212700	0.412020	-0.701960	-0.010681	0.909238	0.402282	-1.000000	-1.000000	-1.000000	-1.000000	-1.000000	-1.000000	-1.000000	138.689655	0.000000	-1.000000	-1.000000	252301.000000	1772918533.053192
-2269.935000	34031.115000	-15011.415000	-16552.440000	0.000000	0.000000	0.000000	0.000000	-49.570230	79.011829	-80.638641	-75.671376	0.000000	0.000000	-0.000000	0.000000	2.212700	0.412020	-0.701960	-0.010681	0.909238	0.402282	-1.000000	-1.000000	-1.000000	-1.000000	-1.000000	-1.000000	-1.000000	138.689655	0.000000	-1.000000	-1.000000	252302.000000	1772918533.057208
-2249.415000	34049.925000	-14963.175000	-16507.800000	0.000000	0.000000	0.000000	0.000000	-107.144837	-12.557673	-175.766498	-176.907287	0.000000	0.000000	-0.000000	0.000000	2.212700	0.412020	-0.701960	-0.010681	0.909238	0.402282	-1.000000	-1.000000	-1.000000	-1.000000	-1.000000	-1.000000	-1.000000	138.689655	0.000000	-1.000000	-1.000000	252303.000000	1772918533.057210
-2212.020000	34130.700000	-14892.840000	-16437.510000	0.000000	0.000000	0.000000	0.000000	-111.193890	-73.425585	-179.201826	-186.094337	0.000000	0.000000	-0.000000	0.000000	2.212700	0.412020	-0.701960	-0.010681	0.909238	0.402282	-1.000000	-1.000000	-1.000000	-1.000000	-1.000000	-1.000000	-1.000000	138.689655	0.000000	-1.000000	-1.000000	252304.000000	1772918533.061675
-2088.495000	34193.385000	-14701.320000	-16245.990000	0.000000	0.000000	0.000000	0.000000	-57.029252	-78.839121	-86.448116	-95.841639	0.000000	0.000000	-0.000000	0.000000	2.212700	0.412020	-0.701960	-0.010681	0.909238	0.402282	-1.000000	-1.000000	-1.000000	-1.000000	-1.000000	-1.000000	-1.000000	138.689655	0.000000	-1.000000	-1.000000	252305.000000	1772918533.061678
-2006.595000	34282.125000	-14568.165000	-16103.790000	0.000000	0.000000	0.000000	0.000000	28.361668	-36.736328	54.032509	46.701764	0.000000	0.000000	-0.000000	0.000000	2.212700	0.412020	-0.701960	-0.010681	0.909238	0.402282	-1.000000	-1.000000	-1.000000	-1.000000	-1.000000	-1.000000	-1.000000	138.689655	0.000000	-1.000000	-1.000000	252306.000000	1772918533.064407
-2042.640000	34372.620000	-14625.450000	-16162.470000	0.000000	0.000000	0.000000	0.000000	100.693626	21.229793	168.359477	166.465184	0.000000	0.000000	-0.000000	0.000000	2.212700	0.412020	-0.701960	-0.010681	0.909238	0.402282	-1.000000	-1.000000	-1.000000	-1.000000	-1.000000	-1.000000	-1.000000	138.689655	0.000000	-1.000000	-1.000000	252307.000000	1772918533.064409
-2094.615000	34412.760000	-14704.335000	-16242.390000	0.000000	0.000000	0.000000	0.000000	119.816401	61.898709	193.656069	197.491746	0.000000	0.000000	-0.000000	0.000000	2.212700	0.412020	-0.701960	-0.010681	0.909238	0.402282	-1.000000	-1.000000	-1.000000	-1.000000	-1.000000	-1.000000	-1.000000	138.689655	0.000000	-1.000000	-1.000000	252308.000000	1772918533.068321
-2211.705000	34373.025000	-14870.790000	-16408.170000	0.000000	0.000000	0.000000	0.000000	74.151670	64.835748	115.336191	122.161196	0.000000	0.000000	-0.000000	0.000000	2.212700	0.412020	-0.701960	-0.010681	0.909238	0.402282	-1.000000	-1.000000	-1.000000	-1.000000	-1.000000	-1.000000	-1.000000	138.689655	0.000000	-1.000000	-1.000000	252309.000000	1772918533.068324
-2302.830000	34259.220000	-15035.535000	-16571.745000	0.000000	0.000000	0.000000	0.000000	-11.313895	26.714968	-23.673173	-17.488530	0.000000	0.000000	-0.000000	0.000000	2.685760	0.473060	-1.968540	-0.009582	0.907713	0.402831	-1.000000	-1.000000	-1.000000	-1.000000	-1.000000	-1.000000	-1.000000	138.689655	0.000000	-1.000000	-1.000000	252310.000000	1772918533.074378
-2260.980000	34174.305000	-14988.915000	-16524.360000	0.000000	0.000000	0.000000	0.000000	-89.260345	-36.984093	-148.659459	-145.441623	0.000000	0.000000	-0.000000	0.000000	2.685760	0.473060	-1.968540	-0.009582	0.907713	0.402831	-1.000000	-1.000000	-1.000000	-1.000000	-1.000000	-1.000000	-1.000000	138.689655	0.000000	-1.000000	-1.000000	252311.000000	1772918533.074381
-2211.615000	34152.885000	-14905.755000	-16448.805000	0.000000	0.000000	0.000000	0.000000	-115.322527	-94.355528	-191.179327	-191.433865	0.000000	0.000000	-0.000000	0.000000	2.685760	0.473060	-1.968540	-0.009582	0.907713	0.402831	-1.000000	-1.000000	-1.000000	-1.000000	-1.000000	-1.000000	-1.000000	138.689655	0.000000	-1.000000	-1.000000	252312.000000	1772918533.076441
-2136.510000	34218.360000	-14771.205000	-16317.855000	0.000000	0.000000	0.000000	0.000000	-75.741076	-110.639147	-128.253035	-131.391271	0.000000	0.000000	-0.000000	0.000000	2.685760	0.473060	-1.968540	-0.009582	0.907713	0.402831	-1.000000	-1.000000	-1.000000	-1.000000	-1.000000	-1.000000	-1.000000	138.689655	0.000000	-1.000000	-1.000000	252313.000000	1772918533.076443
-2048.085000	34432.740000	-14613.075000	-16150.455000	0.000000	0.000000	0.000000	0.000000	4.159528	-67.699815	2.875441	-1.755651	0.000000	0.000000	-0.000000	0.000000	2.685760	0.473060	-1.968540	-0.009582	0.907713	0.402831	-1.000000	-1.000000	-1.000000	-1.000000	-1.000000	-1.000000	-1.000000	138.689655	0.000000	-1.000000	-1.000000	252314.000000	1772918533.083422
-2087.640000	34657.605000	-14651.730000	-16191.270000	0.000000	0.000000	0.000000	0.000000	78.132560	24.026937	128.799836	124.915413	0.000000	0.000000	-0.000000	0.000000	2.685760	0.473060	-1.968540	-0.009582	0.907713	0.402831	-1.000000	-1.000000	-1.000000	-1.000000	-1.000000	-1.000000	-1.000000	138.689655	0.000000	-1.000000	-1.000000	252315.000000	1772918533.083425
-2137.680000	34761.285000	-14728.230000	-16270.740000	0.000000	0.000000	0.000000	0.000000	105.060646	123.865866	180.149318	178.834886	0.000000	0.000000	-0.000000	0.000000	2.685760	0.473060	-1.968540	-0.009582	0.907713	0.402831	-1.000000	-1.000000	-1.000000	-1.000000	-1.000000	-1.000000	-1.000000	138.689655	0.000000	-1.000000	-1.000000	252316.000000	1772918533.101574
-2222.910000	34734.150000	-14848.335000	-16389.315000	0.000000	0.000000	0.000000	0.000000	71.656020	174.827253	130.506610	131.774153	0.000000	0.000000	-0.000000	0.000000	2.685760	0.473060	-1.968540	-0.009582	0.907713	0.402831	-1.000000	-1.000000	-1.000000	-1.000000	-1.000000	-1.000000	-1.000000	138.689655	0.000000	-1.000000	-1.000000	252317.000000	1772918533.101577
-2352.555000	34680.645000	-15058.845000	-16606.890000	0.000000	0.000000	0.000000	0.000000	-1.245418	138.498190	10.439934	12.859172	0.000000	0.000000	-0.000000	0.000000	2.685760	0.473060	-1.968540	-0.009582	0.907713	0.402831	-1.000000	-1.000000	-1.000000	-1.000000	-1.000000	-1.000000	-1.000000	138.689655	0.000000	-1.000000	-1.000000	252318.000000	1772918533.101582
-2350.485000	34631.595000	-15070.140000	-16620.255000	0.000000	0.000000	0.000000	0.000000	-73.284783	27.026134	-114.439043	-112.579335	0.000000	0.000000	-0.000000	0.000000	2.685760	0.473060	-1.968540	-0.009582	0.907713	0.402831	-1.000000	-1.000000	-1.000000	-1.000000	-1.000000	-1.000000	-1.000000	138.689655	0.000000	-1.000000	-1.000000	252319.000000	1772918533.101584
-2352.105000	34775.370000	-15039.720000	-16585.560000	0.000000	0.000000	0.000000	0.000000	-105.316143	-98.626560	-177.155213	-176.752839	0.000000	0.000000	-0.000000	0.000000	2.121140	0.030520	-2.151660	-0.010742	0.908628	0.403502	-1.000000	-1.000000	-1.000000	-1.000000	-1.000000	-1.000000	-1.000000	138.689655	0.000000	-1.000000	-1.000000	252320.000000	1772918533.102038
-2295.135000	34896.420000	-14947.200000	-16490.520000	0.000000	0.000000	0.000000	0.000000	-80.163641	-166.459035	-143.847728	-144.319907	0.000000	0.000000	-0.000000	0.000000	2.121140	0.030520	-2.151660	-0.010742	0.908628	0.403502	-1.000000	-1.000000	-1.000000	-1.000000	-1.000000	-1.000000	-1.000000	138.689655	0.000000	-1.000000	-1.000000	252321.000000	1772918533.102041
-2130.030000	34915.770000	-14714.955000	-16247.745000	0.000000	0.000000	0.000000	0.000000	-10.723762	-145.271703	-32.385483	-32.211003	0.000000	0.000000	-0.000000	0.000000	2.121140	0.030520	-2.151660	-0.010742	0.908628	0.403502	-1.000000	-1.000000	-1.000000	-1.000000	-1.000000	-1.000000	-1.000000	138.689655	0.000000	-1.000000	-1.000000	252322.000000	1772918533.102407
-2068.065000	34888.050000	-14644.080000	-16171.470000	0.000000	0.000000	0.000000	0.000000	70.464620	-66.148391	101.042378	103.069687	0.000000	0.000000	-0.000000	0.000000	2.121140	0.030520	-2.151660	-0.010742	0.908628	0.403502	-1.000000	-1.000000	-1.000000	-1.000000	-1.000000	-1.000000	-1.000000	138.689655	0.000000	-1.000000	-1.000000	252323.000000	1772918533.102409
-2115.000000	34920.405000	-14710.230000	-16244.460000	0.000000	0.000000	0.000000	0.000000	122.728732	12.391426	187.148940	190.704301	0.000000	0.000000	-0.000000	0.000000	2.121140	0.030520	-2.151660	-0.010742	0.908628	0.403502	-1.000000	-1.000000	-1.000000	-1.000000	-1.000000	-1.000000	-1.000000	138.689655	0.000000	-1.000000	-1.000000	252324.000000	1772918533.102413
-2188.035000	34959.510000	-14806.935000	-16345.260000	0.000000	0.000000	0.000000	0.000000	113.697077	54.385024	176.066603	178.898704	0.000000	0.000000	-0.000000	0.000000	2.121140	0.030520	-2.151660	-0.010742	0.908628	0.403502	-1.000000	-1.000000	-1.000000	-1.000000	-1.000000	-1.000000	-1.000000	138.689655	0.000000	-1.000000	-1.000000	252325.000000	1772918533.102415
-2306.745000	34841.520000	-14994.720000	-16538.760000	0.000000	0.000000	0.000000	0.000000	42.801339	56.939471	70.469498	69.906225	0.000000	0.000000	-0.000000	0.000000	2.121140	0.030520	-2.151660	-0.010742	0.908628	0.403502	-1.000000	-1.000000	-1.000000	-1.000000	-1.000000	-1.000000	-1.000000	138.689655	0.000000	-1.000000	-1.000000	252326.000000	1772918533.104425
-2313.945000	34629.885000	-15040.620000	-16589.475000	0.000000	0.000000	0.000000	0.000000	-53.161199	28.285312	-73.268423	-78.090256	0.000000	0.000000	-0.000000	0.000000	2.121140	0.030520	-2.151660	-0.010742	0.908628	0.403502	-1.000000	-1.000000	-1.000000	-1.000000	-1.000000	-1.000000	-1.000000	138.689655	0.000000	-1.000000	-1.000000	252327.000000	1772918533.104428
-2253.420000	34508.745000	-14967.225000	-16512.165000	0.000000	0.000000	0.000000	0.000000	-120.182815	-20.086056	-176.288879	-183.584350	0.000000	0.000000	-0.000000	0.000000	2.121140	0.030520	-2.151660	-0.010742	0.908628	0.403502	-1.000000	-1.000000	-1.000000	-1.000000	-1.000000	-1.000000	-1.000000	138.689655	0.000000	-1.000000	-1.000000	252328.000000	1772918533.108477
-2194.560000	34465.455000	-14878.980000	-16422.435000	0.000000	0.000000	0.000000	0.000000	-120.662641	-62.616326	-182.033877	-188.284755	0.000000	0.000000	-0.000000	0.000000	2.121140	0.030520	-2.151660	-0.010742	0.908628	0.403502	-1.000000	-1.000000	-1.000000	-1.000000	-1.000000	-1.000000	-1.000000	138.689655	0.000000	-1.000000	-1.000000	252329.000000	1772918533.108480
-2067.615000	34435.530000	-14672.070000	-16209.360000	0.000000	0.000000	0.000000	0.000000	-57.580688	-67.771528	-90.397254	-92.382809	0.000000	0.000000	-0.000000	0.000000	1.571780	0.350980	-1.861720	-0.011780	0.910032	0.403991	-1.000000	-1.000000	-1.000000	-1.000000	-1.000000	-1.000000	-1.000000	138.689655	0.000000	-1.000000	-1.000000	252330.000000	1772918533.112525
-2002.005000	34512.165000	-14557.320000	-16086.060000	0.000000	0.000000	0.000000	0.000000	31.396179	-23.878531	46.294041	49.753989	0.000000	0.000000	-0.000000	0.000000	1.571780	0.350980	-1.861720	-0.011780	0.910032	0.403991	-1.000000	-1.000000	-1.000000	-1.000000	-1.000000	-1.000000	-1.000000	138.689655	0.000000	-1.000000	-1.000000	252331.000000	1772918533.112527
-2030.220000	34567.245000	-14616.630000	-16148.655000	0.000000	0.000000	0.000000	0.000000	97.629721	51.284102	153.450801	160.973797	0.000000	0.000000	-0.000000	0.000000	1.571780	0.350980	-1.861720	-0.011780	0.910032	0.403991	-1.000000	-1.000000	-1.000000	-1.000000	-1.000000	-1.000000	-1.000000	138.689655	0.000000	-1.000000	-1.000000	252332.000000	1772918533.116472
-2102.805000	34637.445000	-14714.550000	-16247.430000	0.000000	0.000000	0.000000	0.000000	105.571115	121.664918	171.202611	179.332402	0.000000	0.000000	-0.000000	0.000000	1.571780	0.350980	-1.861720	-0.011780	0.910032	0.403991	-1.000000	-1.000000	-1.000000	-1.000000	-1.000000	-1.000000	-1.000000	138.689655	0.000000	-1.000000	-1.000000	252333.000000	1772918533.116475
-2233.620000	34649.415000	-14901.975000	-16437.780000	0.000000	0.000000	0.000000	0.000000	51.496451	151.927168	89.510286	94.389420	0.000000	0.000000	-0.000000	0.000000	1.571780	0.350980	-1.861720	-0.011780	0.910032	0.403991	-1.000000	-1.000000	-1.000000	-1.000000	-1.000000	-1.000000	-1.000000	138.689655	0.000000	-1.000000	-1.000000	252334.000000	1772918533.120388
-2320.515000	34566.345000	-15047.370000	-16593.390000	0.000000	0.000000	0.000000	0.000000	-34.452511	123.967539	-45.508778	-46.105803	0.000000	0.000000	-0.000000	0.000000	1.571780	0.350980	-1.861720	-0.011780	0.910032	0.403991	-1.000000	-1.000000	-1.000000	-1.000000	-1.000000	-1.000000	-1.000000	138.689655	0.000000	-1.000000	-1.000000	252335.000000	1772918533.120391
-2291.040000	34526.430000	-15009.030000	-16551.765000	0.000000	0.000000	0.000000	0.000000	-103.954187	45.236875	-158.445039	-164.152424	0.000000	0.000000	-0.000000	0.000000	1.571780	0.350980	-1.861720	-0.011780	0.910032	0.403991	-1.000000	-1.000000	-1.000000	-1.000000	-1.000000	-1.000000	-1.000000	138.689655	0.000000	-1.000000	-1.000000	252336.000000	1772918533.124486
-2249.730000	34552.665000	-14941.170000	-16481.745000	0.000000	0.000000	0.000000	0.000000	-116.154706	-50.125334	-184.719583	-192.665989	0.000000	0.000000	-0.000000	0.000000	1.571780	0.350980	-1.861720	-0.011780	0.910032	0.403991	-1.000000	-1.000000	-1.000000	-1.000000	-1.000000	-1.000000	-1.000000	138.689655	0.000000	-1.000000	-1.000000	252337.000000	1772918533.124489
-2121.840000	34485.030000	-14762.115000	-16300.080000	0.000000	0.000000	0.000000	0.000000	-62.434545	-118.066304	-107.998157	-114.153608	0.000000	0.000000	-0.000000	0.000000	1.571780	0.350980	-1.861720	-0.011780	0.910032	0.403991	-1.000000	-1.000000	-1.000000	-1.000000	-1.000000	-1.000000	-1.000000	138.689655	0.000000	-1.000000	-1.000000	252338.000000	1772918533.128453
-2008.440000	34546.455000	-14582.430000	-16111.620000	0.000000	0.000000	0.000000	0.000000	29.344359	-132.974817	31.259562	29.843887	0.000000	0.000000	-0.000000	0.000000	1.571780	0.350980	-1.861720	-0.011780	0.910032	0.403991	-1.000000	-1.000000	-1.000000	-1.000000	-1.000000	-1.000000	-1.000000	138.689655	0.000000	-1.000000	-1.000000	252339.000000	1772918533.128456
-2036.205000	34630.020000	-14610.195000	-16138.890000	0.000000	0.000000	0.000000	0.000000	110.645973	-95.782262	159.300270	163.075484	0.000000	0.000000	-0.000000	0.000000	1.083460	0.534100	-2.136400	-0.011353	0.910093	0.404052	-1.000000	-1.000000	-1.000000	-1.000000	-1.000000	-1.000000	-1.000000	138.689655	0.000000	-1.000000	-1.000000	252340.000000	1772918533.133428
-2068.245000	34594.920000	-14667.480000	-16198.245000	0.000000	0.000000	0.000000	0.000000	136.097733	-27.816151	205.657389	212.460114	0.000000	0.000000	-0.000000	0.000000	1.083460	0.534100	-2.136400	-0.011353	0.910093	0.404052	-1.000000	-1.000000	-1.000000	-1.000000	-1.000000	-1.000000	-1.000000	138.689655	0.000000	-1.000000	-1.000000	252341.000000	1772918533.133431
-2154.780000	34545.015000	-14802.300000	-16334.415000	0.000000	0.000000	0.000000	0.000000	90.645435	34.640849	143.716098	149.885249	0.000000	0.000000	-0.000000	0.000000	1.083460	0.534100	-2.136400	-0.011353	0.910093	0.404052	-1.000000	-1.000000	-1.000000	-1.000000	-1.000000	-1.000000	-1.000000	138.689655	0.000000	-1.000000	-1.000000	252342.000000	1772918533.137332
-2308.365000	34552.530000	-15028.695000	-16573.095000	0.000000	0.000000	0.000000	0.000000	-1.688446	61.192339	6.396265	8.709509	0.000000	0.000000	-0.000000	0.000000	1.083460	0.534100	-2.136400	-0.011353	0.910093	0.404052	-1.000000	-1.000000	-1.000000	-1.000000	-1.000000	-1.000000	-1.000000	138.689655	0.000000	-1.000000	-1.000000	252343.000000	1772918533.137334
-2306.025000	34523.325000	-15032.340000	-16578.945000	0.000000	0.000000	0.000000	0.000000	-94.156571	49.472611	-135.562443	-138.395076	0.000000	0.000000	-0.000000	0.000000	1.083460	0.534100	-2.136400	-0.011353	0.910093	0.404052	-1.000000	-1.000000	-1.000000	-1.000000	-1.000000	-1.000000	-1.000000	138.689655	0.000000	-1.000000	-1.000000	252344.000000	1772918533.141421
-2240.640000	34448.760000	-14943.060000	-16485.165000	0.000000	0.000000	0.000000	0.000000	-138.455296	17.913270	-206.989295	-213.549791	0.000000	0.000000	-0.000000	0.000000	1.083460	0.534100	-2.136400	-0.011353	0.910093	0.404052	-1.000000	-1.000000	-1.000000	-1.000000	-1.000000	-1.000000	-1.000000	138.689655	0.000000	-1.000000	-1.000000	252345.000000	1772918533.141424
-2178.045000	34466.535000	-14836.590000	-16375.680000	0.000000	0.000000	0.000000	0.000000	-109.522649	-13.256593	-167.676032	-174.241340	0.000000	0.000000	-0.000000	0.000000	1.083460	0.534100	-2.136400	-0.011353	0.910093	0.404052	-1.000000	-1.000000	-1.000000	-1.000000	-1.000000	-1.000000	-1.000000	138.689655	0.000000	-1.000000	-1.000000	252346.000000	1772918533.145451
-2051.730000	34563.330000	-14640.840000	-16163.280000	0.000000	0.000000	0.000000	0.000000	-23.682986	-26.867317	-39.876294	-42.433415	0.000000	0.000000	-0.000000	0.000000	1.083460	0.534100	-2.136400	-0.011353	0.910093	0.404052	-1.000000	-1.000000	-1.000000	-1.000000	-1.000000	-1.000000	-1.000000	138.689655	0.000000	-1.000000	-1.000000	252347.000000	1772918533.145454
-2025.810000	34649.685000	-14615.955000	-16127.505000	0.000000	0.000000	0.000000	0.000000	72.072191	-12.614372	106.096781	109.712790	0.000000	0.000000	-0.000000	0.000000	1.083460	0.534100	-2.136400	-0.011353	0.910093	0.404052	-1.000000	-1.000000	-1.000000	-1.000000	-1.000000	-1.000000	-1.000000	138.689655	0.000000	-1.000000	-1.000000	252348.000000	1772918533.149359
-2066.805000	34714.035000	-14688.720000	-16207.965000	0.000000	0.000000	0.000000	0.000000	127.260493	21.949722	191.530786	200.166841	0.000000	0.000000	-0.000000	0.000000	1.083460	0.534100	-2.136400	-0.011353	0.910093	0.404052	-1.000000	-1.000000	-1.000000	-1.000000	-1.000000	-1.000000	-1.000000	138.689655	0.000000	-1.000000	-1.000000	252349.000000	1772918533.149361
-2137.410000	34768.845000	-14791.905000	-16323.030000	0.000000	0.000000	0.000000	0.000000	113.688287	52.987501	171.403446	180.254593	0.000000	0.000000	-0.000000	0.000000	1.052940	0.122080	-1.129240	-0.014282	0.907529	0.403747	-1.000000	-1.000000	-1.000000	-1.000000	-1.000000	-1.000000	-1.000000	138.689655	0.000000	-1.000000	-1.000000	252350.000000	1772918533.153350
-2295.855000	34754.940000	-15005.520000	-16545.375000	0.000000	0.000000	0.000000	0.000000	39.912058	57.729145	59.745166	62.865601	0.000000	0.000000	-0.000000	0.000000	1.052940	0.122080	-1.129240	-0.014282	0.907529	0.403747	-1.000000	-1.000000	-1.000000	-1.000000	-1.000000	-1.000000	-1.000000	138.689655	0.000000	-1.000000	-1.000000	252351.000000	1772918533.153353
-2335.230000	34644.960000	-15049.800000	-16598.520000	0.000000	0.000000	0.000000	0.000000	-54.893678	27.435210	-81.330044	-86.804805	0.000000	0.000000	-0.000000	0.000000	1.052940	0.122080	-1.129240	-0.014282	0.907529	0.403747	-1.000000	-1.000000	-1.000000	-1.000000	-1.000000	-1.000000	-1.000000	138.689655	0.000000	-1.000000	-1.000000	252352.000000	1772918533.157407
-2287.485000	34621.020000	-14984.010000	-16532.415000	0.000000	0.000000	0.000000	0.000000	-119.564786	-28.207527	-174.717657	-186.474291	0.000000	0.000000	-0.000000	0.000000	1.052940	0.122080	-1.129240	-0.014282	0.907529	0.403747	-1.000000	-1.000000	-1.000000	-1.000000	-1.000000	-1.000000	-1.000000	138.689655	0.000000	-1.000000	-1.000000	252353.000000	1772918533.157410
-2220.120000	34604.010000	-14898.780000	-16441.695000	0.000000	0.000000	0.000000	0.000000	-117.193138	-81.291455	-169.144554	-181.103109	0.000000	0.000000	-0.000000	0.000000	1.052940	0.122080	-1.129240	-0.014282	0.907529	0.403747	-1.000000	-1.000000	-1.000000	-1.000000	-1.000000	-1.000000	-1.000000	138.689655	0.000000	-1.000000	-1.000000	252354.000000	1772918533.161306
-2101.815000	34693.155000	-14712.750000	-16246.170000	0.000000	0.000000	0.000000	0.000000	-49.259308	-99.334644	-70.332648	-76.108234	0.000000	0.000000	-0.000000	0.000000	1.052940	0.122080	-1.129240	-0.014282	0.907529	0.403747	-1.000000	-1.000000	-1.000000	-1.000000	-1.000000	-1.000000	-1.000000	138.689655	0.000000	-1.000000	-1.000000	252355.000000	1772918533.161308
-2050.335000	34833.330000	-14618.790000	-16142.760000	0.000000	0.000000	0.000000	0.000000	45.397786	-66.309428	65.560949	69.245375	0.000000	0.000000	-0.000000	0.000000	1.052940	0.122080	-1.129240	-0.014282	0.907529	0.403747	-1.000000	-1.000000	-1.000000	-1.000000	-1.000000	-1.000000	-1.000000	138.689655	0.000000	-1.000000	-1.000000	252356.000000	1772918533.165411
-2053.440000	34751.385000	-14643.540000	-16169.085000	0.000000	0.000000	0.000000	0.000000	114.662282	2.279709	165.219885	176.823396	0.000000	0.000000	-0.000000	0.000000	1.052940	0.122080	-1.129240	-0.014282	0.907529	0.403747	-1.000000	-1.000000	-1.000000	-1.000000	-1.000000	-1.000000	-1.000000	138.689655	0.000000	-1.000000	-1.000000	252357.000000	1772918533.165414
-2108.925000	34748.595000	-14728.005000	-16255.890000	0.000000	0.000000	0.000000	0.000000	121.971080	63.126453	175.294201	189.190862	0.000000	0.000000	-0.000000	0.000000	1.052940	0.122080	-1.129240	-0.014282	0.907529	0.403747	-1.000000	-1.000000	-1.000000	-1.000000	-1.000000	-1.000000	-1.000000	138.689655	0.000000	-1.000000	-1.000000	252358.000000	1772918533.169399
-2239.740000	34748.010000	-14923.395000	-16456.770000	0.000000	0.000000	0.000000	0.000000	64.704839	80.052492	90.509142	100.019649	0.000000	0.000000	-0.000000	0.000000	1.052940	0.122080	-1.129240	-0.014282	0.907529	0.403747	-1.000000	-1.000000	-1.000000	-1.000000	-1.000000	-1.000000	-1.000000	138.689655	0.000000	-1.000000	-1.000000	252359.000000	1772918533.169402
-2323.440000	34680.195000	-15057.630000	-16602.930000	0.000000	0.000000	0.000000	0.000000	-27.114173	52.349032	-44.921392	-44.044224	0.000000	0.000000	-0.000000	0.000000	0.793520	-0.564620	-0.808780	-0.015808	0.905210	0.405517	-1.000000	-1.000000	-1.000000	-1.000000	-1.000000	-1.000000	-1.000000	138.689655	0.000000	-1.000000	-1.000000	252360.000000	1772918533.173352
-2293.740000	34654.860000	-15008.310000	-16552.665000	0.000000	0.000000	0.000000	0.000000	-105.320454	3.815541	-159.178786	-166.914217	0.000000	0.000000	-0.000000	0.000000	0.793520	-0.564620	-0.808780	-0.015808	0.905210	0.405517	-1.000000	-1.000000	-1.000000	-1.000000	-1.000000	-1.000000	-1.000000	138.689655	0.000000	-1.000000	-1.000000	252361.000000	1772918533.173355
-2245.545000	34654.545000	-14935.230000	-16475.850000	0.000000	0.000000	0.000000	0.000000	-126.845761	-37.633620	-188.207777	-200.380099	0.000000	0.000000	-0.000000	0.000000	0.793520	-0.564620	-0.808780	-0.015808	0.905210	0.405517	-1.000000	-1.000000	-1.000000	-1.000000	-1.000000	-1.000000	-1.000000	138.689655	0.000000	-1.000000	-1.000000	252362.000000	1772918533.177545
-2122.290000	34620.750000	-14762.925000	-16296.075000	0.000000	0.000000	0.000000	0.000000	-79.582992	-52.693229	-114.671804	-125.008368	0.000000	0.000000	-0.000000	0.000000	0.793520	-0.564620	-0.808780	-0.015808	0.905210	0.405517	-1.000000	-1.000000	-1.000000	-1.000000	-1.000000	-1.000000	-1.000000	138.689655	0.000000	-1.000000	-1.000000	252363.000000	1772918533.177547
-1989.405000	34593.930000	-14583.735000	-16092.945000	0.000000	0.000000	0.000000	0.000000	11.024131	-39.906383	21.638839	18.423528	0.000000	0.000000	-0.000000	0.000000	0.793520	-0.564620	-0.808780	-0.015808	0.905210	0.405517	-1.000000	-1.000000	-1.000000	-1.000000	-1.000000	-1.000000	-1.000000	138.689655	0.000000	-1.000000	-1.000000	252364.000000	1772918533.180659
-2017.710000	34642.305000	-14621.940000	-16127.595000	0.000000	0.000000	0.000000	0.000000	96.756643	-11.313429	147.699472	153.499014	0.000000	0.000000	-0.000000	0.000000	0.793520	-0.564620	-0.808780	-0.015808	0.905210	0.405517	-1.000000	-1.000000	-1.000000	-1.000000	-1.000000	-1.000000	-1.000000	138.689655	0.000000	-1.000000	-1.000000	252365.000000	1772918533.180662
-2072.430000	34684.065000	-14691.690000	-16212.015000	0.000000	0.000000	0.000000	0.000000	129.516108	20.652434	193.832194	205.553324	0.000000	0.000000	-0.000000	0.000000	0.793520	-0.564620	-0.808780	-0.015808	0.905210	0.405517	-1.000000	-1.000000	-1.000000	-1.000000	-1.000000	-1.000000	-1.000000	138.689655	0.000000	-1.000000	-1.000000	252366.000000	1772918533.186325
-2181.465000	34715.475000	-14839.650000	-16372.485000	0.000000	0.000000	0.000000	0.000000	89.262091	46.534495	133.643389	143.873195	0.000000	0.000000	-0.000000	0.000000	0.793520	-0.564620	-0.808780	-0.015808	0.905210	0.405517	-1.000000	-1.000000	-1.000000	-1.000000	-1.000000	-1.000000	-1.000000	138.689655	0.000000	-1.000000	-1.000000	252367.000000	1772918533.186329
-2320.695000	34720.965000	-15047.055000	-16593.345000	0.000000	0.000000	0.000000	0.000000	-2.170948	57.044948	0.346743	1.923447	0.000000	0.000000	-0.000000	0.000000	0.793520	-0.564620	-0.808780	-0.015808	0.905210	0.405517	-1.000000	-1.000000	-1.000000	-1.000000	-1.000000	-1.000000	-1.000000	138.689655	0.000000	-1.000000	-1.000000	252368.000000	1772918533.215809
-2315.790000	34683.840000	-15032.925000	-16581.960000	0.000000	0.000000	0.000000	0.000000	-94.702837	45.667904	-134.448231	-143.305584	0.000000	0.000000	-0.000000	0.000000	0.793520	-0.564620	-0.808780	-0.015808	0.905210	0.405517	-1.000000	-1.000000	-1.000000	-1.000000	-1.000000	-1.000000	-1.000000	138.689655	0.000000	-1.000000	-1.000000	252369.000000	1772918533.215812
-2268.315000	34674.795000	-14957.280000	-16505.370000	0.000000	0.000000	0.000000	0.000000	-136.545132	14.562912	-196.794307	-211.290816	0.000000	0.000000	-0.000000	0.000000	2.716280	0.137340	-1.434440	-0.012268	0.905149	0.407470	-1.000000	-1.000000	-1.000000	-1.000000	-1.000000	-1.000000	-1.000000	138.689655	0.000000	-1.000000	-1.000000	252370.000000	1772918533.215817
-2186.010000	34692.885000	-14837.805000	-16381.980000	0.000000	0.000000	0.000000	0.000000	-103.488738	-22.518576	-151.210631	-163.257052	0.000000	0.000000	-0.000000	0.000000	2.716280	0.137340	-1.434440	-0.012268	0.905149	0.407470	-1.000000	-1.000000	-1.000000	-1.000000	-1.000000	-1.000000	-1.000000	138.689655	0.000000	-1.000000	-1.000000	252371.000000	1772918533.215819
-2051.370000	34759.170000	-14630.130000	-16159.365000	0.000000	0.000000	0.000000	0.000000	-13.980186	-45.836730	-23.448254	-26.491397	0.000000	0.000000	-0.000000	0.000000	2.716280	0.137340	-1.434440	-0.012268	0.905149	0.407470	-1.000000	-1.000000	-1.000000	-1.000000	-1.000000	-1.000000	-1.000000	138.689655	0.000000	-1.000000	-1.000000	252372.000000	1772918533.215823
-2028.645000	34763.085000	-14594.400000	-16121.115000	0.000000	0.000000	0.000000	0.000000	83.728854	-43.636511	117.349897	125.128910	0.000000	0.000000	-0.000000	0.000000	2.716280	0.137340	-1.434440	-0.012268	0.905149	0.407470	-1.000000	-1.000000	-1.000000	-1.000000	-1.000000	-1.000000	-1.000000	138.689655	0.000000	-1.000000	-1.000000	252373.000000	1772918533.215825
-2056.410000	34723.125000	-14646.195000	-16181.010000	0.000000	0.000000	0.000000	0.000000	137.839234	-23.017496	195.920735	210.760021	0.000000	0.000000	-0.000000	0.000000	2.716280	0.137340	-1.434440	-0.012268	0.905149	0.407470	-1.000000	-1.000000	-1.000000	-1.000000	-1.000000	-1.000000	-1.000000	138.689655	0.000000	-1.000000	-1.000000	252374.000000	1772918533.215828
-2110.635000	34641.675000	-14737.905000	-16274.970000	0.000000	0.000000	0.000000	0.000000	120.276135	-4.269960	170.110611	184.512153	0.000000	0.000000	-0.000000	0.000000	2.716280	0.137340	-1.434440	-0.012268	0.905149	0.407470	-1.000000	-1.000000	-1.000000	-1.000000	-1.000000	-1.000000	-1.000000	138.689655	0.000000	-1.000000	-1.000000	252375.000000	1772918533.215831
-2198.115000	34390.710000	-14911.605000	-16454.340000	0.000000	0.000000	0.000000	0.000000	42.771747	-5.516830	55.470707	62.612423	0.000000	0.000000	-0.000000	0.000000	2.716280	0.137340	-1.434440	-0.012268	0.905149	0.407470	-1.000000	-1.000000	-1.000000	-1.000000	-1.000000	-1.000000	-1.000000	138.689655	0.000000	-1.000000	-1.000000	252376.000000	1772918533.215834
-2220.030000	34204.635000	-14949.495000	-16493.130000	0.000000	0.000000	0.000000	0.000000	-51.986889	-31.449975	-85.755775	-88.198806	0.000000	0.000000	-0.000000	0.000000	2.716280	0.137340	-1.434440	-0.012268	0.905149	0.407470	-1.000000	-1.000000	-1.000000	-1.000000	-1.000000	-1.000000	-1.000000	138.689655	0.000000	-1.000000	-1.000000	252377.000000	1772918533.215836
-2199.285000	34236.540000	-14909.220000	-16448.580000	0.000000	0.000000	0.000000	0.000000	-115.192654	-62.480409	-178.947800	-188.223097	0.000000	0.000000	-0.000000	0.000000	2.716280	0.137340	-1.434440	-0.012268	0.905149	0.407470	-1.000000	-1.000000	-1.000000	-1.000000	-1.000000	-1.000000	-1.000000	138.689655	0.000000	-1.000000	-1.000000	252378.000000	1772918533.215839
-2121.300000	34172.955000	-14801.715000	-16339.545000	0.000000	0.000000	0.000000	0.000000	-116.953082	-62.155247	-176.155548	-186.681205	0.000000	0.000000	-0.000000	0.000000	2.716280	0.137340	-1.434440	-0.012268	0.905149	0.407470	-1.000000	-1.000000	-1.000000	-1.000000	-1.000000	-1.000000	-1.000000	138.689655	0.000000	-1.000000	-1.000000	252379.000000	1772918533.215841
-1951.155000	34059.240000	-14561.145000	-16094.475000	0.000000	0.000000	0.000000	0.000000	-59.048458	-16.535005	-80.904184	-87.642865	0.000000	0.000000	-0.000000	0.000000	5.753020	0.259420	-3.402980	-0.007751	0.902708	0.408812	-1.000000	-1.000000	-1.000000	-1.000000	-1.000000	-1.000000	-1.000000	138.689655	0.000000	-1.000000	-1.000000	252380.000000	1772918533.215844
-1907.640000	34121.970000	-14479.605000	-16004.790000	0.000000	0.000000	0.000000	0.000000	27.968017	49.747509	56.438045	55.703918	0.000000	0.000000	-0.000000	0.000000	5.753020	0.259420	-3.402980	-0.007751	0.902708	0.408812	-1.000000	-1.000000	-1.000000	-1.000000	-1.000000	-1.000000	-1.000000	138.689655	0.000000	-1.000000	-1.000000	252381.000000	1772918533.215846
-1964.700000	34184.475000	-14553.495000	-16082.235000	0.000000	0.000000	0.000000	0.000000	96.026997	105.152201	161.227408	165.587978	0.000000	0.000000	-0.000000	0.000000	5.753020	0.259420	-3.402980	-0.007751	0.902708	0.408812	-1.000000	-1.000000	-1.000000	-1.000000	-1.000000	-1.000000	-1.000000	138.689655	0.000000	-1.000000	-1.000000	252382.000000	1772918533.217568
-2030.670000	34191.810000	-14641.155000	-16175.070000	0.000000	0.000000	0.000000	0.000000	104.224293	132.173789	172.607934	178.783358	0.000000	0.000000	-0.000000	0.000000	5.753020	0.259420	-3.402980	-0.007751	0.902708	0.408812	-1.000000	-1.000000	-1.000000	-1.000000	-1.000000	-1.000000	-1.000000	138.689655	0.000000	-1.000000	-1.000000	252383.000000	1772918533.217583
-2157.705000	34129.260000	-14833.440000	-16372.845000	0.000000	0.000000	0.000000	0.000000	47.837120	120.480443	84.043381	88.048483	0.000000	0.000000	-0.000000	0.000000	5.753020	0.259420	-3.402980	-0.007751	0.902708	0.408812	-1.000000	-1.000000	-1.000000	-1.000000	-1.000000	-1.000000	-1.000000	138.689655	0.000000	-1.000000	-1.000000	252384.000000	1772918533.221460
-2231.370000	34045.020000	-14963.445000	-16509.780000	0.000000	0.000000	0.000000	0.000000	-38.882393	67.284927	-53.472439	-54.086247	0.000000	0.000000	-0.000000	0.000000	5.753020	0.259420	-3.402980	-0.007751	0.902708	0.408812	-1.000000	-1.000000	-1.000000	-1.000000	-1.000000	-1.000000	-1.000000	138.689655	0.000000	-1.000000	-1.000000	252385.000000	1772918533.221462
-2194.740000	34029.855000	-14919.390000	-16463.565000	0.000000	0.000000	0.000000	0.000000	-105.010285	-11.557673	-163.172171	-167.978686	0.000000	0.000000	-0.000000	0.000000	5.753020	0.259420	-3.402980	-0.007751	0.902708	0.408812	-1.000000	-1.000000	-1.000000	-1.000000	-1.000000	-1.000000	-1.000000	138.689655	0.000000	-1.000000	-1.000000	252386.000000	1772918533.225636
-2141.640000	34003.980000	-14836.455000	-16379.955000	0.000000	0.000000	0.000000	0.000000	-111.318195	-82.506006	-182.859905	-188.912551	0.000000	0.000000	-0.000000	0.000000	5.753020	0.259420	-3.402980	-0.007751	0.902708	0.408812	-1.000000	-1.000000	-1.000000	-1.000000	-1.000000	-1.000000	-1.000000	138.689655	0.000000	-1.000000	-1.000000	252387.000000	1772918533.225638
-2026.260000	34006.410000	-14657.895000	-16197.705000	0.000000	0.000000	0.000000	0.000000	-53.276131	-114.677902	-100.337366	-104.013085	0.000000	0.000000	-0.000000	0.000000	5.753020	0.259420	-3.402980	-0.007751	0.902708	0.408812	-1.000000	-1.000000	-1.000000	-1.000000	-1.000000	-1.000000	-1.000000	138.689655	0.000000	-1.000000	-1.000000	252388.000000	1772918533.229471
-1935.135000	34082.550000	-14500.125000	-16031.880000	0.000000	0.000000	0.000000	0.000000	37.378029	-98.106530	40.012710	40.938003	0.000000	0.000000	-0.000000	0.000000	5.753020	0.259420	-3.402980	-0.007751	0.902708	0.408812	-1.000000	-1.000000	-1.000000	-1.000000	-1.000000	-1.000000	-1.000000	138.689655	0.000000	-1.000000	-1.000000	252389.000000	1772918533.229473
-1978.110000	34187.580000	-14545.620000	-16082.685000	0.000000	0.000000	0.000000	0.000000	111.299714	-43.753885	162.582676	167.849530	0.000000	0.000000	-0.000000	0.000000	7.126420	0.564620	-4.623780	-0.007385	0.902280	0.409606	-1.000000	-1.000000	-1.000000	-1.000000	-1.000000	-1.000000	-1.000000	138.689655	0.000000	-1.000000	-1.000000	252390.000000	1772918533.233580
