Channel1	Channel2	Channel3	Channel4	Channel5	Channel6	Channel7	Channel8	FilteredChannel1	FilteredChannel2	FilteredChannel3	FilteredChannel4	FilteredChannel5	FilteredChannel6	FilteredChannel7	FilteredChannel8	GyroX	GyroY	GyroZ	AccX	AccY	AccZ	PPG1	PPG2	rawPPG1	rawPPG2	rawPPG3	Hr	Hrv	Battery	Trigger	PhysicalTrigger	AutoTrigger	NumMeasurements	Timestamp
-2488.095000	30906.990000	-15581.340000	-14632.740000	0.000000	0.000000	0.000000	0.000000	60.226819	-92.353993	67.966002	83.984536	0.000000	-0.000000	-0.000000	0.000000	31.939180	-1.052940	-0.198380	0.023437	0.879270	0.448973	-1.000000	-1.000000	-1.000000	-1.000000	-1.000000	-1.000000	-1.000000	139.310345	0.000000	-1.000000	-1.000000	314460.000000	1772918657.670561
-2548.980000	31050.720000	-15668.145000	-14701.455000	0.000000	0.000000	0.000000	0.000000	71.946516	-35.358772	84.002782	89.560431	0.000000	-0.000000	-0.000000	0.000000	31.939180	-1.052940	-0.198380	0.023437	0.879270	0.448973	-1.000000	-1.000000	-1.000000	-1.000000	-1.000000	-1.000000	-1.000000	139.310345	0.000000	-1.000000	-1.000000	314461.000000	1772918657.670563
-2543.040000	31057.830000	-15673.230000	-14701.815000	0.000000	0.000000	0.000000	0.000000	47.353778	37.475754	55.723909	52.790716	0.000000	-0.000000	-0.000000	0.000000	31.939180	-1.052940	-0.198380	0.023437	0.879270	0.448973	-1.000000	-1.000000	-1.000000	-1.000000	-1.000000	-1.000000	-1.000000	139.310345	0.000000	-1.000000	-1.000000	314462.000000	1772918657.674767
-2582.325000	30987.720000	-15741.000000	-14827.500000	0.000000	0.000000	0.000000	0.000000	1.030929	89.339723	-2.201136	-15.626762	0.000000	-0.000000	-0.000000	0.000000	31.939180	-1.052940	-0.198380	0.023437	0.879270	0.448973	-1.000000	-1.000000	-1.000000	-1.000000	-1.000000	-1.000000	-1.000000	139.310345	0.000000	-1.000000	-1.000000	314463.000000	1772918657.674770
-2632.320000	30939.480000	-15793.470000	-14912.055000	0.000000	0.000000	0.000000	0.000000	-41.366879	89.164141	-57.634762	-85.931866	0.000000	-0.000000	-0.000000	0.000000	22.233820	6.851740	-3.860780	0.032165	0.889219	0.425414	-1.000000	-1.000000	-1.000000	-1.000000	-1.000000	-1.000000	-1.000000	139.310345	0.000000	-1.000000	-1.000000	314464.000000	1772918657.678625
-2591.055000	30850.200000	-15757.245000	-14850.495000	0.000000	0.000000	0.000000	0.000000	-61.185774	38.649919	-83.752642	-125.750058	0.000000	-0.000000	-0.000000	0.000000	22.233820	6.851740	-3.860780	0.032165	0.889219	0.425414	-1.000000	-1.000000	-1.000000	-1.000000	-1.000000	-1.000000	-1.000000	139.310345	0.000000	-1.000000	-1.000000	314465.000000	1772918657.678627
-2523.060000	30779.145000	-15700.455000	-14813.055000	0.000000	0.000000	0.000000	0.000000	-50.483167	-29.886415	-68.651945	-111.816201	0.000000	-0.000000	-0.000000	0.000000	22.233820	6.851740	-3.860780	0.032165	0.889219	0.425414	-1.000000	-1.000000	-1.000000	-1.000000	-1.000000	-1.000000	-1.000000	139.310345	0.000000	-1.000000	-1.000000	314466.000000	1772918657.682639
-2444.895000	30765.780000	-15608.970000	-14725.260000	0.000000	0.000000	0.000000	0.000000	-13.107267	-77.745982	-18.743453	-46.045526	0.000000	-0.000000	-0.000000	0.000000	22.233820	6.851740	-3.860780	0.032165	0.889219	0.425414	-1.000000	-1.000000	-1.000000	-1.000000	-1.000000	-1.000000	-1.000000	139.310345	0.000000	-1.000000	-1.000000	314467.000000	1772918657.682642
-2398.950000	30753.900000	-15555.375000	-14632.470000	0.000000	0.000000	0.000000	0.000000	33.010772	-80.892201	42.138189	40.960353	0.000000	-0.000000	-0.000000	0.000000	22.233820	6.851740	-3.860780	0.032165	0.889219	0.425414	-1.000000	-1.000000	-1.000000	-1.000000	-1.000000	-1.000000	-1.000000	139.310345	0.000000	-1.000000	-1.000000	314468.000000	1772918657.686633
-2459.115000	30744.585000	-15604.470000	-14671.260000	0.000000	0.000000	0.000000	0.000000	61.773639	-41.068429	82.272100	107.209707	0.000000	-0.000000	-0.000000	0.000000	22.233820	6.851740	-3.860780	0.032165	0.889219	0.425414	-1.000000	-1.000000	-1.000000	-1.000000	-1.000000	-1.000000	-1.000000	139.310345	0.000000	-1.000000	-1.000000	314469.000000	1772918657.686636
-2498.940000	30760.695000	-15629.490000	-14715.000000	0.000000	0.000000	0.000000	0.000000	53.594189	17.955202	78.326460	119.656693	0.000000	-0.000000	-0.000000	0.000000	22.233820	6.851740	-3.860780	0.032165	0.889219	0.425414	-1.000000	-1.000000	-1.000000	-1.000000	-1.000000	-1.000000	-1.000000	139.310345	0.000000	-1.000000	-1.000000	314470.000000	1772918657.692731
-2568.645000	30817.755000	-15694.245000	-14805.315000	0.000000	0.000000	0.000000	0.000000	10.731526	68.247276	31.749231	72.191233	0.000000	-0.000000	-0.000000	0.000000	22.233820	6.851740	-3.860780	0.032165	0.889219	0.425414	-1.000000	-1.000000	-1.000000	-1.000000	-1.000000	-1.000000	-1.000000	139.310345	0.000000	-1.000000	-1.000000	314471.000000	1772918657.692734
-2665.530000	30934.530000	-15800.355000	-14929.290000	0.000000	0.000000	0.000000	0.000000	-43.475689	94.189251	-32.515498	-10.093087	0.000000	-0.000000	-0.000000	0.000000	22.233820	6.851740	-3.860780	0.032165	0.889219	0.425414	-1.000000	-1.000000	-1.000000	-1.000000	-1.000000	-1.000000	-1.000000	139.310345	0.000000	-1.000000	-1.000000	314472.000000	1772918657.694748
-2621.745000	31105.755000	-15729.255000	-14875.200000	0.000000	0.000000	0.000000	0.000000	-79.745797	96.152573	-81.645449	-84.639613	0.000000	-0.000000	-0.000000	0.000000	22.233820	6.851740	-3.860780	0.032165	0.889219	0.425414	-1.000000	-1.000000	-1.000000	-1.000000	-1.000000	-1.000000	-1.000000	139.310345	0.000000	-1.000000	-1.000000	314473.000000	1772918657.694750
-2542.590000	31132.440000	-15654.780000	-14788.755000	0.000000	0.000000	0.000000	0.000000	-75.399746	80.017417	-87.777702	-110.216221	0.000000	-0.000000	-0.000000	0.000000	-11.780720	6.897520	-8.515080	0.032959	0.918333	0.403563	-1.000000	-1.000000	-1.000000	-1.000000	-1.000000	-1.000000	-1.000000	139.310345	0.000000	-1.000000	-1.000000	314474.000000	1772918657.698758
-2546.235000	31070.160000	-15657.165000	-14773.950000	0.000000	0.000000	0.000000	0.000000	-28.457399	43.718076	-45.482389	-72.140536	0.000000	-0.000000	-0.000000	0.000000	-11.780720	6.897520	-8.515080	0.032959	0.918333	0.403563	-1.000000	-1.000000	-1.000000	-1.000000	-1.000000	-1.000000	-1.000000	139.310345	0.000000	-1.000000	-1.000000	314475.000000	1772918657.698760
-2462.085000	30990.375000	-15549.030000	-14656.140000	0.000000	0.000000	0.000000	0.000000	35.583341	-17.075008	19.704604	4.268798	0.000000	-0.000000	-0.000000	0.000000	-11.780720	6.897520	-8.515080	0.032959	0.918333	0.403563	-1.000000	-1.000000	-1.000000	-1.000000	-1.000000	-1.000000	-1.000000	139.310345	0.000000	-1.000000	-1.000000	314476.000000	1772918657.701741
-2464.560000	30971.475000	-15551.505000	-14644.935000	0.000000	0.000000	0.000000	0.000000	82.204876	-88.832208	71.824025	74.614370	0.000000	-0.000000	-0.000000	0.000000	-11.780720	6.897520	-8.515080	0.032959	0.918333	0.403563	-1.000000	-1.000000	-1.000000	-1.000000	-1.000000	-1.000000	-1.000000	139.310345	0.000000	-1.000000	-1.000000	314477.000000	1772918657.701744
-2485.215000	30956.490000	-15579.810000	-14668.380000	0.000000	0.000000	0.000000	0.000000	89.568645	-138.656366	86.196549	103.319305	0.000000	-0.000000	-0.000000	0.000000	-11.780720	6.897520	-8.515080	0.032959	0.918333	0.403563	-1.000000	-1.000000	-1.000000	-1.000000	-1.000000	-1.000000	-1.000000	139.310345	0.000000	-1.000000	-1.000000	314478.000000	1772918657.708724
-2487.060000	30901.455000	-15642.990000	-14712.300000	0.000000	0.000000	0.000000	0.000000	56.514733	-139.610741	56.749545	77.859692	0.000000	-0.000000	-0.000000	0.000000	-11.780720	6.897520	-8.515080	0.032959	0.918333	0.403563	-1.000000	-1.000000	-1.000000	-1.000000	-1.000000	-1.000000	-1.000000	139.310345	0.000000	-1.000000	-1.000000	314479.000000	1772918657.708727
-2558.700000	30904.605000	-15801.255000	-14821.155000	0.000000	0.000000	0.000000	0.000000	1.096691	-92.180192	-3.137485	12.789780	0.000000	-0.000000	-0.000000	0.000000	-11.780720	6.897520	-8.515080	0.032959	0.918333	0.403563	-1.000000	-1.000000	-1.000000	-1.000000	-1.000000	-1.000000	-1.000000	139.310345	0.000000	-1.000000	-1.000000	314480.000000	1772918657.711900
-2540.025000	30837.105000	-15815.430000	-14818.455000	0.000000	0.000000	0.000000	0.000000	-50.506676	-20.343506	-66.327210	-58.673023	0.000000	-0.000000	-0.000000	0.000000	-11.780720	6.897520	-8.515080	0.032959	0.918333	0.403563	-1.000000	-1.000000	-1.000000	-1.000000	-1.000000	-1.000000	-1.000000	139.310345	0.000000	-1.000000	-1.000000	314481.000000	1772918657.711903
-2471.940000	30799.215000	-15739.245000	-14760.135000	0.000000	0.000000	0.000000	0.000000	-74.838258	44.898404	-99.012866	-99.226464	0.000000	-0.000000	-0.000000	0.000000	-11.780720	6.897520	-8.515080	0.032959	0.918333	0.403563	-1.000000	-1.000000	-1.000000	-1.000000	-1.000000	-1.000000	-1.000000	139.310345	0.000000	-1.000000	-1.000000	314482.000000	1772918657.721223
-2404.395000	30756.195000	-15709.500000	-14704.515000	0.000000	0.000000	0.000000	0.000000	-60.095637	81.387608	-77.837724	-86.349110	0.000000	-0.000000	-0.000000	0.000000	-11.780720	6.897520	-8.515080	0.032959	0.918333	0.403563	-1.000000	-1.000000	-1.000000	-1.000000	-1.000000	-1.000000	-1.000000	139.310345	0.000000	-1.000000	-1.000000	314483.000000	1772918657.721227
-2351.520000	30750.885000	-15681.330000	-14611.095000	0.000000	0.000000	0.000000	0.000000	-15.566966	85.296221	-12.886630	-28.127347	0.000000	-0.000000	-0.000000	0.000000	-15.580460	1.800680	2.990960	0.027466	0.960508	0.416076	-1.000000	-1.000000	-1.000000	-1.000000	-1.000000	-1.000000	-1.000000	139.310345	0.000000	-1.000000	-1.000000	314484.000000	1772918657.721231
-2339.865000	30765.825000	-15591.015000	-14573.205000	0.000000	0.000000	0.000000	0.000000	31.783598	68.126990	58.368563	42.229991	0.000000	-0.000000	-0.000000	0.000000	-15.580460	1.800680	2.990960	0.027466	0.960508	0.416076	-1.000000	-1.000000	-1.000000	-1.000000	-1.000000	-1.000000	-1.000000	139.310345	0.000000	-1.000000	-1.000000	314485.000000	1772918657.721233
-2372.535000	30777.435000	-15491.115000	-14566.140000	0.000000	0.000000	0.000000	0.000000	54.413284	45.303307	102.363754	87.274341	0.000000	-0.000000	-0.000000	0.000000	-15.580460	1.800680	2.990960	0.027466	0.960508	0.416076	-1.000000	-1.000000	-1.000000	-1.000000	-1.000000	-1.000000	-1.000000	139.310345	0.000000	-1.000000	-1.000000	314486.000000	1772918657.723421
-2447.100000	30790.170000	-15556.320000	-14676.705000	0.000000	0.000000	0.000000	0.000000	40.134787	25.928221	104.215483	83.704605	0.000000	-0.000000	-0.000000	0.000000	-15.580460	1.800680	2.990960	0.027466	0.960508	0.416076	-1.000000	-1.000000	-1.000000	-1.000000	-1.000000	-1.000000	-1.000000	139.310345	0.000000	-1.000000	-1.000000	314487.000000	1772918657.723424
-2566.080000	30781.980000	-15650.280000	-14786.415000	0.000000	0.000000	0.000000	0.000000	-3.092306	10.552046	61.710638	32.027846	0.000000	-0.000000	-0.000000	0.000000	-15.580460	1.800680	2.990960	0.027466	0.960508	0.416076	-1.000000	-1.000000	-1.000000	-1.000000	-1.000000	-1.000000	-1.000000	139.310345	0.000000	-1.000000	-1.000000	314488.000000	1772918657.731043
-2628.405000	30696.345000	-15678.090000	-14841.810000	0.000000	0.000000	0.000000	0.000000	-52.514499	-5.430200	-11.980971	-41.669211	0.000000	-0.000000	-0.000000	0.000000	-15.580460	1.800680	2.990960	0.027466	0.960508	0.416076	-1.000000	-1.000000	-1.000000	-1.000000	-1.000000	-1.000000	-1.000000	139.310345	0.000000	-1.000000	-1.000000	314489.000000	1772918657.731046
-2577.645000	30694.545000	-15607.350000	-14777.640000	0.000000	0.000000	0.000000	0.000000	-79.233323	-25.248442	-81.573887	-94.911507	0.000000	-0.000000	-0.000000	0.000000	-15.580460	1.800680	2.990960	0.027466	0.960508	0.416076	-1.000000	-1.000000	-1.000000	-1.000000	-1.000000	-1.000000	-1.000000	139.310345	0.000000	-1.000000	-1.000000	314490.000000	1772918657.731050
-2531.295000	30687.570000	-15589.080000	-14731.290000	0.000000	0.000000	0.000000	0.000000	-62.033857	-42.882582	-108.024042	-93.541964	0.000000	-0.000000	-0.000000	0.000000	-15.580460	1.800680	2.990960	0.027466	0.960508	0.416076	-1.000000	-1.000000	-1.000000	-1.000000	-1.000000	-1.000000	-1.000000	139.310345	0.000000	-1.000000	-1.000000	314491.000000	1772918657.731053
-2462.130000	30658.545000	-15571.080000	-14656.140000	0.000000	0.000000	0.000000	0.000000	-4.567751	-47.258032	-80.537740	-37.175783	0.000000	-0.000000	-0.000000	0.000000	-15.580460	1.800680	2.990960	0.027466	0.960508	0.416076	-1.000000	-1.000000	-1.000000	-1.000000	-1.000000	-1.000000	-1.000000	139.310345	0.000000	-1.000000	-1.000000	314492.000000	1772918657.735134
-2392.245000	30671.145000	-15638.130000	-14615.190000	0.000000	0.000000	0.000000	0.000000	63.963672	-34.827553	-24.074655	40.521197	0.000000	-0.000000	-0.000000	0.000000	-15.580460	1.800680	2.990960	0.027466	0.960508	0.416076	-1.000000	-1.000000	-1.000000	-1.000000	-1.000000	-1.000000	-1.000000	139.310345	0.000000	-1.000000	-1.000000	314493.000000	1772918657.735137
-2365.245000	30573.540000	-15740.640000	-14618.340000	0.000000	0.000000	0.000000	0.000000	108.241158	-13.143343	22.563297	95.916106	0.000000	-0.000000	-0.000000	0.000000	20.417880	-3.753960	13.993420	0.022461	0.948972	0.429931	-1.000000	-1.000000	-1.000000	-1.000000	-1.000000	-1.000000	-1.000000	139.310345	0.000000	-1.000000	-1.000000	314494.000000	1772918657.738764
-2344.275000	30523.365000	-15673.140000	-14643.090000	0.000000	0.000000	0.000000	0.000000	106.867495	4.366846	37.562664	101.144416	0.000000	-0.000000	-0.000000	0.000000	20.417880	-3.753960	13.993420	0.022461	0.948972	0.429931	-1.000000	-1.000000	-1.000000	-1.000000	-1.000000	-1.000000	-1.000000	139.310345	0.000000	-1.000000	-1.000000	314495.000000	1772918657.738767
-2381.670000	30488.805000	-15607.035000	-14710.770000	0.000000	0.000000	0.000000	0.000000	61.220829	9.708462	31.599677	56.729598	0.000000	-0.000000	-0.000000	0.000000	20.417880	-3.753960	13.993420	0.022461	0.948972	0.429931	-1.000000	-1.000000	-1.000000	-1.000000	-1.000000	-1.000000	-1.000000	139.310345	0.000000	-1.000000	-1.000000	314496.000000	1772918657.742872
-2495.970000	30384.855000	-15641.190000	-14745.870000	0.000000	0.000000	0.000000	0.000000	-9.600035	6.025116	26.851636	-12.299343	0.000000	-0.000000	-0.000000	0.000000	20.417880	-3.753960	13.993420	0.022461	0.948972	0.429931	-1.000000	-1.000000	-1.000000	-1.000000	-1.000000	-1.000000	-1.000000	139.310345	0.000000	-1.000000	-1.000000	314497.000000	1772918657.742874
-2507.355000	30286.980000	-15568.605000	-14664.645000	0.000000	0.000000	0.000000	0.000000	-78.685040	-1.001822	28.744848	-69.364621	0.000000	-0.000000	-0.000000	0.000000	20.417880	-3.753960	13.993420	0.022461	0.948972	0.429931	-1.000000	-1.000000	-1.000000	-1.000000	-1.000000	-1.000000	-1.000000	139.310345	0.000000	-1.000000	-1.000000	314498.000000	1772918657.746781
-2452.005000	30237.030000	-15480.270000	-14609.880000	0.000000	0.000000	0.000000	0.000000	-116.295914	-7.406479	31.269372	-83.892245	0.000000	-0.000000	-0.000000	0.000000	20.417880	-3.753960	13.993420	0.022461	0.948972	0.429931	-1.000000	-1.000000	-1.000000	-1.000000	-1.000000	-1.000000	-1.000000	139.310345	0.000000	-1.000000	-1.000000	314499.000000	1772918657.746784
-2373.480000	30253.320000	-15433.965000	-14599.530000	0.000000	0.000000	0.000000	0.000000	-101.394630	-6.367030	30.876296	-52.099443	0.000000	-0.000000	-0.000000	0.000000	20.417880	-3.753960	13.993420	0.022461	0.948972	0.429931	-1.000000	-1.000000	-1.000000	-1.000000	-1.000000	-1.000000	-1.000000	139.310345	0.000000	-1.000000	-1.000000	314500.000000	1772918657.750864
-2323.260000	30381.660000	-15381.990000	-14572.395000	0.000000	0.000000	0.000000	0.000000	-39.756216	10.683881	24.431252	-0.115753	0.000000	-0.000000	-0.000000	0.000000	20.417880	-3.753960	13.993420	0.022461	0.948972	0.429931	-1.000000	-1.000000	-1.000000	-1.000000	-1.000000	-1.000000	-1.000000	139.310345	0.000000	-1.000000	-1.000000	314501.000000	1772918657.750867
-2352.780000	30370.320000	-15423.660000	-14551.245000	0.000000	0.000000	0.000000	0.000000	34.119542	42.918859	7.641033	39.505165	0.000000	-0.000000	-0.000000	0.000000	20.417880	-3.753960	13.993420	0.022461	0.948972	0.429931	-1.000000	-1.000000	-1.000000	-1.000000	-1.000000	-1.000000	-1.000000	139.310345	0.000000	-1.000000	-1.000000	314502.000000	1772918657.754921
-2392.290000	30367.035000	-15475.455000	-14564.205000	0.000000	0.000000	0.000000	0.000000	78.591012	70.816623	-20.900556	49.873614	0.000000	-0.000000	-0.000000	0.000000	20.417880	-3.753960	13.993420	0.022461	0.948972	0.429931	-1.000000	-1.000000	-1.000000	-1.000000	-1.000000	-1.000000	-1.000000	139.310345	0.000000	-1.000000	-1.000000	314503.000000	1772918657.754923
-2412.630000	30375.405000	-15520.455000	-14617.305000	0.000000	0.000000	0.000000	0.000000	73.632200	70.116237	-54.762482	31.852457	0.000000	-0.000000	-0.000000	0.000000	7.813120	3.402980	12.894700	0.027832	0.911741	0.449157	-1.000000	-1.000000	-1.000000	-1.000000	-1.000000	-1.000000	-1.000000	139.310345	0.000000	-1.000000	-1.000000	314504.000000	1772918657.758908
-2424.195000	30308.040000	-15570.720000	-14706.855000	0.000000	0.000000	0.000000	0.000000	32.229397	35.206732	-79.085618	-3.495736	0.000000	-0.000000	-0.000000	0.000000	7.813120	3.402980	12.894700	0.027832	0.911741	0.449157	-1.000000	-1.000000	-1.000000	-1.000000	-1.000000	-1.000000	-1.000000	139.310345	0.000000	-1.000000	-1.000000	314505.000000	1772918657.758911
-2444.355000	30204.855000	-15537.240000	-14720.265000	0.000000	0.000000	0.000000	0.000000	-14.848199	-20.125586	-78.601998	-39.600192	0.000000	-0.000000	-0.000000	0.000000	7.813120	3.402980	12.894700	0.027832	0.911741	0.449157	-1.000000	-1.000000	-1.000000	-1.000000	-1.000000	-1.000000	-1.000000	139.310345	0.000000	-1.000000	-1.000000	314506.000000	1772918657.762784
-2475.180000	30200.355000	-15535.485000	-14706.630000	0.000000	0.000000	0.000000	0.000000	-43.021226	-73.115591	-47.657370	-57.187789	0.000000	-0.000000	-0.000000	0.000000	7.813120	3.402980	12.894700	0.027832	0.911741	0.449157	-1.000000	-1.000000	-1.000000	-1.000000	-1.000000	-1.000000	-1.000000	139.310345	0.000000	-1.000000	-1.000000	314507.000000	1772918657.762787
-2422.800000	30208.995000	-15512.580000	-14632.965000	0.000000	0.000000	0.000000	0.000000	-44.027072	-98.407243	3.617070	-43.053891	0.000000	-0.000000	-0.000000	0.000000	7.813120	3.402980	12.894700	0.027832	0.911741	0.449157	-1.000000	-1.000000	-1.000000	-1.000000	-1.000000	-1.000000	-1.000000	139.310345	0.000000	-1.000000	-1.000000	314508.000000	1772918657.766172
-2252.565000	30030.795000	-15484.770000	-14462.010000	0.000000	0.000000	0.000000	0.000000	-19.272580	-84.796680	53.486912	1.300815	0.000000	-0.000000	-0.000000	0.000000	7.813120	3.402980	12.894700	0.027832	0.911741	0.449157	-1.000000	-1.000000	-1.000000	-1.000000	-1.000000	-1.000000	-1.000000	139.310345	0.000000	-1.000000	-1.000000	314509.000000	1772918657.766175
-2163.780000	29952.045000	-15547.230000	-14410.980000	0.000000	0.000000	0.000000	0.000000	23.932255	-48.147029	80.655858	58.106808	0.000000	-0.000000	-0.000000	0.000000	7.813120	3.402980	12.894700	0.027832	0.911741	0.449157	-1.000000	-1.000000	-1.000000	-1.000000	-1.000000	-1.000000	-1.000000	139.310345	0.000000	-1.000000	-1.000000	314510.000000	1772918657.797342
-2196.630000	29925.720000	-15534.180000	-14419.035000	0.000000	0.000000	0.000000	0.000000	64.038875	-11.139169	74.352163	96.170956	0.000000	-0.000000	-0.000000	0.000000	7.813120	3.402980	12.894700	0.027832	0.911741	0.449157	-1.000000	-1.000000	-1.000000	-1.000000	-1.000000	-1.000000	-1.000000	139.310345	0.000000	-1.000000	-1.000000	314511.000000	1772918657.797345
-2197.170000	29916.405000	-15472.935000	-14478.120000	0.000000	0.000000	0.000000	0.000000	71.151681	19.859254	42.587246	86.875539	0.000000	-0.000000	-0.000000	0.000000	7.813120	3.402980	12.894700	0.027832	0.911741	0.449157	-1.000000	-1.000000	-1.000000	-1.000000	-1.000000	-1.000000	-1.000000	139.310345	0.000000	-1.000000	-1.000000	314512.000000	1772918657.797349
-2291.670000	29943.945000	-15551.280000	-14649.525000	0.000000	0.000000	0.000000	0.000000	33.405539	47.860254	5.895478	26.061159	0.000000	-0.000000	-0.000000	0.000000	7.813120	3.402980	12.894700	0.027832	0.911741	0.449157	-1.000000	-1.000000	-1.000000	-1.000000	-1.000000	-1.000000	-1.000000	139.310345	0.000000	-1.000000	-1.000000	314513.000000	1772918657.797351
-2391.930000	29861.010000	-15616.215000	-14686.875000	0.000000	0.000000	0.000000	0.000000	-32.350430	69.423917	-23.482921	-59.982130	0.000000	-0.000000	-0.000000	0.000000	30.703120	-3.204600	13.962900	0.024048	0.893491	0.445311	-1.000000	-1.000000	-1.000000	-1.000000	-1.000000	-1.000000	-1.000000	139.310345	0.000000	-1.000000	-1.000000	314514.000000	1772918657.797354
-2454.705000	29779.605000	-15711.120000	-14697.675000	0.000000	0.000000	0.000000	0.000000	-93.522005	72.026482	-45.315622	-125.354700	0.000000	-0.000000	-0.000000	0.000000	30.703120	-3.204600	13.962900	0.024048	0.893491	0.445311	-1.000000	-1.000000	-1.000000	-1.000000	-1.000000	-1.000000	-1.000000	139.310345	0.000000	-1.000000	-1.000000	314515.000000	1772918657.797357
-2337.120000	29768.130000	-15541.065000	-14600.565000	0.000000	0.000000	0.000000	0.000000	-116.138695	48.508069	-54.482067	-129.935530	0.000000	-0.000000	-0.000000	0.000000	30.703120	-3.204600	13.962900	0.024048	0.893491	0.445311	-1.000000	-1.000000	-1.000000	-1.000000	-1.000000	-1.000000	-1.000000	139.310345	0.000000	-1.000000	-1.000000	314516.000000	1772918657.798858
-2277.270000	29762.910000	-15519.645000	-14556.195000	0.000000	0.000000	0.000000	0.000000	-80.501030	10.966616	-37.407880	-67.462282	0.000000	-0.000000	-0.000000	0.000000	30.703120	-3.204600	13.962900	0.024048	0.893491	0.445311	-1.000000	-1.000000	-1.000000	-1.000000	-1.000000	-1.000000	-1.000000	139.310345	0.000000	-1.000000	-1.000000	314517.000000	1772918657.798861
-2290.545000	29776.275000	-15638.670000	-14529.420000	0.000000	0.000000	0.000000	0.000000	-1.230940	-18.587319	2.176837	27.860556	0.000000	-0.000000	-0.000000	0.000000	30.703120	-3.204600	13.962900	0.024048	0.893491	0.445311	-1.000000	-1.000000	-1.000000	-1.000000	-1.000000	-1.000000	-1.000000	139.310345	0.000000	-1.000000	-1.000000	314518.000000	1772918657.798866
-2297.655000	29808.855000	-15704.730000	-14620.320000	0.000000	0.000000	0.000000	0.000000	75.605747	-27.076012	33.135697	102.224909	0.000000	-0.000000	-0.000000	0.000000	30.703120	-3.204600	13.962900	0.024048	0.893491	0.445311	-1.000000	-1.000000	-1.000000	-1.000000	-1.000000	-1.000000	-1.000000	139.310345	0.000000	-1.000000	-1.000000	314519.000000	1772918657.798868
-2125.395000	29912.760000	-15536.790000	-14568.300000	0.000000	0.000000	0.000000	0.000000	111.425345	-15.198907	35.291216	118.194169	0.000000	-0.000000	-0.000000	0.000000	30.703120	-3.204600	13.962900	0.024048	0.893491	0.445311	-1.000000	-1.000000	-1.000000	-1.000000	-1.000000	-1.000000	-1.000000	139.310345	0.000000	-1.000000	-1.000000	314520.000000	1772918657.798872
-2267.190000	29984.445000	-15844.995000	-14672.655000	0.000000	0.000000	0.000000	0.000000	100.309938	7.948656	18.234639	77.738958	0.000000	-0.000000	-0.000000	0.000000	30.703120	-3.204600	13.962900	0.024048	0.893491	0.445311	-1.000000	-1.000000	-1.000000	-1.000000	-1.000000	-1.000000	-1.000000	139.310345	0.000000	-1.000000	-1.000000	314521.000000	1772918657.798875
-2486.745000	30014.145000	-15953.760000	-14722.380000	0.000000	0.000000	0.000000	0.000000	49.326177	27.962733	-9.642503	10.351843	0.000000	-0.000000	-0.000000	0.000000	30.703120	-3.204600	13.962900	0.024048	0.893491	0.445311	-1.000000	-1.000000	-1.000000	-1.000000	-1.000000	-1.000000	-1.000000	139.310345	0.000000	-1.000000	-1.000000	314522.000000	1772918657.798878
-2534.265000	30091.905000	-15731.595000	-14742.990000	0.000000	0.000000	0.000000	0.000000	-29.646503	30.839529	-38.601661	-50.345619	0.000000	-0.000000	-0.000000	0.000000	30.703120	-3.204600	13.962900	0.024048	0.893491	0.445311	-1.000000	-1.000000	-1.000000	-1.000000	-1.000000	-1.000000	-1.000000	139.310345	0.000000	-1.000000	-1.000000	314523.000000	1772918657.798881
-2540.160000	30140.685000	-15847.065000	-14807.655000	0.000000	0.000000	0.000000	0.000000	-101.023628	13.932563	-40.781693	-79.679861	0.000000	-0.000000	-0.000000	0.000000	45.581620	-4.730600	29.711220	0.018188	0.888425	0.468322	-1.000000	-1.000000	-1.000000	-1.000000	-1.000000	-1.000000	-1.000000	139.310345	0.000000	-1.000000	-1.000000	314524.000000	1772918657.800348
-2536.560000	30095.190000	-16040.610000	-14790.870000	0.000000	0.000000	0.000000	0.000000	-120.654724	-14.693409	-11.545173	-70.742406	0.000000	-0.000000	-0.000000	0.000000	45.581620	-4.730600	29.711220	0.018188	0.888425	0.468322	-1.000000	-1.000000	-1.000000	-1.000000	-1.000000	-1.000000	-1.000000	139.310345	0.000000	-1.000000	-1.000000	314525.000000	1772918657.800350
-2359.665000	30030.390000	-15917.805000	-14627.115000	0.000000	0.000000	0.000000	0.000000	-73.278753	-46.881451	18.704782	-30.520735	0.000000	-0.000000	-0.000000	0.000000	45.581620	-4.730600	29.711220	0.018188	0.888425	0.468322	-1.000000	-1.000000	-1.000000	-1.000000	-1.000000	-1.000000	-1.000000	139.310345	0.000000	-1.000000	-1.000000	314526.000000	1772918657.803506
-2240.370000	30062.880000	-15642.720000	-14516.775000	0.000000	0.000000	0.000000	0.000000	19.581186	-73.515471	39.302487	28.864286	0.000000	-0.000000	-0.000000	0.000000	45.581620	-4.730600	29.711220	0.018188	0.888425	0.468322	-1.000000	-1.000000	-1.000000	-1.000000	-1.000000	-1.000000	-1.000000	139.310345	0.000000	-1.000000	-1.000000	314527.000000	1772918657.803509
-2161.890000	30033.540000	-15300.405000	-14344.245000	0.000000	0.000000	0.000000	0.000000	112.342068	-80.564744	70.732795	87.260856	0.000000	-0.000000	-0.000000	0.000000	45.581620	-4.730600	29.711220	0.018188	0.888425	0.468322	-1.000000	-1.000000	-1.000000	-1.000000	-1.000000	-1.000000	-1.000000	139.310345	0.000000	-1.000000	-1.000000	314528.000000	1772918657.808183
-2145.195000	30025.980000	-15042.555000	-14277.015000	0.000000	0.000000	0.000000	0.000000	155.978981	-60.381261	118.120607	118.323442	0.000000	-0.000000	-0.000000	0.000000	45.581620	-4.730600	29.711220	0.018188	0.888425	0.468322	-1.000000	-1.000000	-1.000000	-1.000000	-1.000000	-1.000000	-1.000000	139.310345	0.000000	-1.000000	-1.000000	314529.000000	1772918657.808186
-2195.730000	30100.815000	-15068.790000	-14372.820000	0.000000	0.000000	0.000000	0.000000	125.436224	-19.494060	145.565005	100.260540	0.000000	-0.000000	-0.000000	0.000000	45.581620	-4.730600	29.711220	0.018188	0.888425	0.468322	-1.000000	-1.000000	-1.000000	-1.000000	-1.000000	-1.000000	-1.000000	139.310345	0.000000	-1.000000	-1.000000	314530.000000	1772918657.810986
-2454.840000	30169.350000	-15557.175000	-14665.095000	0.000000	0.000000	0.000000	0.000000	30.616997	29.169887	95.498514	24.239487	0.000000	-0.000000	-0.000000	0.000000	45.581620	-4.730600	29.711220	0.018188	0.888425	0.468322	-1.000000	-1.000000	-1.000000	-1.000000	-1.000000	-1.000000	-1.000000	139.310345	0.000000	-1.000000	-1.000000	314531.000000	1772918657.810989
-2730.960000	30202.965000	-16147.125000	-14978.970000	0.000000	0.000000	0.000000	0.000000	-94.403897	70.611330	-62.844075	-95.031482	0.000000	-0.000000	-0.000000	0.000000	45.581620	-4.730600	29.711220	0.018188	0.888425	0.468322	-1.000000	-1.000000	-1.000000	-1.000000	-1.000000	-1.000000	-1.000000	139.310345	0.000000	-1.000000	-1.000000	314532.000000	1772918657.817288
-2687.580000	30186.000000	-16132.140000	-14948.235000	0.000000	0.000000	0.000000	0.000000	-197.350948	87.894267	-274.319158	-206.548281	0.000000	-0.000000	-0.000000	0.000000	45.581620	-4.730600	29.711220	0.018188	0.888425	0.468322	-1.000000	-1.000000	-1.000000	-1.000000	-1.000000	-1.000000	-1.000000	139.310345	0.000000	-1.000000	-1.000000	314533.000000	1772918657.817292
-2468.835000	30240.540000	-15929.055000	-14792.265000	0.000000	0.000000	0.000000	0.000000	-214.889271	71.963920	-396.475995	-235.030912	0.000000	-0.000000	-0.000000	0.000000	75.994800	-4.974760	26.170900	0.026123	0.893919	0.498900	-1.000000	-1.000000	-1.000000	-1.000000	-1.000000	-1.000000	-1.000000	139.310345	0.000000	-1.000000	-1.000000	314534.000000	1772918657.820230
-2310.390000	30329.190000	-15876.540000	-14698.620000	0.000000	0.000000	0.000000	0.000000	-115.236896	33.285467	-314.511770	-139.000949	0.000000	-0.000000	-0.000000	0.000000	75.994800	-4.974760	26.170900	0.026123	0.893919	0.498900	-1.000000	-1.000000	-1.000000	-1.000000	-1.000000	-1.000000	-1.000000	139.310345	0.000000	-1.000000	-1.000000	314535.000000	1772918657.820232
-2374.605000	30362.760000	-15760.890000	-14598.045000	0.000000	0.000000	0.000000	0.000000	54.682390	-5.298459	-58.620775	39.872840	0.000000	-0.000000	-0.000000	0.000000	75.994800	-4.974760	26.170900	0.026123	0.893919	0.498900	-1.000000	-1.000000	-1.000000	-1.000000	-1.000000	-1.000000	-1.000000	139.310345	0.000000	-1.000000	-1.000000	314536.000000	1772918657.823361
-2424.465000	30348.270000	-15669.495000	-14627.925000	0.000000	0.000000	0.000000	0.000000	191.032542	-29.908738	225.100365	202.594080	0.000000	-0.000000	-0.000000	0.000000	75.994800	-4.974760	26.170900	0.026123	0.893919	0.498900	-1.000000	-1.000000	-1.000000	-1.000000	-1.000000	-1.000000	-1.000000	139.310345	0.000000	-1.000000	-1.000000	314537.000000	1772918657.823363
-2477.700000	30411.180000	-15746.445000	-14855.040000	0.000000	0.000000	0.000000	0.000000	216.121103	-41.242570	391.523318	260.202854	0.000000	-0.000000	-0.000000	0.000000	75.994800	-4.974760	26.170900	0.026123	0.893919	0.498900	-1.000000	-1.000000	-1.000000	-1.000000	-1.000000	-1.000000	-1.000000	139.310345	0.000000	-1.000000	-1.000000	314538.000000	1772918657.827244
-2461.365000	30387.780000	-15672.330000	-14752.395000	0.000000	0.000000	0.000000	0.000000	133.776589	-43.088854	377.496100	188.814873	0.000000	-0.000000	-0.000000	0.000000	75.994800	-4.974760	26.170900	0.026123	0.893919	0.498900	-1.000000	-1.000000	-1.000000	-1.000000	-1.000000	-1.000000	-1.000000	139.310345	0.000000	-1.000000	-1.000000	314539.000000	1772918657.827246
-2523.555000	30207.870000	-15645.420000	-14664.600000	0.000000	0.000000	0.000000	0.000000	8.621045	-41.424877	220.326716	47.851340	0.000000	-0.000000	-0.000000	0.000000	75.994800	-4.974760	26.170900	0.026123	0.893919	0.498900	-1.000000	-1.000000	-1.000000	-1.000000	-1.000000	-1.000000	-1.000000	139.310345	0.000000	-1.000000	-1.000000	314540.000000	1772918657.831034
-2541.915000	30104.235000	-15708.330000	-14650.020000	0.000000	0.000000	0.000000	0.000000	-91.424420	-46.087442	15.499241	-70.788602	0.000000	-0.000000	-0.000000	0.000000	75.994800	-4.974760	26.170900	0.026123	0.893919	0.498900	-1.000000	-1.000000	-1.000000	-1.000000	-1.000000	-1.000000	-1.000000	139.310345	0.000000	-1.000000	-1.000000	314541.000000	1772918657.831037
-2283.570000	30007.935000	-15446.970000	-14399.550000	0.000000	0.000000	0.000000	0.000000	-126.443843	-56.162217	-145.464322	-114.327004	0.000000	-0.000000	-0.000000	0.000000	75.994800	-4.974760	26.170900	0.026123	0.893919	0.498900	-1.000000	-1.000000	-1.000000	-1.000000	-1.000000	-1.000000	-1.000000	139.310345	0.000000	-1.000000	-1.000000	314542.000000	1772918657.839510
-2098.125000	30023.505000	-15297.525000	-14271.165000	0.000000	0.000000	0.000000	0.000000	-85.774464	-53.889622	-206.227790	-83.667793	0.000000	-0.000000	-0.000000	0.000000	75.994800	-4.974760	26.170900	0.026123	0.893919	0.498900	-1.000000	-1.000000	-1.000000	-1.000000	-1.000000	-1.000000	-1.000000	139.310345	0.000000	-1.000000	-1.000000	314543.000000	1772918657.839513
-2222.505000	30087.855000	-15457.050000	-14380.875000	0.000000	0.000000	0.000000	0.000000	0.263502	-21.363984	-169.198838	-19.893551	0.000000	-0.000000	-0.000000	0.000000	97.374060	-3.845520	37.203880	0.025330	0.881406	0.482909	-1.000000	-1.000000	-1.000000	-1.000000	-1.000000	-1.000000	-1.000000	139.310345	0.000000	-1.000000	-1.000000	314544.000000	1772918657.839517
-2404.980000	30041.955000	-15846.345000	-14607.495000	0.000000	0.000000	0.000000	0.000000	62.088992	38.087006	-102.056862	14.742870	0.000000	-0.000000	-0.000000	0.000000	97.374060	-3.845520	37.203880	0.025330	0.881406	0.482909	-1.000000	-1.000000	-1.000000	-1.000000	-1.000000	-1.000000	-1.000000	139.310345	0.000000	-1.000000	-1.000000	314545.000000	1772918657.839520
-2392.380000	30028.455000	-16111.530000	-14791.770000	0.000000	0.000000	0.000000	0.000000	49.715833	94.880894	-78.384515	-16.741841	0.000000	-0.000000	-0.000000	0.000000	97.374060	-3.845520	37.203880	0.025330	0.881406	0.482909	-1.000000	-1.000000	-1.000000	-1.000000	-1.000000	-1.000000	-1.000000	139.310345	0.000000	-1.000000	-1.000000	314546.000000	1772918657.842376
-2387.295000	29983.230000	-16403.400000	-14874.345000	0.000000	0.000000	0.000000	0.000000	-15.506884	115.894723	-106.222096	-89.675971	0.000000	-0.000000	-0.000000	0.000000	97.374060	-3.845520	37.203880	0.025330	0.881406	0.482909	-1.000000	-1.000000	-1.000000	-1.000000	-1.000000	-1.000000	-1.000000	139.310345	0.000000	-1.000000	-1.000000	314547.000000	1772918657.842379
-2317.140000	29962.485000	-16195.410000	-14722.605000	0.000000	0.000000	0.000000	0.000000	-69.902831	91.215506	-125.566752	-135.635307	0.000000	-0.000000	-0.000000	0.000000	97.374060	-3.845520	37.203880	0.025330	0.881406	0.482909	-1.000000	-1.000000	-1.000000	-1.000000	-1.000000	-1.000000	-1.000000	139.310345	0.000000	-1.000000	-1.000000	314548.000000	1772918657.846122
-2265.030000	29984.895000	-15683.130000	-14559.885000	0.000000	0.000000	0.000000	0.000000	-70.762077	38.118919	-59.694195	-97.910367	0.000000	-0.000000	-0.000000	0.000000	97.374060	-3.845520	37.203880	0.025330	0.881406	0.482909	-1.000000	-1.000000	-1.000000	-1.000000	-1.000000	-1.000000	-1.000000	139.310345	0.000000	-1.000000	-1.000000	314549.000000	1772918657.846125
-2464.830000	30006.855000	-15437.700000	-14533.650000	0.000000	0.000000	0.000000	0.000000	-26.923095	-13.699147	112.322594	17.711776	0.000000	-0.000000	-0.000000	0.000000	97.374060	-3.845520	37.203880	0.025330	0.881406	0.482909	-1.000000	-1.000000	-1.000000	-1.000000	-1.000000	-1.000000	-1.000000	139.310345	0.000000	-1.000000	-1.000000	314550.000000	1772918657.850339
-2578.455000	30083.355000	-15363.315000	-14512.275000	0.000000	0.000000	0.000000	0.000000	16.065680	-41.394581	306.757579	141.764799	0.000000	-0.000000	-0.000000	0.000000	97.374060	-3.845520	37.203880	0.025330	0.881406	0.482909	-1.000000	-1.000000	-1.000000	-1.000000	-1.000000	-1.000000	-1.000000	139.310345	0.000000	-1.000000	-1.000000	314551.000000	1772918657.850342
-2441.655000	30143.295000	-15347.160000	-14450.040000	0.000000	0.000000	0.000000	0.000000	28.229622	-39.473818	389.048127	199.425278	0.000000	-0.000000	-0.000000	0.000000	97.374060	-3.845520	37.203880	0.025330	0.881406	0.482909	-1.000000	-1.000000	-1.000000	-1.000000	-1.000000	-1.000000	-1.000000	139.310345	0.000000	-1.000000	-1.000000	314552.000000	1772918657.854186
-2264.895000	30132.405000	-15433.335000	-14472.855000	0.000000	0.000000	0.000000	0.000000	27.726594	-19.883206	289.489280	166.132032	0.000000	-0.000000	-0.000000	0.000000	97.374060	-3.845520	37.203880	0.025330	0.881406	0.482909	-1.000000	-1.000000	-1.000000	-1.000000	-1.000000	-1.000000	-1.000000	139.310345	0.000000	-1.000000	-1.000000	314553.000000	1772918657.854188
-2230.470000	30052.485000	-15647.085000	-14517.135000	0.000000	0.000000	0.000000	0.000000	43.904036	-5.010592	50.833367	68.443479	0.000000	-0.000000	-0.000000	0.000000	136.836420	-8.820280	56.233100	-0.000549	0.875852	0.463195	-1.000000	-1.000000	-1.000000	-1.000000	-1.000000	-1.000000	-1.000000	139.310345	0.000000	-1.000000	-1.000000	314554.000000	1772918657.861422
-2429.415000	30075.030000	-16196.985000	-14819.895000	0.000000	0.000000	0.000000	0.000000	65.948946	-10.129745	-220.952831	-49.702285	0.000000	-0.000000	-0.000000	0.000000	136.836420	-8.820280	56.233100	-0.000549	0.875852	0.463195	-1.000000	-1.000000	-1.000000	-1.000000	-1.000000	-1.000000	-1.000000	139.310345	0.000000	-1.000000	-1.000000	314555.000000	1772918657.861424
-2425.770000	30092.670000	-16177.500000	-14834.520000	0.000000	0.000000	0.000000	0.000000	56.219745	-27.898195	-417.952808	-149.218466	0.000000	-0.000000	-0.000000	0.000000	136.836420	-8.820280	56.233100	-0.000549	0.875852	0.463195	-1.000000	-1.000000	-1.000000	-1.000000	-1.000000	-1.000000	-1.000000	139.310345	0.000000	-1.000000	-1.000000	314556.000000	1772918657.862250
-2267.145000	30170.610000	-15499.530000	-14573.070000	0.000000	0.000000	0.000000	0.000000	9.720974	-36.710460	-441.883608	-188.198765	0.000000	-0.000000	-0.000000	0.000000	136.836420	-8.820280	56.233100	-0.000549	0.875852	0.463195	-1.000000	-1.000000	-1.000000	-1.000000	-1.000000	-1.000000	-1.000000	139.310345	0.000000	-1.000000	-1.000000	314557.000000	1772918657.862252
-2250.540000	30156.255000	-15158.880000	-14453.235000	0.000000	0.000000	0.000000	0.000000	-34.727013	-24.296908	-241.670998	-132.692244	0.000000	-0.000000	-0.000000	0.000000	136.836420	-8.820280	56.233100	-0.000549	0.875852	0.463195	-1.000000	-1.000000	-1.000000	-1.000000	-1.000000	-1.000000	-1.000000	139.310345	0.000000	-1.000000	-1.000000	314558.000000	1772918657.866577
-2446.065000	30216.510000	-15285.690000	-14499.405000	0.000000	0.000000	0.000000	0.000000	-50.645809	1.747563	93.915480	-5.542629	0.000000	-0.000000	-0.000000	0.000000	136.836420	-8.820280	56.233100	-0.000549	0.875852	0.463195	-1.000000	-1.000000	-1.000000	-1.000000	-1.000000	-1.000000	-1.000000	139.310345	0.000000	-1.000000	-1.000000	314559.000000	1772918657.866579
-2460.510000	30363.795000	-15670.485000	-14611.500000	0.000000	0.000000	0.000000	0.000000	-50.837014	27.360386	351.446362	110.470367	0.000000	-0.000000	-0.000000	0.000000	136.836420	-8.820280	56.233100	-0.000549	0.875852	0.463195	-1.000000	-1.000000	-1.000000	-1.000000	-1.000000	-1.000000	-1.000000	139.310345	0.000000	-1.000000	-1.000000	314560.000000	1772918657.870242
-2370.330000	30436.335000	-15734.295000	-14610.915000	0.000000	0.000000	0.000000	0.000000	-48.049886	45.870725	368.879623	143.983768	0.000000	-0.000000	-0.000000	0.000000	136.836420	-8.820280	56.233100	-0.000549	0.875852	0.463195	-1.000000	-1.000000	-1.000000	-1.000000	-1.000000	-1.000000	-1.000000	139.310345	0.000000	-1.000000	-1.000000	314561.000000	1772918657.870245
-2280.420000	30412.350000	-15543.315000	-14529.600000	0.000000	0.000000	0.000000	0.000000	-31.151192	50.963504	177.711712	94.695163	0.000000	-0.000000	-0.000000	0.000000	136.836420	-8.820280	56.233100	-0.000549	0.875852	0.463195	-1.000000	-1.000000	-1.000000	-1.000000	-1.000000	-1.000000	-1.000000	139.310345	0.000000	-1.000000	-1.000000	314562.000000	1772918657.874398
-2486.610000	30384.405000	-15646.770000	-14692.365000	0.000000	0.000000	0.000000	0.000000	3.054131	32.342778	-53.205019	14.096314	0.000000	-0.000000	-0.000000	0.000000	136.836420	-8.820280	56.233100	-0.000549	0.875852	0.463195	-1.000000	-1.000000	-1.000000	-1.000000	-1.000000	-1.000000	-1.000000	139.310345	0.000000	-1.000000	-1.000000	314563.000000	1772918657.874401
-2492.460000	30392.415000	-15633.090000	-14635.170000	0.000000	0.000000	0.000000	0.000000	29.848812	-9.019673	-185.647834	-51.314463	0.000000	-0.000000	-0.000000	0.000000	160.046880	-12.223260	63.206920	0.009644	0.897764	0.429015	-1.000000	-1.000000	-1.000000	-1.000000	-1.000000	-1.000000	-1.000000	139.310345	0.000000	-1.000000	-1.000000	314564.000000	1772918657.879841
-2221.785000	30420.135000	-15471.855000	-14553.135000	0.000000	0.000000	0.000000	0.000000	35.021314	-52.410116	-187.532815	-77.482496	0.000000	-0.000000	-0.000000	0.000000	160.046880	-12.223260	63.206920	0.009644	0.897764	0.429015	-1.000000	-1.000000	-1.000000	-1.000000	-1.000000	-1.000000	-1.000000	139.310345	0.000000	-1.000000	-1.000000	314565.000000	1772918657.879845
-2279.115000	30434.895000	-15610.455000	-14531.670000	0.000000	0.000000	0.000000	0.000000	36.288691	-72.671405	-100.028596	-57.952297	0.000000	-0.000000	-0.000000	0.000000	160.046880	-12.223260	63.206920	0.009644	0.897764	0.429015	-1.000000	-1.000000	-1.000000	-1.000000	-1.000000	-1.000000	-1.000000	139.310345	0.000000	-1.000000	-1.000000	314566.000000	1772918657.885867
-2306.160000	30354.255000	-15678.360000	-14530.410000	0.000000	0.000000	0.000000	0.000000	41.473665	-62.155891	3.062026	-10.834133	0.000000	-0.000000	-0.000000	0.000000	160.046880	-12.223260	63.206920	0.009644	0.897764	0.429015	-1.000000	-1.000000	-1.000000	-1.000000	-1.000000	-1.000000	-1.000000	139.310345	0.000000	-1.000000	-1.000000	314567.000000	1772918657.885870
-2270.340000	30207.330000	-15471.630000	-14480.595000	0.000000	0.000000	0.000000	0.000000	34.176836	-36.610381	64.729060	31.592712	0.000000	-0.000000	-0.000000	0.000000	160.046880	-12.223260	63.206920	0.009644	0.897764	0.429015	-1.000000	-1.000000	-1.000000	-1.000000	-1.000000	-1.000000	-1.000000	139.310345	0.000000	-1.000000	-1.000000	314568.000000	1772918657.889757
-2393.820000	30035.340000	-15478.830000	-14562.765000	0.000000	0.000000	0.000000	0.000000	6.232462	-19.188352	81.241963	47.002022	0.000000	-0.000000	-0.000000	0.000000	160.046880	-12.223260	63.206920	0.009644	0.897764	0.429015	-1.000000	-1.000000	-1.000000	-1.000000	-1.000000	-1.000000	-1.000000	139.310345	0.000000	-1.000000	-1.000000	314569.000000	1772918657.889760
-2467.800000	30037.680000	-15550.020000	-14596.965000	0.000000	0.000000	0.000000	0.000000	-33.925435	-15.993153	70.959631	30.752066	0.000000	-0.000000	-0.000000	0.000000	160.046880	-12.223260	63.206920	0.009644	0.897764	0.429015	-1.000000	-1.000000	-1.000000	-1.000000	-1.000000	-1.000000	-1.000000	139.310345	0.000000	-1.000000	-1.000000	314570.000000	1772918657.890284
-2367.945000	30207.735000	-15819.255000	-14580.720000	0.000000	0.000000	0.000000	0.000000	-67.165367	-6.324029	35.628844	-4.463352	0.000000	-0.000000	-0.000000	0.000000	160.046880	-12.223260	63.206920	0.009644	0.897764	0.429015	-1.000000	-1.000000	-1.000000	-1.000000	-1.000000	-1.000000	-1.000000	139.310345	0.000000	-1.000000	-1.000000	314571.000000	1772918657.890286
-2379.105000	30305.430000	-15869.430000	-14554.710000	0.000000	0.000000	0.000000	0.000000	-69.509199	33.973011	-24.741373	-33.670340	0.000000	-0.000000	-0.000000	0.000000	160.046880	-12.223260	63.206920	0.009644	0.897764	0.429015	-1.000000	-1.000000	-1.000000	-1.000000	-1.000000	-1.000000	-1.000000	139.310345	0.000000	-1.000000	-1.000000	314572.000000	1772918657.894566
-2524.680000	30329.370000	-15869.385000	-14811.165000	0.000000	0.000000	0.000000	0.000000	-38.133465	95.407008	-82.754399	-42.733182	0.000000	-0.000000	-0.000000	0.000000	160.046880	-12.223260	63.206920	0.009644	0.897764	0.429015	-1.000000	-1.000000	-1.000000	-1.000000	-1.000000	-1.000000	-1.000000	139.310345	0.000000	-1.000000	-1.000000	314573.000000	1772918657.894568
-2599.380000	30310.335000	-15800.265000	-14836.860000	0.000000	0.000000	0.000000	0.000000	-0.455018	134.889882	-95.662010	-41.078103	0.000000	-0.000000	-0.000000	0.000000	120.065680	-22.020180	51.868740	0.032471	0.918333	0.393981	-1.000000	-1.000000	-1.000000	-1.000000	-1.000000	-1.000000	-1.000000	139.310345	0.000000	-1.000000	-1.000000	314574.000000	1772918657.898405
-2487.240000	30273.480000	-15591.285000	-14552.820000	0.000000	0.000000	0.000000	0.000000	21.395126	116.511544	-44.315353	-31.073532	0.000000	-0.000000	-0.000000	0.000000	120.065680	-22.020180	51.868740	0.032471	0.918333	0.393981	-1.000000	-1.000000	-1.000000	-1.000000	-1.000000	-1.000000	-1.000000	139.310345	0.000000	-1.000000	-1.000000	314575.000000	1772918657.898408
-2334.375000	30260.835000	-15592.905000	-14457.195000	0.000000	0.000000	0.000000	0.000000	36.217415	43.606979	47.833001	6.474971	0.000000	-0.000000	-0.000000	0.000000	120.065680	-22.020180	51.868740	0.032471	0.918333	0.393981	-1.000000	-1.000000	-1.000000	-1.000000	-1.000000	-1.000000	-1.000000	139.310345	0.000000	-1.000000	-1.000000	314576.000000	1772918657.904086
-2399.355000	30340.395000	-15695.820000	-14589.675000	0.000000	0.000000	0.000000	0.000000	57.158019	-44.330797	123.195733	65.733920	0.000000	-0.000000	-0.000000	0.000000	120.065680	-22.020180	51.868740	0.032471	0.918333	0.393981	-1.000000	-1.000000	-1.000000	-1.000000	-1.000000	-1.000000	-1.000000	139.310345	0.000000	-1.000000	-1.000000	314577.000000	1772918657.904089
-2467.260000	30419.595000	-15702.570000	-14673.330000	0.000000	0.000000	0.000000	0.000000	69.609786	-99.756174	129.015412	97.836596	0.000000	-0.000000	-0.000000	0.000000	120.065680	-22.020180	51.868740	0.032471	0.918333	0.393981	-1.000000	-1.000000	-1.000000	-1.000000	-1.000000	-1.000000	-1.000000	139.310345	0.000000	-1.000000	-1.000000	314578.000000	1772918657.906324
-2335.050000	30459.060000	-15566.085000	-14612.535000	0.000000	0.000000	0.000000	0.000000	52.695933	-99.946967	66.396149	69.623699	0.000000	-0.000000	-0.000000	0.000000	120.065680	-22.020180	51.868740	0.032471	0.918333	0.393981	-1.000000	-1.000000	-1.000000	-1.000000	-1.000000	-1.000000	-1.000000	139.310345	0.000000	-1.000000	-1.000000	314579.000000	1772918657.906326
-2427.255000	30470.985000	-15543.180000	-14572.080000	0.000000	0.000000	0.000000	0.000000	13.005638	-59.558855	-13.492277	5.124883	0.000000	-0.000000	-0.000000	0.000000	120.065680	-22.020180	51.868740	0.032471	0.918333	0.393981	-1.000000	-1.000000	-1.000000	-1.000000	-1.000000	-1.000000	-1.000000	139.310345	0.000000	-1.000000	-1.000000	314580.000000	1772918657.910390
-2575.530000	30465.585000	-15653.880000	-14621.580000	0.000000	0.000000	0.000000	0.000000	-31.208556	-12.858248	-66.424972	-48.487665	0.000000	-0.000000	-0.000000	0.000000	120.065680	-22.020180	51.868740	0.032471	0.918333	0.393981	-1.000000	-1.000000	-1.000000	-1.000000	-1.000000	-1.000000	-1.000000	139.310345	0.000000	-1.000000	-1.000000	314581.000000	1772918657.910392
-2621.385000	30458.790000	-15800.355000	-14719.860000	0.000000	0.000000	0.000000	0.000000	-70.262555	13.744877	-89.143088	-69.992805	0.000000	-0.000000	-0.000000	0.000000	120.065680	-22.020180	51.868740	0.032471	0.918333	0.393981	-1.000000	-1.000000	-1.000000	-1.000000	-1.000000	-1.000000	-1.000000	139.310345	0.000000	-1.000000	-1.000000	314582.000000	1772918657.917011
-2505.105000	30392.775000	-15729.840000	-14688.360000	0.000000	0.000000	0.000000	0.000000	-88.989609	13.952020	-94.133403	-65.915040	0.000000	-0.000000	-0.000000	0.000000	120.065680	-22.020180	51.868740	0.032471	0.918333	0.393981	-1.000000	-1.000000	-1.000000	-1.000000	-1.000000	-1.000000	-1.000000	139.310345	0.000000	-1.000000	-1.000000	314583.000000	1772918657.917014
-2255.940000	30353.175000	-15634.350000	-14549.445000	0.000000	0.000000	0.000000	0.000000	-63.482430	-3.270752	-76.715364	-42.626610	0.000000	-0.000000	-0.000000	0.000000	61.864040	-25.423160	40.927320	0.056640	0.951353	0.344665	-1.000000	-1.000000	-1.000000	-1.000000	-1.000000	-1.000000	-1.000000	139.310345	0.000000	-1.000000	-1.000000	314584.000000	1772918657.920040
-2086.965000	30489.255000	-15520.365000	-14351.265000	0.000000	0.000000	0.000000	0.000000	11.276717	-19.252528	-26.382624	1.982380	0.000000	-0.000000	-0.000000	0.000000	61.864040	-25.423160	40.927320	0.056640	0.951353	0.344665	-1.000000	-1.000000	-1.000000	-1.000000	-1.000000	-1.000000	-1.000000	139.310345	0.000000	-1.000000	-1.000000	314585.000000	1772918657.920043
-2189.565000	30547.620000	-15633.135000	-14492.070000	0.000000	0.000000	0.000000	0.000000	96.363274	-13.358867	41.079843	55.781003	0.000000	-0.000000	-0.000000	0.000000	61.864040	-25.423160	40.927320	0.056640	0.951353	0.344665	-1.000000	-1.000000	-1.000000	-1.000000	-1.000000	-1.000000	-1.000000	139.310345	0.000000	-1.000000	-1.000000	314586.000000	1772918657.923363
-2282.760000	30537.630000	-15700.860000	-14647.140000	0.000000	0.000000	0.000000	0.000000	127.191665	16.037909	83.893620	79.611114	0.000000	-0.000000	-0.000000	0.000000	61.864040	-25.423160	40.927320	0.056640	0.951353	0.344665	-1.000000	-1.000000	-1.000000	-1.000000	-1.000000	-1.000000	-1.000000	139.310345	0.000000	-1.000000	-1.000000	314587.000000	1772918657.923366
-2608.740000	30464.370000	-15846.030000	-14893.290000	0.000000	0.000000	0.000000	0.000000	67.983958	43.693293	71.932274	40.795709	0.000000	-0.000000	-0.000000	0.000000	61.864040	-25.423160	40.927320	0.056640	0.951353	0.344665	-1.000000	-1.000000	-1.000000	-1.000000	-1.000000	-1.000000	-1.000000	139.310345	0.000000	-1.000000	-1.000000	314588.000000	1772918657.929271
-2728.170000	30243.420000	-15935.085000	-14850.495000	0.000000	0.000000	0.000000	0.000000	-55.385369	39.625328	14.622982	-42.795983	0.000000	-0.000000	-0.000000	0.000000	61.864040	-25.423160	40.927320	0.056640	0.951353	0.344665	-1.000000	-1.000000	-1.000000	-1.000000	-1.000000	-1.000000	-1.000000	139.310345	0.000000	-1.000000	-1.000000	314589.000000	1772918657.929274
-2457.495000	30217.545000	-15891.750000	-14599.665000	0.000000	0.000000	0.000000	0.000000	-162.801002	-2.249517	-46.947800	-103.784348	0.000000	-0.000000	-0.000000	0.000000	61.864040	-25.423160	40.927320	0.056640	0.951353	0.344665	-1.000000	-1.000000	-1.000000	-1.000000	-1.000000	-1.000000	-1.000000	139.310345	0.000000	-1.000000	-1.000000	314590.000000	1772918657.931305
-2276.145000	30218.490000	-15663.375000	-14482.170000	0.000000	0.000000	0.000000	0.000000	-167.680991	-52.146696	-65.553448	-81.695398	0.000000	-0.000000	-0.000000	0.000000	61.864040	-25.423160	40.927320	0.056640	0.951353	0.344665	-1.000000	-1.000000	-1.000000	-1.000000	-1.000000	-1.000000	-1.000000	139.310345	0.000000	-1.000000	-1.000000	314591.000000	1772918657.931308
-2347.470000	30177.360000	-15454.575000	-14569.245000	0.000000	0.000000	0.000000	0.000000	-57.687276	-68.961053	-18.392926	11.422677	0.000000	-0.000000	-0.000000	0.000000	61.864040	-25.423160	40.927320	0.056640	0.951353	0.344665	-1.000000	-1.000000	-1.000000	-1.000000	-1.000000	-1.000000	-1.000000	139.310345	0.000000	-1.000000	-1.000000	314592.000000	1772918657.937431
-2623.680000	30211.110000	-15569.865000	-14687.190000	0.000000	0.000000	0.000000	0.000000	79.376165	-39.351906	65.466787	96.750078	0.000000	-0.000000	-0.000000	0.000000	61.864040	-25.423160	40.927320	0.056640	0.951353	0.344665	-1.000000	-1.000000	-1.000000	-1.000000	-1.000000	-1.000000	-1.000000	139.310345	0.000000	-1.000000	-1.000000	314593.000000	1772918657.937435
-2506.095000	30338.775000	-15552.495000	-14577.840000	0.000000	0.000000	0.000000	0.000000	141.867293	19.255043	117.774945	110.334329	0.000000	-0.000000	-0.000000	0.000000	-0.442540	-19.563320	31.786580	0.077759	0.969236	0.305175	-1.000000	-1.000000	-1.000000	-1.000000	-1.000000	-1.000000	-1.000000	139.310345	0.000000	-1.000000	-1.000000	314594.000000	1772918657.939308
-2302.020000	30448.485000	-15529.680000	-14518.350000	0.000000	0.000000	0.000000	0.000000	115.581728	80.336498	94.852503	60.681713	0.000000	-0.000000	-0.000000	0.000000	-0.442540	-19.563320	31.786580	0.077759	0.969236	0.305175	-1.000000	-1.000000	-1.000000	-1.000000	-1.000000	-1.000000	-1.000000	139.310345	0.000000	-1.000000	-1.000000	314595.000000	1772918657.939311
-2419.290000	30497.760000	-15691.365000	-14641.470000	0.000000	0.000000	0.000000	0.000000	57.745944	118.221412	13.172159	-3.800343	0.000000	-0.000000	-0.000000	0.000000	-0.442540	-19.563320	31.786580	0.077759	0.969236	0.305175	-1.000000	-1.000000	-1.000000	-1.000000	-1.000000	-1.000000	-1.000000	139.310345	0.000000	-1.000000	-1.000000	314596.000000	1772918657.943452
-2372.265000	30430.935000	-15746.850000	-14643.450000	0.000000	0.000000	0.000000	0.000000	9.708721	111.210252	-80.940477	-52.142933	0.000000	-0.000000	-0.000000	0.000000	-0.442540	-19.563320	31.786580	0.077759	0.969236	0.305175	-1.000000	-1.000000	-1.000000	-1.000000	-1.000000	-1.000000	-1.000000	139.310345	0.000000	-1.000000	-1.000000	314597.000000	1772918657.943456
-2220.840000	30341.880000	-15694.920000	-14584.005000	0.000000	0.000000	0.000000	0.000000	-20.798474	52.302019	-141.646757	-74.084493	0.000000	-0.000000	-0.000000	0.000000	-0.442540	-19.563320	31.786580	0.077759	0.969236	0.305175	-1.000000	-1.000000	-1.000000	-1.000000	-1.000000	-1.000000	-1.000000	139.310345	0.000000	-1.000000	-1.000000	314598.000000	1772918657.947010
-2355.165000	30206.880000	-15757.425000	-14671.215000	0.000000	0.000000	0.000000	0.000000	-33.523853	-40.065169	-139.077603	-66.069790	0.000000	-0.000000	-0.000000	0.000000	-0.442540	-19.563320	31.786580	0.077759	0.969236	0.305175	-1.000000	-1.000000	-1.000000	-1.000000	-1.000000	-1.000000	-1.000000	139.310345	0.000000	-1.000000	-1.000000	314599.000000	1772918657.947015
-2307.465000	30147.345000	-15794.685000	-14593.095000	0.000000	0.000000	0.000000	0.000000	-37.087985	-126.247832	-79.455827	-36.217890	0.000000	-0.000000	-0.000000	0.000000	-0.442540	-19.563320	31.786580	0.077759	0.969236	0.305175	-1.000000	-1.000000	-1.000000	-1.000000	-1.000000	-1.000000	-1.000000	139.310345	0.000000	-1.000000	-1.000000	314600.000000	1772918657.951460
-2119.545000	30192.615000	-15699.330000	-14469.975000	0.000000	0.000000	0.000000	0.000000	-37.562401	-163.506724	2.449870	2.715707	0.000000	-0.000000	-0.000000	0.000000	-0.442540	-19.563320	31.786580	0.077759	0.969236	0.305175	-1.000000	-1.000000	-1.000000	-1.000000	-1.000000	-1.000000	-1.000000	139.310345	0.000000	-1.000000	-1.000000	314601.000000	1772918657.951464
-2107.125000	30284.505000	-15579.900000	-14487.030000	0.000000	0.000000	0.000000	0.000000	-26.112309	-128.210629	75.780604	41.015258	0.000000	-0.000000	-0.000000	0.000000	-0.442540	-19.563320	31.786580	0.077759	0.969236	0.305175	-1.000000	-1.000000	-1.000000	-1.000000	-1.000000	-1.000000	-1.000000	139.310345	0.000000	-1.000000	-1.000000	314602.000000	1772918657.984454
-2208.510000	30362.355000	-15414.435000	-14471.955000	0.000000	0.000000	0.000000	0.000000	-5.337108	-33.133646	125.423998	63.501465	0.000000	-0.000000	-0.000000	0.000000	-0.442540	-19.563320	31.786580	0.077759	0.969236	0.305175	-1.000000	-1.000000	-1.000000	-1.000000	-1.000000	-1.000000	-1.000000	139.310345	0.000000	-1.000000	-1.000000	314603.000000	1772918657.984459
-2623.545000	30351.735000	-15680.250000	-14688.180000	0.000000	0.000000	0.000000	0.000000	-4.150307	74.312532	136.435716	52.594929	0.000000	-0.000000	-0.000000	0.000000	-19.670140	-9.903740	10.208940	0.099853	0.932615	0.291991	-1.000000	-1.000000	-1.000000	-1.000000	-1.000000	-1.000000	-1.000000	139.310345	0.000000	-1.000000	-1.000000	314604.000000	1772918657.984473
-2818.980000	30293.370000	-15949.170000	-14873.895000	0.000000	0.000000	0.000000	0.000000	-45.774754	138.057114	85.950054	2.741631	0.000000	-0.000000	-0.000000	0.000000	-19.670140	-9.903740	10.208940	0.099853	0.932615	0.291991	-1.000000	-1.000000	-1.000000	-1.000000	-1.000000	-1.000000	-1.000000	139.310345	0.000000	-1.000000	-1.000000	314605.000000	1772918657.984476
-2704.050000	30297.960000	-15858.675000	-14731.650000	0.000000	0.000000	0.000000	0.000000	-102.607594	129.324722	-20.228190	-62.534867	0.000000	-0.000000	-0.000000	0.000000	-19.670140	-9.903740	10.208940	0.099853	0.932615	0.291991	-1.000000	-1.000000	-1.000000	-1.000000	-1.000000	-1.000000	-1.000000	139.310345	0.000000	-1.000000	-1.000000	314606.000000	1772918657.984479
-2528.280000	30318.120000	-15774.030000	-14769.990000	0.000000	0.000000	0.000000	0.000000	-105.003739	65.008778	-117.481389	-94.109925	0.000000	-0.000000	-0.000000	0.000000	-19.670140	-9.903740	10.208940	0.099853	0.932615	0.291991	-1.000000	-1.000000	-1.000000	-1.000000	-1.000000	-1.000000	-1.000000	139.310345	0.000000	-1.000000	-1.000000	314607.000000	1772918657.984482
-2464.065000	30268.485000	-15754.500000	-14708.610000	0.000000	0.000000	0.000000	0.000000	-17.097066	-11.369330	-136.425284	-63.634374	0.000000	-0.000000	-0.000000	0.000000	-19.670140	-9.903740	10.208940	0.099853	0.932615	0.291991	-1.000000	-1.000000	-1.000000	-1.000000	-1.000000	-1.000000	-1.000000	139.310345	0.000000	-1.000000	-1.000000	314608.000000	1772918657.984485
-2392.470000	30305.880000	-15739.065000	-14595.660000	0.000000	0.000000	0.000000	0.000000	115.876847	-63.730642	-73.130493	9.863972	0.000000	-0.000000	-0.000000	0.000000	-19.670140	-9.903740	10.208940	0.099853	0.932615	0.291991	-1.000000	-1.000000	-1.000000	-1.000000	-1.000000	-1.000000	-1.000000	139.310345	0.000000	-1.000000	-1.000000	314609.000000	1772918657.984488
-2350.395000	30426.570000	-15587.820000	-14481.855000	0.000000	0.000000	0.000000	0.000000	209.602017	-75.347192	21.686979	85.901434	0.000000	-0.000000	-0.000000	0.000000	-19.670140	-9.903740	10.208940	0.099853	0.932615	0.291991	-1.000000	-1.000000	-1.000000	-1.000000	-1.000000	-1.000000	-1.000000	139.310345	0.000000	-1.000000	-1.000000	314610.000000	1772918657.984491
-2429.595000	30465.225000	-15733.440000	-14607.675000	0.000000	0.000000	0.000000	0.000000	208.694078	-47.246533	92.635533	125.988428	0.000000	-0.000000	-0.000000	0.000000	-19.670140	-9.903740	10.208940	0.099853	0.932615	0.291991	-1.000000	-1.000000	-1.000000	-1.000000	-1.000000	-1.000000	-1.000000	139.310345	0.000000	-1.000000	-1.000000	314611.000000	1772918657.984493
-2459.115000	30435.210000	-15683.670000	-14610.105000	0.000000	0.000000	0.000000	0.000000	114.779890	-1.506676	105.769912	104.922277	0.000000	-0.000000	-0.000000	0.000000	-19.670140	-9.903740	10.208940	0.099853	0.932615	0.291991	-1.000000	-1.000000	-1.000000	-1.000000	-1.000000	-1.000000	-1.000000	139.310345	0.000000	-1.000000	-1.000000	314612.000000	1772918657.984496
-2554.470000	30257.955000	-15998.580000	-14825.070000	0.000000	0.000000	0.000000	0.000000	-23.504098	26.232238	57.569653	27.657738	0.000000	-0.000000	-0.000000	0.000000	-19.670140	-9.903740	10.208940	0.099853	0.932615	0.291991	-1.000000	-1.000000	-1.000000	-1.000000	-1.000000	-1.000000	-1.000000	139.310345	0.000000	-1.000000	-1.000000	314613.000000	1772918657.984498
-2490.975000	30051.495000	-15923.205000	-14659.155000	0.000000	0.000000	0.000000	0.000000	-139.981579	10.880415	-24.949437	-66.033009	0.000000	-0.000000	-0.000000	0.000000	-2.731540	-0.671440	-0.366240	0.116333	0.881529	0.285888	-1.000000	-1.000000	-1.000000	-1.000000	-1.000000	-1.000000	-1.000000	139.310345	0.000000	-1.000000	-1.000000	314614.000000	1772918657.984501
-2457.585000	30042.810000	-15657.075000	-14683.005000	0.000000	0.000000	0.000000	0.000000	-184.090334	-37.909541	-87.548821	-121.319645	0.000000	-0.000000	-0.000000	0.000000	-2.731540	-0.671440	-0.366240	0.116333	0.881529	0.285888	-1.000000	-1.000000	-1.000000	-1.000000	-1.000000	-1.000000	-1.000000	139.310345	0.000000	-1.000000	-1.000000	314615.000000	1772918657.984502
-2353.455000	30033.045000	-15394.545000	-14517.585000	0.000000	0.000000	0.000000	0.000000	-144.268336	-76.380009	-75.226429	-106.406850	0.000000	-0.000000	-0.000000	0.000000	-2.731540	-0.671440	-0.366240	0.116333	0.881529	0.285888	-1.000000	-1.000000	-1.000000	-1.000000	-1.000000	-1.000000	-1.000000	139.310345	0.000000	-1.000000	-1.000000	314616.000000	1772918657.984505
-2198.745000	29937.150000	-15108.705000	-14270.670000	0.000000	0.000000	0.000000	0.000000	-48.827323	-66.930595	14.763739	-31.808547	0.000000	-0.000000	-0.000000	0.000000	-2.731540	-0.671440	-0.366240	0.116333	0.881529	0.285888	-1.000000	-1.000000	-1.000000	-1.000000	-1.000000	-1.000000	-1.000000	139.310345	0.000000	-1.000000	-1.000000	314617.000000	1772918657.984507
-2242.440000	29932.920000	-15371.145000	-14433.975000	0.000000	0.000000	0.000000	0.000000	52.125926	-13.832690	114.822715	58.807030	0.000000	-0.000000	-0.000000	0.000000	-2.731540	-0.671440	-0.366240	0.116333	0.881529	0.285888	-1.000000	-1.000000	-1.000000	-1.000000	-1.000000	-1.000000	-1.000000	139.310345	0.000000	-1.000000	-1.000000	314618.000000	1772918657.987498
-2332.170000	29992.995000	-15828.480000	-14620.275000	0.000000	0.000000	0.000000	0.000000	106.703532	51.583920	127.620195	102.694019	0.000000	-0.000000	-0.000000	0.000000	-2.731540	-0.671440	-0.366240	0.116333	0.881529	0.285888	-1.000000	-1.000000	-1.000000	-1.000000	-1.000000	-1.000000	-1.000000	139.310345	0.000000	-1.000000	-1.000000	314619.000000	1772918657.987501
-2371.905000	30074.220000	-16231.860000	-14712.570000	0.000000	0.000000	0.000000	0.000000	88.901214	102.612757	6.941152	62.017224	0.000000	-0.000000	-0.000000	0.000000	-2.731540	-0.671440	-0.366240	0.116333	0.881529	0.285888	-1.000000	-1.000000	-1.000000	-1.000000	-1.000000	-1.000000	-1.000000	139.310345	0.000000	-1.000000	-1.000000	314620.000000	1772918657.991436
-2332.035000	30169.980000	-15934.680000	-14695.830000	0.000000	0.000000	0.000000	0.000000	20.916624	125.618568	-174.311364	-31.531530	0.000000	-0.000000	-0.000000	0.000000	-2.731540	-0.671440	-0.366240	0.116333	0.881529	0.285888	-1.000000	-1.000000	-1.000000	-1.000000	-1.000000	-1.000000	-1.000000	139.310345	0.000000	-1.000000	-1.000000	314621.000000	1772918657.991439
-2529.945000	30133.935000	-15705.855000	-14788.440000	0.000000	0.000000	0.000000	0.000000	-48.520935	113.976317	-262.859519	-105.635397	0.000000	-0.000000	-0.000000	0.000000	-2.731540	-0.671440	-0.366240	0.116333	0.881529	0.285888	-1.000000	-1.000000	-1.000000	-1.000000	-1.000000	-1.000000	-1.000000	139.310345	0.000000	-1.000000	-1.000000	314622.000000	1772918657.995537
-2760.930000	30130.695000	-15564.015000	-14748.705000	0.000000	0.000000	0.000000	0.000000	-90.677269	66.115354	-169.018749	-113.536292	0.000000	-0.000000	-0.000000	0.000000	-2.731540	-0.671440	-0.366240	0.116333	0.881529	0.285888	-1.000000	-1.000000	-1.000000	-1.000000	-1.000000	-1.000000	-1.000000	139.310345	0.000000	-1.000000	-1.000000	314623.000000	1772918657.995540
-2531.295000	30083.580000	-15508.530000	-14571.765000	0.000000	0.000000	0.000000	0.000000	-98.179413	-6.980464	44.791098	-55.117756	0.000000	-0.000000	-0.000000	0.000000	16.587620	5.676720	-5.325740	0.114807	0.867979	0.288146	-1.000000	-1.000000	-1.000000	-1.000000	-1.000000	-1.000000	-1.000000	139.310345	0.000000	-1.000000	-1.000000	314624.000000	1772918657.999627
-2444.040000	30091.590000	-15673.185000	-14653.710000	0.000000	0.000000	0.000000	0.000000	-57.821377	-79.021296	228.857872	37.231731	0.000000	-0.000000	-0.000000	0.000000	16.587620	5.676720	-5.325740	0.114807	0.867979	0.288146	-1.000000	-1.000000	-1.000000	-1.000000	-1.000000	-1.000000	-1.000000	139.310345	0.000000	-1.000000	-1.000000	314625.000000	1772918657.999629
-2403.000000	30187.530000	-15670.395000	-14642.820000	0.000000	0.000000	0.000000	0.000000	28.033615	-119.111629	271.088465	111.602205	0.000000	-0.000000	-0.000000	0.000000	16.587620	5.676720	-5.325740	0.114807	0.867979	0.288146	-1.000000	-1.000000	-1.000000	-1.000000	-1.000000	-1.000000	-1.000000	139.310345	0.000000	-1.000000	-1.000000	314626.000000	1772918658.003438
-2433.015000	30162.420000	-15610.185000	-14536.845000	0.000000	0.000000	0.000000	0.000000	114.250199	-110.148539	170.442746	129.259087	0.000000	-0.000000	-0.000000	0.000000	16.587620	5.676720	-5.325740	0.114807	0.867979	0.288146	-1.000000	-1.000000	-1.000000	-1.000000	-1.000000	-1.000000	-1.000000	139.310345	0.000000	-1.000000	-1.000000	314627.000000	1772918658.003441
-2466.675000	30149.910000	-15640.920000	-14602.005000	0.000000	0.000000	0.000000	0.000000	146.158066	-63.924216	13.390534	92.631418	0.000000	-0.000000	-0.000000	0.000000	16.587620	5.676720	-5.325740	0.114807	0.867979	0.288146	-1.000000	-1.000000	-1.000000	-1.000000	-1.000000	-1.000000	-1.000000	139.310345	0.000000	-1.000000	-1.000000	314628.000000	1772918658.006334
-2579.850000	30101.355000	-15777.000000	-14747.130000	0.000000	0.000000	0.000000	0.000000	104.784041	-12.027223	-112.394507	25.221458	0.000000	-0.000000	-0.000000	0.000000	16.587620	5.676720	-5.325740	0.114807	0.867979	0.288146	-1.000000	-1.000000	-1.000000	-1.000000	-1.000000	-1.000000	-1.000000	139.310345	0.000000	-1.000000	-1.000000	314629.000000	1772918658.006336
-2581.335000	29959.605000	-15784.965000	-14791.680000	0.000000	0.000000	0.000000	0.000000	15.704153	18.371032	-169.275874	-50.186912	0.000000	-0.000000	-0.000000	0.000000	16.587620	5.676720	-5.325740	0.114807	0.867979	0.288146	-1.000000	-1.000000	-1.000000	-1.000000	-1.000000	-1.000000	-1.000000	139.310345	0.000000	-1.000000	-1.000000	314630.000000	1772918658.015812
-2521.215000	29932.470000	-15713.865000	-14747.400000	0.000000	0.000000	0.000000	0.000000	-69.083224	19.057894	-156.059783	-104.985426	0.000000	-0.000000	-0.000000	0.000000	16.587620	5.676720	-5.325740	0.114807	0.867979	0.288146	-1.000000	-1.000000	-1.000000	-1.000000	-1.000000	-1.000000	-1.000000	139.310345	0.000000	-1.000000	-1.000000	314631.000000	1772918658.015815
-2487.870000	29937.915000	-15703.020000	-14706.720000	0.000000	0.000000	0.000000	0.000000	-103.934491	4.742204	-88.101654	-110.498955	0.000000	-0.000000	-0.000000	0.000000	16.587620	5.676720	-5.325740	0.114807	0.867979	0.288146	-1.000000	-1.000000	-1.000000	-1.000000	-1.000000	-1.000000	-1.000000	139.310345	0.000000	-1.000000	-1.000000	314632.000000	1772918658.015819
-2416.230000	29965.860000	-15647.265000	-14615.370000	0.000000	0.000000	0.000000	0.000000	-78.973150	0.344235	2.999526	-62.077355	0.000000	-0.000000	-0.000000	0.000000	16.587620	5.676720	-5.325740	0.114807	0.867979	0.288146	-1.000000	-1.000000	-1.000000	-1.000000	-1.000000	-1.000000	-1.000000	139.310345	0.000000	-1.000000	-1.000000	314633.000000	1772918658.015822
-2350.755000	29991.150000	-15626.430000	-14573.385000	0.000000	0.000000	0.000000	0.000000	-19.460573	17.174922	78.384563	13.995970	0.000000	-0.000000	-0.000000	0.000000	21.821800	12.665800	-7.507920	0.113037	0.870542	0.285339	-1.000000	-1.000000	-1.000000	-1.000000	-1.000000	-1.000000	-1.000000	139.310345	0.000000	-1.000000	-1.000000	314634.000000	1772918658.022093
-2406.915000	30005.955000	-15758.415000	-14621.715000	0.000000	0.000000	0.000000	0.000000	35.950887	44.732607	108.529708	76.146413	0.000000	-0.000000	-0.000000	0.000000	21.821800	12.665800	-7.507920	0.113037	0.870542	0.285339	-1.000000	-1.000000	-1.000000	-1.000000	-1.000000	-1.000000	-1.000000	139.310345	0.000000	-1.000000	-1.000000	314635.000000	1772918658.022095
-2388.645000	30034.890000	-15615.135000	-14550.795000	0.000000	0.000000	0.000000	0.000000	56.652809	63.059462	86.689033	92.966726	0.000000	-0.000000	-0.000000	0.000000	21.821800	12.665800	-7.507920	0.113037	0.870542	0.285339	-1.000000	-1.000000	-1.000000	-1.000000	-1.000000	-1.000000	-1.000000	139.310345	0.000000	-1.000000	-1.000000	314636.000000	1772918658.025311
-2497.095000	30077.775000	-15639.120000	-14631.885000	0.000000	0.000000	0.000000	0.000000	35.853409	59.745735	36.507216	62.748873	0.000000	-0.000000	-0.000000	0.000000	21.821800	12.665800	-7.507920	0.113037	0.870542	0.285339	-1.000000	-1.000000	-1.000000	-1.000000	-1.000000	-1.000000	-1.000000	139.310345	0.000000	-1.000000	-1.000000	314637.000000	1772918658.025314
-2658.780000	29989.755000	-15934.275000	-14839.470000	0.000000	0.000000	0.000000	0.000000	-11.960135	34.664122	-14.509943	3.728164	0.000000	-0.000000	-0.000000	0.000000	21.821800	12.665800	-7.507920	0.113037	0.870542	0.285339	-1.000000	-1.000000	-1.000000	-1.000000	-1.000000	-1.000000	-1.000000	139.310345	0.000000	-1.000000	-1.000000	314638.000000	1772918658.028216
-2385.765000	29812.005000	-15790.050000	-14737.275000	0.000000	0.000000	0.000000	0.000000	-57.264282	-8.364912	-57.287100	-59.607883	0.000000	-0.000000	-0.000000	0.000000	21.821800	12.665800	-7.507920	0.113037	0.870542	0.285339	-1.000000	-1.000000	-1.000000	-1.000000	-1.000000	-1.000000	-1.000000	139.310345	0.000000	-1.000000	-1.000000	314639.000000	1772918658.028219
-2380.815000	29635.380000	-15853.860000	-14652.945000	0.000000	0.000000	0.000000	0.000000	-62.349683	-62.887584	-78.634498	-92.204348	0.000000	-0.000000	-0.000000	0.000000	21.821800	12.665800	-7.507920	0.113037	0.870542	0.285339	-1.000000	-1.000000	-1.000000	-1.000000	-1.000000	-1.000000	-1.000000	139.310345	0.000000	-1.000000	-1.000000	314640.000000	1772918658.031578
-2479.995000	29445.165000	-15879.465000	-14708.610000	0.000000	0.000000	0.000000	0.000000	-20.272420	-111.920131	-63.615535	-70.248021	0.000000	-0.000000	-0.000000	0.000000	21.821800	12.665800	-7.507920	0.113037	0.870542	0.285339	-1.000000	-1.000000	-1.000000	-1.000000	-1.000000	-1.000000	-1.000000	139.310345	0.000000	-1.000000	-1.000000	314641.000000	1772918658.031580
-2369.205000	29266.875000	-15529.185000	-14564.475000	0.000000	0.000000	0.000000	0.000000	31.334044	-131.991717	-15.222535	-9.746434	0.000000	-0.000000	-0.000000	0.000000	21.821800	12.665800	-7.507920	0.113037	0.870542	0.285339	-1.000000	-1.000000	-1.000000	-1.000000	-1.000000	-1.000000	-1.000000	139.310345	0.000000	-1.000000	-1.000000	314642.000000	1772918658.035560
-2133.045000	29191.455000	-15197.490000	-14221.350000	0.000000	0.000000	0.000000	0.000000	62.418979	-107.521152	58.656763	58.215632	0.000000	-0.000000	-0.000000	0.000000	21.821800	12.665800	-7.507920	0.113037	0.870542	0.285339	-1.000000	-1.000000	-1.000000	-1.000000	-1.000000	-1.000000	-1.000000	139.310345	0.000000	-1.000000	-1.000000	314643.000000	1772918658.035564
-2081.655000	29192.085000	-15429.285000	-14285.970000	0.000000	0.000000	0.000000	0.000000	74.858381	-38.614672	131.896368	111.584930	0.000000	-0.000000	-0.000000	0.000000	21.013020	13.077820	-13.611920	0.110168	0.886961	0.277160	-1.000000	-1.000000	-1.000000	-1.000000	-1.000000	-1.000000	-1.000000	139.310345	0.000000	-1.000000	-1.000000	314644.000000	1772918658.039641
-2376.765000	29226.960000	-15847.560000	-14763.240000	0.000000	0.000000	0.000000	0.000000	64.610653	57.124812	137.856845	113.779864	0.000000	-0.000000	-0.000000	0.000000	21.013020	13.077820	-13.611920	0.110168	0.886961	0.277160	-1.000000	-1.000000	-1.000000	-1.000000	-1.000000	-1.000000	-1.000000	139.310345	0.000000	-1.000000	-1.000000	314645.000000	1772918658.039646
-2493.855000	29252.340000	-15717.240000	-14814.765000	0.000000	0.000000	0.000000	0.000000	11.438626	146.676080	36.574723	30.424143	0.000000	-0.000000	-0.000000	0.000000	21.013020	13.077820	-13.611920	0.110168	0.886961	0.277160	-1.000000	-1.000000	-1.000000	-1.000000	-1.000000	-1.000000	-1.000000	139.310345	0.000000	-1.000000	-1.000000	314646.000000	1772918658.043636
-2544.390000	29186.775000	-15418.665000	-14494.320000	0.000000	0.000000	0.000000	0.000000	-74.924831	192.426247	-103.148886	-95.423454	0.000000	-0.000000	-0.000000	0.000000	21.013020	13.077820	-13.611920	0.110168	0.886961	0.277160	-1.000000	-1.000000	-1.000000	-1.000000	-1.000000	-1.000000	-1.000000	139.310345	0.000000	-1.000000	-1.000000	314647.000000	1772918658.043641
-2662.020000	29129.265000	-15618.915000	-14598.045000	0.000000	0.000000	0.000000	0.000000	-142.479882	170.647702	-168.435200	-160.802334	0.000000	-0.000000	-0.000000	0.000000	21.013020	13.077820	-13.611920	0.110168	0.886961	0.277160	-1.000000	-1.000000	-1.000000	-1.000000	-1.000000	-1.000000	-1.000000	139.310345	0.000000	-1.000000	-1.000000	314648.000000	1772918658.051016
-2546.640000	29148.300000	-15593.175000	-14599.305000	0.000000	0.000000	0.000000	0.000000	-144.180359	89.816378	-131.247568	-121.660904	0.000000	-0.000000	-0.000000	0.000000	21.013020	13.077820	-13.611920	0.110168	0.886961	0.277160	-1.000000	-1.000000	-1.000000	-1.000000	-1.000000	-1.000000	-1.000000	139.310345	0.000000	-1.000000	-1.000000	314649.000000	1772918658.051022
-2365.920000	29119.410000	-15436.530000	-14440.230000	0.000000	0.000000	0.000000	0.000000	-69.494811	-10.571334	-43.673408	-22.913863	0.000000	-0.000000	-0.000000	0.000000	21.013020	13.077820	-13.611920	0.110168	0.886961	0.277160	-1.000000	-1.000000	-1.000000	-1.000000	-1.000000	-1.000000	-1.000000	139.310345	0.000000	-1.000000	-1.000000	314650.000000	1772918658.051029
-2256.030000	29156.400000	-15460.605000	-14421.060000	0.000000	0.000000	0.000000	0.000000	53.096006	-86.683091	42.150303	72.938193	0.000000	-0.000000	-0.000000	0.000000	21.013020	13.077820	-13.611920	0.110168	0.886961	0.277160	-1.000000	-1.000000	-1.000000	-1.000000	-1.000000	-1.000000	-1.000000	139.310345	0.000000	-1.000000	-1.000000	314651.000000	1772918658.051031
-2370.645000	29257.335000	-15667.740000	-14639.490000	0.000000	0.000000	0.000000	0.000000	160.743642	-113.450376	90.099466	120.652816	0.000000	-0.000000	-0.000000	0.000000	21.013020	13.077820	-13.611920	0.110168	0.886961	0.277160	-1.000000	-1.000000	-1.000000	-1.000000	-1.000000	-1.000000	-1.000000	139.310345	0.000000	-1.000000	-1.000000	314652.000000	1772918658.055647
-2405.385000	29354.670000	-15727.635000	-14685.705000	0.000000	0.000000	0.000000	0.000000	188.507946	-89.554655	77.370621	96.282772	0.000000	-0.000000	-0.000000	0.000000	21.013020	13.077820	-13.611920	0.110168	0.886961	0.277160	-1.000000	-1.000000	-1.000000	-1.000000	-1.000000	-1.000000	-1.000000	139.310345	0.000000	-1.000000	-1.000000	314653.000000	1772918658.055659
-2369.160000	29371.545000	-15687.270000	-14524.290000	0.000000	0.000000	0.000000	0.000000	122.137309	-36.594474	19.961679	22.199581	0.000000	-0.000000	-0.000000	0.000000	22.065960	18.128880	-16.984380	0.105530	0.905393	0.285461	-1.000000	-1.000000	-1.000000	-1.000000	-1.000000	-1.000000	-1.000000	139.310345	0.000000	-1.000000	-1.000000	314654.000000	1772918658.059653
-2425.095000	29349.630000	-15769.755000	-14605.470000	0.000000	0.000000	0.000000	0.000000	8.964782	9.954894	-33.907243	-42.501213	0.000000	-0.000000	-0.000000	0.000000	22.065960	18.128880	-16.984380	0.105530	0.905393	0.285461	-1.000000	-1.000000	-1.000000	-1.000000	-1.000000	-1.000000	-1.000000	139.310345	0.000000	-1.000000	-1.000000	314655.000000	1772918658.059660
-2524.005000	29386.935000	-15830.055000	-14798.790000	0.000000	0.000000	0.000000	0.000000	-89.642899	24.125867	-51.415400	-65.028178	0.000000	-0.000000	-0.000000	0.000000	22.065960	18.128880	-16.984380	0.105530	0.905393	0.285461	-1.000000	-1.000000	-1.000000	-1.000000	-1.000000	-1.000000	-1.000000	139.310345	0.000000	-1.000000	-1.000000	314656.000000	1772918658.065327
-2648.745000	29494.935000	-15881.760000	-14852.520000	0.000000	0.000000	0.000000	0.000000	-140.833322	9.283651	-35.433653	-60.259840	0.000000	-0.000000	-0.000000	0.000000	22.065960	18.128880	-16.984380	0.105530	0.905393	0.285461	-1.000000	-1.000000	-1.000000	-1.000000	-1.000000	-1.000000	-1.000000	139.310345	0.000000	-1.000000	-1.000000	314657.000000	1772918658.065332
-2584.935000	29506.635000	-15834.105000	-14786.505000	0.000000	0.000000	0.000000	0.000000	-138.778192	-10.936807	-3.482906	-45.346366	0.000000	-0.000000	-0.000000	0.000000	22.065960	18.128880	-16.984380	0.105530	0.905393	0.285461	-1.000000	-1.000000	-1.000000	-1.000000	-1.000000	-1.000000	-1.000000	139.310345	0.000000	-1.000000	-1.000000	314658.000000	1772918658.067725
-2286.990000	29534.805000	-15493.815000	-14435.280000	0.000000	0.000000	0.000000	0.000000	-83.540775	-20.378893	36.773880	-10.523028	0.000000	-0.000000	-0.000000	0.000000	22.065960	18.128880	-16.984380	0.105530	0.905393	0.285461	-1.000000	-1.000000	-1.000000	-1.000000	-1.000000	-1.000000	-1.000000	139.310345	0.000000	-1.000000	-1.000000	314659.000000	1772918658.067728
-2202.570000	29668.095000	-15322.995000	-14397.975000	0.000000	0.000000	0.000000	0.000000	16.125396	-17.750782	86.944644	54.144623	0.000000	-0.000000	-0.000000	0.000000	22.065960	18.128880	-16.984380	0.105530	0.905393	0.285461	-1.000000	-1.000000	-1.000000	-1.000000	-1.000000	-1.000000	-1.000000	139.310345	0.000000	-1.000000	-1.000000	314660.000000	1772918658.071714
-2548.530000	29713.905000	-15541.920000	-14600.925000	0.000000	0.000000	0.000000	0.000000	112.120511	-5.636200	125.318267	115.426954	0.000000	-0.000000	-0.000000	0.000000	22.065960	18.128880	-16.984380	0.105530	0.905393	0.285461	-1.000000	-1.000000	-1.000000	-1.000000	-1.000000	-1.000000	-1.000000	139.310345	0.000000	-1.000000	-1.000000	314661.000000	1772918658.071717
-2739.960000	29726.235000	-15730.965000	-14763.780000	0.000000	0.000000	0.000000	0.000000	130.610344	8.952824	101.705218	111.955492	0.000000	-0.000000	-0.000000	0.000000	22.065960	18.128880	-16.984380	0.105530	0.905393	0.285461	-1.000000	-1.000000	-1.000000	-1.000000	-1.000000	-1.000000	-1.000000	139.310345	0.000000	-1.000000	-1.000000	314662.000000	1772918658.075641
-2541.240000	29664.630000	-15707.250000	-14681.115000	0.000000	0.000000	0.000000	0.000000	55.879924	12.441432	0.688617	29.457305	0.000000	-0.000000	-0.000000	0.000000	22.065960	18.128880	-16.984380	0.105530	0.905393	0.285461	-1.000000	-1.000000	-1.000000	-1.000000	-1.000000	-1.000000	-1.000000	139.310345	0.000000	-1.000000	-1.000000	314663.000000	1772918658.075643
-2500.830000	29614.230000	-15762.060000	-14695.020000	0.000000	0.000000	0.000000	0.000000	-38.276650	-3.634137	-119.888134	-72.604383	0.000000	-0.000000	-0.000000	0.000000	15.321040	21.425040	-14.573300	0.097656	0.924192	0.291747	-1.000000	-1.000000	-1.000000	-1.000000	-1.000000	-1.000000	-1.000000	139.310345	0.000000	-1.000000	-1.000000	314664.000000	1772918658.079849
-2725.245000	29521.665000	-15931.305000	-14896.305000	0.000000	0.000000	0.000000	0.000000	-78.585604	-32.679184	-185.910534	-127.902254	0.000000	-0.000000	-0.000000	0.000000	15.321040	21.425040	-14.573300	0.097656	0.924192	0.291747	-1.000000	-1.000000	-1.000000	-1.000000	-1.000000	-1.000000	-1.000000	139.310345	0.000000	-1.000000	-1.000000	314665.000000	1772918658.079851
-2472.615000	29476.530000	-15626.295000	-14691.195000	0.000000	0.000000	0.000000	0.000000	-60.364150	-57.054177	-165.969725	-118.333481	0.000000	-0.000000	-0.000000	0.000000	15.321040	21.425040	-14.573300	0.097656	0.924192	0.291747	-1.000000	-1.000000	-1.000000	-1.000000	-1.000000	-1.000000	-1.000000	139.310345	0.000000	-1.000000	-1.000000	314666.000000	1772918658.083697
-2349.405000	29468.925000	-15564.105000	-14595.165000	0.000000	0.000000	0.000000	0.000000	-8.254858	-59.115208	-68.236322	-55.506503	0.000000	-0.000000	-0.000000	0.000000	15.321040	21.425040	-14.573300	0.097656	0.924192	0.291747	-1.000000	-1.000000	-1.000000	-1.000000	-1.000000	-1.000000	-1.000000	139.310345	0.000000	-1.000000	-1.000000	314667.000000	1772918658.083700
-2351.655000	29417.355000	-15685.065000	-14619.240000	0.000000	0.000000	0.000000	0.000000	53.546320	-32.466332	60.642170	33.653023	0.000000	-0.000000	-0.000000	0.000000	15.321040	21.425040	-14.573300	0.097656	0.924192	0.291747	-1.000000	-1.000000	-1.000000	-1.000000	-1.000000	-1.000000	-1.000000	139.310345	0.000000	-1.000000	-1.000000	314668.000000	1772918658.091908
-2405.430000	29322.630000	-15633.855000	-14561.190000	0.000000	0.000000	0.000000	0.000000	89.027007	10.463389	147.209502	103.541575	0.000000	-0.000000	-0.000000	0.000000	15.321040	21.425040	-14.573300	0.097656	0.924192	0.291747	-1.000000	-1.000000	-1.000000	-1.000000	-1.000000	-1.000000	-1.000000	139.310345	0.000000	-1.000000	-1.000000	314669.000000	1772918658.091912
-2581.920000	29212.785000	-15883.065000	-14727.465000	0.000000	0.000000	0.000000	0.000000	67.614205	45.305722	146.174262	116.043782	0.000000	-0.000000	-0.000000	0.000000	15.321040	21.425040	-14.573300	0.097656	0.924192	0.291747	-1.000000	-1.000000	-1.000000	-1.000000	-1.000000	-1.000000	-1.000000	139.310345	0.000000	-1.000000	-1.000000	314670.000000	1772918658.091916
-2596.995000	29117.970000	-15840.765000	-14779.665000	0.000000	0.000000	0.000000	0.000000	-4.744349	54.982326	69.818939	65.789362	0.000000	-0.000000	-0.000000	0.000000	15.321040	21.425040	-14.573300	0.097656	0.924192	0.291747	-1.000000	-1.000000	-1.000000	-1.000000	-1.000000	-1.000000	-1.000000	139.310345	0.000000	-1.000000	-1.000000	314671.000000	1772918658.091918
-2552.265000	29049.075000	-15763.680000	-14678.550000	0.000000	0.000000	0.000000	0.000000	-82.266711	41.625561	-25.224528	-14.654550	0.000000	-0.000000	-0.000000	0.000000	15.321040	21.425040	-14.573300	0.097656	0.924192	0.291747	-1.000000	-1.000000	-1.000000	-1.000000	-1.000000	-1.000000	-1.000000	139.310345	0.000000	-1.000000	-1.000000	314672.000000	1772918658.095795
-2450.790000	29061.180000	-15753.150000	-14596.695000	0.000000	0.000000	0.000000	0.000000	-110.914656	22.325029	-76.879721	-70.818928	0.000000	-0.000000	-0.000000	0.000000	15.321040	21.425040	-14.573300	0.097656	0.924192	0.291747	-1.000000	-1.000000	-1.000000	-1.000000	-1.000000	-1.000000	-1.000000	139.310345	0.000000	-1.000000	-1.000000	314673.000000	1772918658.095797
-2444.355000	29032.155000	-15653.115000	-14655.105000	0.000000	0.000000	0.000000	0.000000	-72.580765	14.408290	-64.342237	-71.670101	0.000000	-0.000000	-0.000000	0.000000	16.038260	25.194260	-12.558980	0.096802	0.941770	0.293822	-1.000000	-1.000000	-1.000000	-1.000000	-1.000000	-1.000000	-1.000000	139.310345	0.000000	-1.000000	-1.000000	314674.000000	1772918658.099732
-2383.650000	29029.095000	-15469.200000	-14576.805000	0.000000	0.000000	0.000000	0.000000	2.906326	21.165447	-9.509340	-33.291435	0.000000	-0.000000	-0.000000	0.000000	16.038260	25.194260	-12.558980	0.096802	0.941770	0.293822	-1.000000	-1.000000	-1.000000	-1.000000	-1.000000	-1.000000	-1.000000	139.310345	0.000000	-1.000000	-1.000000	314675.000000	1772918658.099734
-2325.690000	29146.410000	-15435.405000	-14362.335000	0.000000	0.000000	0.000000	0.000000	68.417844	34.108801	51.312045	13.382584	0.000000	-0.000000	-0.000000	0.000000	16.038260	25.194260	-12.558980	0.096802	0.941770	0.293822	-1.000000	-1.000000	-1.000000	-1.000000	-1.000000	-1.000000	-1.000000	139.310345	0.000000	-1.000000	-1.000000	314676.000000	1772918658.103731
-2352.150000	29180.205000	-15647.265000	-14531.580000	0.000000	0.000000	0.000000	0.000000	93.096236	45.049693	78.194820	48.071841	0.000000	-0.000000	-0.000000	0.000000	16.038260	25.194260	-12.558980	0.096802	0.941770	0.293822	-1.000000	-1.000000	-1.000000	-1.000000	-1.000000	-1.000000	-1.000000	139.310345	0.000000	-1.000000	-1.000000	314677.000000	1772918658.103733
-2494.755000	29054.970000	-15796.125000	-14764.680000	0.000000	0.000000	0.000000	0.000000	68.700060	43.487917	41.709883	47.347378	0.000000	-0.000000	-0.000000	0.000000	16.038260	25.194260	-12.558980	0.096802	0.941770	0.293822	-1.000000	-1.000000	-1.000000	-1.000000	-1.000000	-1.000000	-1.000000	139.310345	0.000000	-1.000000	-1.000000	314678.000000	1772918658.107815
-2608.200000	29041.560000	-15791.265000	-14709.645000	0.000000	0.000000	0.000000	0.000000	5.524344	16.584860	-43.594573	-0.696358	0.000000	-0.000000	-0.000000	0.000000	16.038260	25.194260	-12.558980	0.096802	0.941770	0.293822	-1.000000	-1.000000	-1.000000	-1.000000	-1.000000	-1.000000	-1.000000	139.310345	0.000000	-1.000000	-1.000000	314679.000000	1772918658.107818
-2790.540000	29047.185000	-15794.190000	-14781.510000	0.000000	0.000000	0.000000	0.000000	-68.859197	-30.238095	-117.688613	-63.283540	0.000000	-0.000000	-0.000000	0.000000	16.038260	25.194260	-12.558980	0.096802	0.941770	0.293822	-1.000000	-1.000000	-1.000000	-1.000000	-1.000000	-1.000000	-1.000000	139.310345	0.000000	-1.000000	-1.000000	314680.000000	1772918658.110996
-2639.160000	29091.150000	-15692.895000	-14774.715000	0.000000	0.000000	0.000000	0.000000	-115.378718	-69.032826	-125.526742	-90.694306	0.000000	-0.000000	-0.000000	0.000000	16.038260	25.194260	-12.558980	0.096802	0.941770	0.293822	-1.000000	-1.000000	-1.000000	-1.000000	-1.000000	-1.000000	-1.000000	139.310345	0.000000	-1.000000	-1.000000	314681.000000	1772918658.111001
-2670.795000	29098.485000	-15753.195000	-14758.155000	0.000000	0.000000	0.000000	0.000000	-100.959891	-75.588576	-62.191387	-64.487706	0.000000	-0.000000	-0.000000	0.000000	16.038260	25.194260	-12.558980	0.096802	0.941770	0.293822	-1.000000	-1.000000	-1.000000	-1.000000	-1.000000	-1.000000	-1.000000	139.310345	0.000000	-1.000000	-1.000000	314682.000000	1772918658.118201
-2485.710000	28997.910000	-15721.155000	-14607.495000	0.000000	0.000000	0.000000	0.000000	-25.494097	-51.975597	28.871539	0.048865	0.000000	-0.000000	-0.000000	0.000000	16.038260	25.194260	-12.558980	0.096802	0.941770	0.293822	-1.000000	-1.000000	-1.000000	-1.000000	-1.000000	-1.000000	-1.000000	139.310345	0.000000	-1.000000	-1.000000	314683.000000	1772918658.118203
-2300.985000	29010.420000	-15395.490000	-14341.185000	0.000000	0.000000	0.000000	0.000000	75.797561	-20.506776	100.995175	76.724579	0.000000	-0.000000	-0.000000	0.000000	17.442180	23.790340	-7.523180	0.089416	0.947507	0.311095	-1.000000	-1.000000	-1.000000	-1.000000	-1.000000	-1.000000	-1.000000	139.310345	0.000000	-1.000000	-1.000000	314684.000000	1772918658.129166
-2173.140000	29047.860000	-15248.655000	-14341.095000	0.000000	0.000000	0.000000	0.000000	157.027057	2.813986	140.162631	137.386715	0.000000	-0.000000	-0.000000	0.000000	17.442180	23.790340	-7.523180	0.089416	0.947507	0.311095	-1.000000	-1.000000	-1.000000	-1.000000	-1.000000	-1.000000	-1.000000	139.310345	0.000000	-1.000000	-1.000000	314685.000000	1772918658.129170
-2377.530000	28914.435000	-15557.625000	-14627.610000	0.000000	0.000000	0.000000	0.000000	175.245293	16.192127	138.342710	143.525406	0.000000	-0.000000	-0.000000	0.000000	17.442180	23.790340	-7.523180	0.089416	0.947507	0.311095	-1.000000	-1.000000	-1.000000	-1.000000	-1.000000	-1.000000	-1.000000	139.310345	0.000000	-1.000000	-1.000000	314686.000000	1772918658.129175
-2573.955000	28845.720000	-15766.335000	-14787.540000	0.000000	0.000000	0.000000	0.000000	103.718030	17.387161	70.557531	65.548347	0.000000	-0.000000	-0.000000	0.000000	17.442180	23.790340	-7.523180	0.089416	0.947507	0.311095	-1.000000	-1.000000	-1.000000	-1.000000	-1.000000	-1.000000	-1.000000	139.310345	0.000000	-1.000000	-1.000000	314687.000000	1772918658.129177
-2520.765000	28702.125000	-15694.470000	-14671.755000	0.000000	0.000000	0.000000	0.000000	-34.278596	4.055682	-54.329127	-66.148509	0.000000	-0.000000	-0.000000	0.000000	17.442180	23.790340	-7.523180	0.089416	0.947507	0.311095	-1.000000	-1.000000	-1.000000	-1.000000	-1.000000	-1.000000	-1.000000	139.310345	0.000000	-1.000000	-1.000000	314688.000000	1772918658.129182
-2443.230000	28517.940000	-15615.675000	-14610.420000	0.000000	0.000000	0.000000	0.000000	-158.552742	-18.278481	-162.157564	-164.168037	0.000000	-0.000000	-0.000000	0.000000	17.442180	23.790340	-7.523180	0.089416	0.947507	0.311095	-1.000000	-1.000000	-1.000000	-1.000000	-1.000000	-1.000000	-1.000000	139.310345	0.000000	-1.000000	-1.000000	314689.000000	1772918658.129184
-2422.620000	28512.810000	-15664.365000	-14617.665000	0.000000	0.000000	0.000000	0.000000	-193.196400	-36.668374	-180.372314	-164.559467	0.000000	-0.000000	-0.000000	0.000000	17.442180	23.790340	-7.523180	0.089416	0.947507	0.311095	-1.000000	-1.000000	-1.000000	-1.000000	-1.000000	-1.000000	-1.000000	139.310345	0.000000	-1.000000	-1.000000	314690.000000	1772918658.132156
-2371.275000	28550.880000	-15729.975000	-14603.715000	0.000000	0.000000	0.000000	0.000000	-129.548742	-32.089181	-109.695904	-81.484786	0.000000	-0.000000	-0.000000	0.000000	17.442180	23.790340	-7.523180	0.089416	0.947507	0.311095	-1.000000	-1.000000	-1.000000	-1.000000	-1.000000	-1.000000	-1.000000	139.310345	0.000000	-1.000000	-1.000000	314691.000000	1772918658.132160
-2310.660000	28608.975000	-15595.920000	-14538.555000	0.000000	0.000000	0.000000	0.000000	-18.211951	6.759426	-5.418750	23.578107	0.000000	-0.000000	-0.000000	0.000000	17.442180	23.790340	-7.523180	0.089416	0.947507	0.311095	-1.000000	-1.000000	-1.000000	-1.000000	-1.000000	-1.000000	-1.000000	139.310345	0.000000	-1.000000	-1.000000	314692.000000	1772918658.141484
-2362.230000	28490.130000	-15594.390000	-14593.860000	0.000000	0.000000	0.000000	0.000000	77.538373	62.754451	81.938975	96.090600	0.000000	-0.000000	-0.000000	0.000000	17.442180	23.790340	-7.523180	0.089416	0.947507	0.311095	-1.000000	-1.000000	-1.000000	-1.000000	-1.000000	-1.000000	-1.000000	139.310345	0.000000	-1.000000	-1.000000	314693.000000	1772918658.141487
-2391.030000	28415.520000	-15591.825000	-14572.305000	0.000000	0.000000	0.000000	0.000000	115.326782	96.221205	125.830000	111.427354	0.000000	-0.000000	-0.000000	0.000000	14.558040	18.296740	-3.021480	0.074402	0.957456	0.324340	-1.000000	-1.000000	-1.000000	-1.000000	-1.000000	-1.000000	-1.000000	139.310345	0.000000	-1.000000	-1.000000	314694.000000	1772918658.141490
-2369.520000	28491.570000	-15530.355000	-14490.000000	0.000000	0.000000	0.000000	0.000000	90.583749	83.271962	118.836928	78.520293	0.000000	-0.000000	-0.000000	0.000000	14.558040	18.296740	-3.021480	0.074402	0.957456	0.324340	-1.000000	-1.000000	-1.000000	-1.000000	-1.000000	-1.000000	-1.000000	139.310345	0.000000	-1.000000	-1.000000	314695.000000	1772918658.141492
-2424.330000	28535.175000	-15457.950000	-14516.370000	0.000000	0.000000	0.000000	0.000000	32.367159	40.378422	75.264387	28.000152	0.000000	-0.000000	-0.000000	0.000000	14.558040	18.296740	-3.021480	0.074402	0.957456	0.324340	-1.000000	-1.000000	-1.000000	-1.000000	-1.000000	-1.000000	-1.000000	139.310345	0.000000	-1.000000	-1.000000	314696.000000	1772918658.143954
-2653.740000	28458.720000	-15587.505000	-14669.325000	0.000000	0.000000	0.000000	0.000000	-27.157976	-1.664961	18.976840	-17.661030	0.000000	-0.000000	-0.000000	0.000000	14.558040	18.296740	-3.021480	0.074402	0.957456	0.324340	-1.000000	-1.000000	-1.000000	-1.000000	-1.000000	-1.000000	-1.000000	139.310345	0.000000	-1.000000	-1.000000	314697.000000	1772918658.143957
-2722.005000	28453.320000	-15811.380000	-14786.865000	0.000000	0.000000	0.000000	0.000000	-72.559402	-30.798158	-39.343327	-56.039469	0.000000	-0.000000	-0.000000	0.000000	14.558040	18.296740	-3.021480	0.074402	0.957456	0.324340	-1.000000	-1.000000	-1.000000	-1.000000	-1.000000	-1.000000	-1.000000	139.310345	0.000000	-1.000000	-1.000000	314698.000000	1772918658.147817
-2550.465000	28535.985000	-15732.405000	-14674.320000	0.000000	0.000000	0.000000	0.000000	-88.460823	-46.663176	-93.173126	-81.849244	0.000000	-0.000000	-0.000000	0.000000	14.558040	18.296740	-3.021480	0.074402	0.957456	0.324340	-1.000000	-1.000000	-1.000000	-1.000000	-1.000000	-1.000000	-1.000000	139.310345	0.000000	-1.000000	-1.000000	314699.000000	1772918658.147820
-2430.540000	28655.280000	-15599.250000	-14598.495000	0.000000	0.000000	0.000000	0.000000	-53.488647	-43.832772	-115.107481	-74.174973	0.000000	-0.000000	-0.000000	0.000000	14.558040	18.296740	-3.021480	0.074402	0.957456	0.324340	-1.000000	-1.000000	-1.000000	-1.000000	-1.000000	-1.000000	-1.000000	139.310345	0.000000	-1.000000	-1.000000	314700.000000	1772918658.151812
-2451.150000	28801.305000	-15742.440000	-14597.190000	0.000000	0.000000	0.000000	0.000000	25.380130	-18.584585	-81.197553	-24.665625	0.000000	-0.000000	-0.000000	0.000000	14.558040	18.296740	-3.021480	0.074402	0.957456	0.324340	-1.000000	-1.000000	-1.000000	-1.000000	-1.000000	-1.000000	-1.000000	139.310345	0.000000	-1.000000	-1.000000	314701.000000	1772918658.151815
-2359.755000	28892.610000	-15665.265000	-14508.855000	0.000000	0.000000	0.000000	0.000000	100.882702	18.407660	-11.324522	41.260757	0.000000	-0.000000	-0.000000	0.000000	14.558040	18.296740	-3.021480	0.074402	0.957456	0.324340	-1.000000	-1.000000	-1.000000	-1.000000	-1.000000	-1.000000	-1.000000	139.310345	0.000000	-1.000000	-1.000000	314702.000000	1772918658.155863
-2329.785000	28927.530000	-15544.080000	-14570.685000	0.000000	0.000000	0.000000	0.000000	127.725421	43.919901	54.439827	85.555423	0.000000	-0.000000	-0.000000	0.000000	14.558040	18.296740	-3.021480	0.074402	0.957456	0.324340	-1.000000	-1.000000	-1.000000	-1.000000	-1.000000	-1.000000	-1.000000	139.310345	0.000000	-1.000000	-1.000000	314703.000000	1772918658.155865
-2532.510000	28979.370000	-15656.985000	-14719.770000	0.000000	0.000000	0.000000	0.000000	92.603071	38.459499	91.873631	82.423250	0.000000	-0.000000	-0.000000	0.000000	11.734940	12.955740	-1.861720	0.072265	0.958616	0.328735	-1.000000	-1.000000	-1.000000	-1.000000	-1.000000	-1.000000	-1.000000	139.310345	0.000000	-1.000000	-1.000000	314704.000000	1772918658.159852
-2700.540000	28945.665000	-15913.755000	-14775.885000	0.000000	0.000000	0.000000	0.000000	6.989859	1.808642	84.031415	30.550471	0.000000	-0.000000	-0.000000	0.000000	11.734940	12.955740	-1.861720	0.072265	0.958616	0.328735	-1.000000	-1.000000	-1.000000	-1.000000	-1.000000	-1.000000	-1.000000	139.310345	0.000000	-1.000000	-1.000000	314705.000000	1772918658.159856
-2698.245000	28834.020000	-16325.100000	-14939.190000	0.000000	0.000000	0.000000	0.000000	-93.318130	-50.101094	19.253035	-42.209356	0.000000	-0.000000	-0.000000	0.000000	11.734940	12.955740	-1.861720	0.072265	0.958616	0.328735	-1.000000	-1.000000	-1.000000	-1.000000	-1.000000	-1.000000	-1.000000	139.310345	0.000000	-1.000000	-1.000000	314706.000000	1772918658.163973
-2578.500000	28647.495000	-16360.695000	-15051.690000	0.000000	0.000000	0.000000	0.000000	-150.913008	-99.052934	-80.184540	-97.332693	0.000000	-0.000000	-0.000000	0.000000	11.734940	12.955740	-1.861720	0.072265	0.958616	0.328735	-1.000000	-1.000000	-1.000000	-1.000000	-1.000000	-1.000000	-1.000000	139.310345	0.000000	-1.000000	-1.000000	314707.000000	1772918658.163976
-2347.515000	28546.785000	-15726.735000	-14745.600000	0.000000	0.000000	0.000000	0.000000	-122.118286	-128.798568	-137.076880	-102.994568	0.000000	-0.000000	-0.000000	0.000000	11.734940	12.955740	-1.861720	0.072265	0.958616	0.328735	-1.000000	-1.000000	-1.000000	-1.000000	-1.000000	-1.000000	-1.000000	139.310345	0.000000	-1.000000	-1.000000	314708.000000	1772918658.167931
-2437.065000	28636.785000	-15365.835000	-14541.795000	0.000000	0.000000	0.000000	0.000000	-19.614440	-120.063133	-67.840112	-39.657236	0.000000	-0.000000	-0.000000	0.000000	11.734940	12.955740	-1.861720	0.072265	0.958616	0.328735	-1.000000	-1.000000	-1.000000	-1.000000	-1.000000	-1.000000	-1.000000	139.310345	0.000000	-1.000000	-1.000000	314709.000000	1772918658.167934
-2706.975000	28666.440000	-15391.530000	-14572.080000	0.000000	0.000000	0.000000	0.000000	82.189656	-58.568391	107.786307	70.658581	0.000000	-0.000000	-0.000000	0.000000	11.734940	12.955740	-1.861720	0.072265	0.958616	0.328735	-1.000000	-1.000000	-1.000000	-1.000000	-1.000000	-1.000000	-1.000000	139.310345	0.000000	-1.000000	-1.000000	314710.000000	1772918658.171899
-2635.965000	28693.035000	-15463.800000	-14524.155000	0.000000	0.000000	0.000000	0.000000	108.907251	40.869516	251.498784	156.799582	0.000000	-0.000000	-0.000000	0.000000	11.734940	12.955740	-1.861720	0.072265	0.958616	0.328735	-1.000000	-1.000000	-1.000000	-1.000000	-1.000000	-1.000000	-1.000000	139.310345	0.000000	-1.000000	-1.000000	314711.000000	1772918658.171901
-2551.230000	28690.920000	-15570.810000	-14623.065000	0.000000	0.000000	0.000000	0.000000	61.854480	132.496835	239.608706	157.337191	0.000000	-0.000000	-0.000000	0.000000	11.734940	12.955740	-1.861720	0.072265	0.958616	0.328735	-1.000000	-1.000000	-1.000000	-1.000000	-1.000000	-1.000000	-1.000000	139.310345	0.000000	-1.000000	-1.000000	314712.000000	1772918658.175910
-2464.740000	28653.075000	-15543.450000	-14620.275000	0.000000	0.000000	0.000000	0.000000	3.506831	171.220843	75.925864	71.612787	0.000000	-0.000000	-0.000000	0.000000	11.734940	12.955740	-1.861720	0.072265	0.958616	0.328735	-1.000000	-1.000000	-1.000000	-1.000000	-1.000000	-1.000000	-1.000000	139.310345	0.000000	-1.000000	-1.000000	314713.000000	1772918658.175912
-2446.830000	28645.020000	-15493.095000	-14585.580000	0.000000	0.000000	0.000000	0.000000	-19.488757	142.261005	-128.310441	-46.765739	0.000000	-0.000000	-0.000000	0.000000	7.050120	9.659580	1.495480	0.064514	0.959104	0.335998	-1.000000	-1.000000	-1.000000	-1.000000	-1.000000	-1.000000	-1.000000	139.310345	0.000000	-1.000000	-1.000000	314714.000000	1772918658.209286
-2688.795000	28675.935000	-15765.120000	-14841.450000	0.000000	0.000000	0.000000	0.000000	-14.107783	67.402745	-258.589557	-135.954955	0.000000	-0.000000	-0.000000	0.000000	7.050120	9.659580	1.495480	0.064514	0.959104	0.335998	-1.000000	-1.000000	-1.000000	-1.000000	-1.000000	-1.000000	-1.000000	139.310345	0.000000	-1.000000	-1.000000	314715.000000	1772918658.209289
-2522.025000	28761.210000	-15632.055000	-14704.875000	0.000000	0.000000	0.000000	0.000000	-12.166711	-10.995680	-272.564794	-165.959423	0.000000	-0.000000	-0.000000	0.000000	7.050120	9.659580	1.495480	0.064514	0.959104	0.335998	-1.000000	-1.000000	-1.000000	-1.000000	-1.000000	-1.000000	-1.000000	139.310345	0.000000	-1.000000	-1.000000	314716.000000	1772918658.209294
-2353.095000	28821.510000	-15474.870000	-14482.035000	0.000000	0.000000	0.000000	0.000000	-16.908820	-57.400017	-184.346672	-129.139243	0.000000	-0.000000	-0.000000	0.000000	7.050120	9.659580	1.495480	0.064514	0.959104	0.335998	-1.000000	-1.000000	-1.000000	-1.000000	-1.000000	-1.000000	-1.000000	139.310345	0.000000	-1.000000	-1.000000	314717.000000	1772918658.209297
-2477.025000	28985.445000	-15606.765000	-14537.655000	0.000000	0.000000	0.000000	0.000000	-8.863760	-60.926042	-36.463453	-34.900519	0.000000	-0.000000	-0.000000	0.000000	7.050120	9.659580	1.495480	0.064514	0.959104	0.335998	-1.000000	-1.000000	-1.000000	-1.000000	-1.000000	-1.000000	-1.000000	139.310345	0.000000	-1.000000	-1.000000	314718.000000	1772918658.209300
-2703.240000	29105.820000	-15812.730000	-14783.805000	0.000000	0.000000	0.000000	0.000000	2.621801	-32.809516	97.321071	64.781645	0.000000	-0.000000	-0.000000	0.000000	7.050120	9.659580	1.495480	0.064514	0.959104	0.335998	-1.000000	-1.000000	-1.000000	-1.000000	-1.000000	-1.000000	-1.000000	139.310345	0.000000	-1.000000	-1.000000	314719.000000	1772918658.209303
-2770.065000	29195.865000	-16040.745000	-14975.145000	0.000000	0.000000	0.000000	0.000000	-10.884362	3.612941	147.268978	100.535032	0.000000	-0.000000	-0.000000	0.000000	7.050120	9.659580	1.495480	0.064514	0.959104	0.335998	-1.000000	-1.000000	-1.000000	-1.000000	-1.000000	-1.000000	-1.000000	139.310345	0.000000	-1.000000	-1.000000	314720.000000	1772918658.209306
-2740.995000	29177.010000	-15919.920000	-14884.740000	0.000000	0.000000	0.000000	0.000000	-43.985782	22.070857	108.404265	58.063688	0.000000	-0.000000	-0.000000	0.000000	7.050120	9.659580	1.495480	0.064514	0.959104	0.335998	-1.000000	-1.000000	-1.000000	-1.000000	-1.000000	-1.000000	-1.000000	139.310345	0.000000	-1.000000	-1.000000	314721.000000	1772918658.209309
-2638.035000	29123.955000	-15858.675000	-14816.385000	0.000000	0.000000	0.000000	0.000000	-56.825786	6.032400	43.571046	-5.175131	0.000000	-0.000000	-0.000000	0.000000	7.050120	9.659580	1.495480	0.064514	0.959104	0.335998	-1.000000	-1.000000	-1.000000	-1.000000	-1.000000	-1.000000	-1.000000	139.310345	0.000000	-1.000000	-1.000000	314722.000000	1772918658.209313
-2537.685000	29111.760000	-15913.440000	-14808.105000	0.000000	0.000000	0.000000	0.000000	-22.014317	-38.564914	14.471197	-26.501539	0.000000	-0.000000	-0.000000	0.000000	7.050120	9.659580	1.495480	0.064514	0.959104	0.335998	-1.000000	-1.000000	-1.000000	-1.000000	-1.000000	-1.000000	-1.000000	139.310345	0.000000	-1.000000	-1.000000	314723.000000	1772918658.209315
-2497.140000	29099.655000	-15882.660000	-14776.830000	0.000000	0.000000	0.000000	0.000000	45.636942	-83.652469	25.847929	2.047515	0.000000	-0.000000	-0.000000	0.000000	-0.442540	3.402980	2.899400	0.055054	0.961362	0.336242	-1.000000	-1.000000	-1.000000	-1.000000	-1.000000	-1.000000	-1.000000	139.310345	0.000000	-1.000000	-1.000000	314724.000000	1772918658.209319
-2589.750000	29054.835000	-15772.590000	-14672.970000	0.000000	0.000000	0.000000	0.000000	99.983334	-99.606640	47.671633	46.767296	0.000000	-0.000000	-0.000000	0.000000	-0.442540	3.402980	2.899400	0.055054	0.961362	0.336242	-1.000000	-1.000000	-1.000000	-1.000000	-1.000000	-1.000000	-1.000000	139.310345	0.000000	-1.000000	-1.000000	314725.000000	1772918658.209321
-2553.390000	28993.455000	-15711.480000	-14669.595000	0.000000	0.000000	0.000000	0.000000	101.332873	-77.813441	58.073247	73.908221	0.000000	-0.000000	-0.000000	0.000000	-0.442540	3.402980	2.899400	0.055054	0.961362	0.336242	-1.000000	-1.000000	-1.000000	-1.000000	-1.000000	-1.000000	-1.000000	139.310345	0.000000	-1.000000	-1.000000	314726.000000	1772918658.209325
-2554.065000	29042.460000	-15637.590000	-14632.245000	0.000000	0.000000	0.000000	0.000000	50.378494	-30.250791	50.059253	67.177614	0.000000	-0.000000	-0.000000	0.000000	-0.442540	3.402980	2.899400	0.055054	0.961362	0.336242	-1.000000	-1.000000	-1.000000	-1.000000	-1.000000	-1.000000	-1.000000	139.310345	0.000000	-1.000000	-1.000000	314727.000000	1772918658.209328
-2566.980000	29088.945000	-15603.885000	-14689.665000	0.000000	0.000000	0.000000	0.000000	-17.857401	26.542378	23.974640	28.128386	0.000000	-0.000000	-0.000000	0.000000	-0.442540	3.402980	2.899400	0.055054	0.961362	0.336242	-1.000000	-1.000000	-1.000000	-1.000000	-1.000000	-1.000000	-1.000000	139.310345	0.000000	-1.000000	-1.000000	314728.000000	1772918658.209331
-2674.935000	29129.670000	-15832.080000	-14784.525000	0.000000	0.000000	0.000000	0.000000	-69.677022	77.530018	-18.567520	-28.823269	0.000000	-0.000000	-0.000000	0.000000	-0.442540	3.402980	2.899400	0.055054	0.961362	0.336242	-1.000000	-1.000000	-1.000000	-1.000000	-1.000000	-1.000000	-1.000000	139.310345	0.000000	-1.000000	-1.000000	314729.000000	1772918658.209333
-2784.240000	29171.160000	-15928.695000	-14910.930000	0.000000	0.000000	0.000000	0.000000	-93.416757	107.266243	-75.604617	-84.472287	0.000000	-0.000000	-0.000000	0.000000	-0.442540	3.402980	2.899400	0.055054	0.961362	0.336242	-1.000000	-1.000000	-1.000000	-1.000000	-1.000000	-1.000000	-1.000000	139.310345	0.000000	-1.000000	-1.000000	314730.000000	1772918658.211266
-2835.945000	29151.090000	-16012.080000	-15047.955000	0.000000	0.000000	0.000000	0.000000	-91.653375	104.374616	-130.070913	-120.281503	0.000000	-0.000000	-0.000000	0.000000	-0.442540	3.402980	2.899400	0.055054	0.961362	0.336242	-1.000000	-1.000000	-1.000000	-1.000000	-1.000000	-1.000000	-1.000000	139.310345	0.000000	-1.000000	-1.000000	314731.000000	1772918658.211269
-2698.200000	29154.375000	-15750.225000	-14812.200000	0.000000	0.000000	0.000000	0.000000	-64.131595	68.508713	-143.612537	-116.841837	0.000000	-0.000000	-0.000000	0.000000	-0.442540	3.402980	2.899400	0.055054	0.961362	0.336242	-1.000000	-1.000000	-1.000000	-1.000000	-1.000000	-1.000000	-1.000000	139.310345	0.000000	-1.000000	-1.000000	314732.000000	1772918658.217703
-2567.970000	29100.195000	-15625.935000	-14672.520000	0.000000	0.000000	0.000000	0.000000	-6.860189	12.499029	-84.646823	-57.076149	0.000000	-0.000000	-0.000000	0.000000	-0.442540	3.402980	2.899400	0.055054	0.961362	0.336242	-1.000000	-1.000000	-1.000000	-1.000000	-1.000000	-1.000000	-1.000000	139.310345	0.000000	-1.000000	-1.000000	314733.000000	1772918658.217706
-2544.570000	29144.610000	-15675.480000	-14674.815000	0.000000	0.000000	0.000000	0.000000	67.536532	-41.780253	27.952763	45.105885	0.000000	-0.000000	-0.000000	0.000000	-9.369640	0.824040	2.975700	0.052002	0.962583	0.335693	-1.000000	-1.000000	-1.000000	-1.000000	-1.000000	-1.000000	-1.000000	139.310345	0.000000	-1.000000	-1.000000	314734.000000	1772918658.220564
-2557.305000	29283.480000	-15699.780000	-14679.630000	0.000000	0.000000	0.000000	0.000000	121.534944	-70.017274	124.414130	132.841297	0.000000	-0.000000	-0.000000	0.000000	-9.369640	0.824040	2.975700	0.052002	0.962583	0.335693	-1.000000	-1.000000	-1.000000	-1.000000	-1.000000	-1.000000	-1.000000	139.310345	0.000000	-1.000000	-1.000000	314735.000000	1772918658.220567
-2601.225000	29347.290000	-15703.155000	-14733.090000	0.000000	0.000000	0.000000	0.000000	119.831892	-57.825378	145.957268	151.258726	0.000000	-0.000000	-0.000000	0.000000	-9.369640	0.824040	2.975700	0.052002	0.962583	0.335693	-1.000000	-1.000000	-1.000000	-1.000000	-1.000000	-1.000000	-1.000000	139.310345	0.000000	-1.000000	-1.000000	314736.000000	1772918658.225775
-2667.825000	29371.905000	-15768.990000	-14771.430000	0.000000	0.000000	0.000000	0.000000	60.046704	-16.737125	91.531362	92.972673	0.000000	-0.000000	-0.000000	0.000000	-9.369640	0.824040	2.975700	0.052002	0.962583	0.335693	-1.000000	-1.000000	-1.000000	-1.000000	-1.000000	-1.000000	-1.000000	139.310345	0.000000	-1.000000	-1.000000	314737.000000	1772918658.225778
-2709.090000	29353.095000	-15861.645000	-14868.900000	0.000000	0.000000	0.000000	0.000000	-26.370590	20.913044	1.717839	-4.785694	0.000000	-0.000000	-0.000000	0.000000	-9.369640	0.824040	2.975700	0.052002	0.962583	0.335693	-1.000000	-1.000000	-1.000000	-1.000000	-1.000000	-1.000000	-1.000000	139.310345	0.000000	-1.000000	-1.000000	314738.000000	1772918658.313359
-2594.160000	29336.265000	-15767.055000	-14756.445000	0.000000	0.000000	0.000000	0.000000	-93.403307	29.122370	-74.627188	-88.756185	0.000000	-0.000000	-0.000000	0.000000	-9.369640	0.824040	2.975700	0.052002	0.962583	0.335693	-1.000000	-1.000000	-1.000000	-1.000000	-1.000000	-1.000000	-1.000000	139.310345	0.000000	-1.000000	-1.000000	314739.000000	1772918658.313363
-2523.060000	29294.595000	-15734.925000	-14758.200000	0.000000	0.000000	0.000000	0.000000	-105.077802	6.538138	-100.189949	-117.348187	0.000000	-0.000000	-0.000000	0.000000	-9.369640	0.824040	2.975700	0.052002	0.962583	0.335693	-1.000000	-1.000000	-1.000000	-1.000000	-1.000000	-1.000000	-1.000000	139.310345	0.000000	-1.000000	-1.000000	314740.000000	1772918658.313851
-2574.630000	29063.610000	-15742.935000	-14748.795000	0.000000	0.000000	0.000000	0.000000	-61.495900	-31.649857	-68.752059	-84.524193	0.000000	-0.000000	-0.000000	0.000000	-9.369640	0.824040	2.975700	0.052002	0.962583	0.335693	-1.000000	-1.000000	-1.000000	-1.000000	-1.000000	-1.000000	-1.000000	139.310345	0.000000	-1.000000	-1.000000	314741.000000	1772918658.313854
-2555.055000	28981.080000	-15655.095000	-14662.755000	0.000000	0.000000	0.000000	0.000000	-0.008141	-69.197871	-8.254957	-19.593071	0.000000	-0.000000	-0.000000	0.000000	-9.369640	0.824040	2.975700	0.052002	0.962583	0.335693	-1.000000	-1.000000	-1.000000	-1.000000	-1.000000	-1.000000	-1.000000	139.310345	0.000000	-1.000000	-1.000000	314742.000000	1772918658.313858
-2542.545000	29013.480000	-15680.520000	-14671.845000	0.000000	0.000000	0.000000	0.000000	40.508276	-85.985590	44.849959	40.503295	0.000000	-0.000000	-0.000000	0.000000	-9.369640	0.824040	2.975700	0.052002	0.962583	0.335693	-1.000000	-1.000000	-1.000000	-1.000000	-1.000000	-1.000000	-1.000000	139.310345	0.000000	-1.000000	-1.000000	314743.000000	1772918658.313861
-2541.870000	29010.195000	-15661.665000	-14659.695000	0.000000	0.000000	0.000000	0.000000	47.799013	-60.809043	66.855987	70.498535	0.000000	-0.000000	-0.000000	0.000000	-7.523180	-1.098720	2.685760	0.057861	0.944089	0.333068	-1.000000	-1.000000	-1.000000	-1.000000	-1.000000	-1.000000	-1.000000	139.310345	0.000000	-1.000000	-1.000000	314744.000000	1772918658.313865
-2486.070000	28945.260000	-15623.820000	-14640.885000	0.000000	0.000000	0.000000	0.000000	32.099780	2.800419	54.067419	63.111509	0.000000	-0.000000	-0.000000	0.000000	-7.523180	-1.098720	2.685760	0.057861	0.944089	0.333068	-1.000000	-1.000000	-1.000000	-1.000000	-1.000000	-1.000000	-1.000000	139.310345	0.000000	-1.000000	-1.000000	314745.000000	1772918658.313867
-2640.150000	28915.425000	-15788.655000	-14796.990000	0.000000	0.000000	0.000000	0.000000	8.076848	70.552269	18.392790	27.377751	0.000000	-0.000000	-0.000000	0.000000	-7.523180	-1.098720	2.685760	0.057861	0.944089	0.333068	-1.000000	-1.000000	-1.000000	-1.000000	-1.000000	-1.000000	-1.000000	139.310345	0.000000	-1.000000	-1.000000	314746.000000	1772918658.313871
-2646.990000	28948.365000	-15801.840000	-14839.515000	0.000000	0.000000	0.000000	0.000000	-17.457393	108.118960	-25.852974	-21.532378	0.000000	-0.000000	-0.000000	0.000000	-7.523180	-1.098720	2.685760	0.057861	0.944089	0.333068	-1.000000	-1.000000	-1.000000	-1.000000	-1.000000	-1.000000	-1.000000	139.310345	0.000000	-1.000000	-1.000000	314747.000000	1772918658.313874
-2790.045000	28910.475000	-15968.520000	-14940.045000	0.000000	0.000000	0.000000	0.000000	-40.332270	105.649712	-64.129568	-64.680855	0.000000	-0.000000	-0.000000	0.000000	-7.523180	-1.098720	2.685760	0.057861	0.944089	0.333068	-1.000000	-1.000000	-1.000000	-1.000000	-1.000000	-1.000000	-1.000000	139.310345	0.000000	-1.000000	-1.000000	314748.000000	1772918658.313877
-2658.330000	28911.690000	-15968.475000	-14841.315000	0.000000	0.000000	0.000000	0.000000	-49.798397	72.654799	-81.174789	-79.822408	0.000000	-0.000000	-0.000000	0.000000	-7.523180	-1.098720	2.685760	0.057861	0.944089	0.333068	-1.000000	-1.000000	-1.000000	-1.000000	-1.000000	-1.000000	-1.000000	139.310345	0.000000	-1.000000	-1.000000	314749.000000	1772918658.313879
-2477.970000	28970.730000	-15798.825000	-14695.965000	0.000000	0.000000	0.000000	0.000000	-29.487229	27.059917	-63.212632	-50.783151	0.000000	-0.000000	-0.000000	0.000000	-7.523180	-1.098720	2.685760	0.057861	0.944089	0.333068	-1.000000	-1.000000	-1.000000	-1.000000	-1.000000	-1.000000	-1.000000	139.310345	0.000000	-1.000000	-1.000000	314750.000000	1772918658.313883
-2497.905000	29124.000000	-15705.540000	-14687.370000	0.000000	0.000000	0.000000	0.000000	23.112027	-9.010953	-4.533613	15.897885	0.000000	-0.000000	-0.000000	0.000000	-7.523180	-1.098720	2.685760	0.057861	0.944089	0.333068	-1.000000	-1.000000	-1.000000	-1.000000	-1.000000	-1.000000	-1.000000	139.310345	0.000000	-1.000000	-1.000000	314751.000000	1772918658.313885
-2536.515000	29250.090000	-15599.565000	-14653.530000	0.000000	0.000000	0.000000	0.000000	76.101748	-19.295619	74.810794	83.287546	0.000000	-0.000000	-0.000000	0.000000	-7.523180	-1.098720	2.685760	0.057861	0.944089	0.333068	-1.000000	-1.000000	-1.000000	-1.000000	-1.000000	-1.000000	-1.000000	139.310345	0.000000	-1.000000	-1.000000	314752.000000	1772918658.313888
-2725.920000	29322.180000	-15713.865000	-14771.565000	0.000000	0.000000	0.000000	0.000000	84.413802	-7.297206	129.335134	107.566877	0.000000	-0.000000	-0.000000	0.000000	-7.523180	-1.098720	2.685760	0.057861	0.944089	0.333068	-1.000000	-1.000000	-1.000000	-1.000000	-1.000000	-1.000000	-1.000000	139.310345	0.000000	-1.000000	-1.000000	314753.000000	1772918658.313890
-2869.290000	29474.910000	-15853.140000	-14887.035000	0.000000	0.000000	0.000000	0.000000	32.127676	7.060651	117.420059	70.221455	0.000000	-0.000000	-0.000000	0.000000	8.576120	-2.639980	2.243220	0.066467	0.922056	0.330260	-1.000000	-1.000000	-1.000000	-1.000000	-1.000000	-1.000000	-1.000000	139.310345	0.000000	-1.000000	-1.000000	314754.000000	1772918658.313894
-2770.245000	29553.705000	-15888.780000	-14954.760000	0.000000	0.000000	0.000000	0.000000	-48.524393	7.669340	36.877163	-9.562696	0.000000	-0.000000	-0.000000	0.000000	8.576120	-2.639980	2.243220	0.066467	0.922056	0.330260	-1.000000	-1.000000	-1.000000	-1.000000	-1.000000	-1.000000	-1.000000	139.310345	0.000000	-1.000000	-1.000000	314755.000000	1772918658.313896
-2767.950000	29497.365000	-15873.345000	-14930.460000	0.000000	0.000000	0.000000	0.000000	-97.652440	-10.549463	-64.341080	-84.392969	0.000000	-0.000000	-0.000000	0.000000	8.576120	-2.639980	2.243220	0.066467	0.922056	0.330260	-1.000000	-1.000000	-1.000000	-1.000000	-1.000000	-1.000000	-1.000000	139.310345	0.000000	-1.000000	-1.000000	314756.000000	1772918658.313899
-2756.205000	29479.005000	-15913.575000	-14870.295000	0.000000	0.000000	0.000000	0.000000	-80.873507	-46.261214	-124.866991	-108.425471	0.000000	-0.000000	-0.000000	0.000000	8.576120	-2.639980	2.243220	0.066467	0.922056	0.330260	-1.000000	-1.000000	-1.000000	-1.000000	-1.000000	-1.000000	-1.000000	139.310345	0.000000	-1.000000	-1.000000	314757.000000	1772918658.313902
-2653.560000	29495.160000	-15836.670000	-14798.430000	0.000000	0.000000	0.000000	0.000000	-15.122181	-86.106782	-116.735849	-68.462034	0.000000	-0.000000	-0.000000	0.000000	8.576120	-2.639980	2.243220	0.066467	0.922056	0.330260	-1.000000	-1.000000	-1.000000	-1.000000	-1.000000	-1.000000	-1.000000	139.310345	0.000000	-1.000000	-1.000000	314758.000000	1772918658.313905
-2445.795000	29595.555000	-15657.885000	-14628.195000	0.000000	0.000000	0.000000	0.000000	60.802967	-103.879545	-51.273863	11.202232	0.000000	-0.000000	-0.000000	0.000000	8.576120	-2.639980	2.243220	0.066467	0.922056	0.330260	-1.000000	-1.000000	-1.000000	-1.000000	-1.000000	-1.000000	-1.000000	139.310345	0.000000	-1.000000	-1.000000	314759.000000	1772918658.313908
-2372.445000	29709.405000	-15581.385000	-14544.990000	0.000000	0.000000	0.000000	0.000000	115.557138	-78.949764	38.688225	89.150823	0.000000	-0.000000	-0.000000	0.000000	8.576120	-2.639980	2.243220	0.066467	0.922056	0.330260	-1.000000	-1.000000	-1.000000	-1.000000	-1.000000	-1.000000	-1.000000	139.310345	0.000000	-1.000000	-1.000000	314760.000000	1772918658.313911
-2755.395000	29720.115000	-15968.565000	-14861.925000	0.000000	0.000000	0.000000	0.000000	119.087679	-17.405441	102.147666	121.131829	0.000000	-0.000000	-0.000000	0.000000	8.576120	-2.639980	2.243220	0.066467	0.922056	0.330260	-1.000000	-1.000000	-1.000000	-1.000000	-1.000000	-1.000000	-1.000000	139.310345	0.000000	-1.000000	-1.000000	314761.000000	1772918658.313913
-2958.930000	29706.345000	-16163.505000	-15127.605000	0.000000	0.000000	0.000000	0.000000	45.896521	46.688210	86.998074	72.692415	0.000000	-0.000000	-0.000000	0.000000	8.576120	-2.639980	2.243220	0.066467	0.922056	0.330260	-1.000000	-1.000000	-1.000000	-1.000000	-1.000000	-1.000000	-1.000000	139.310345	0.000000	-1.000000	-1.000000	314762.000000	1772918658.313917
-2826.630000	29692.530000	-16028.910000	-14940.315000	0.000000	0.000000	0.000000	0.000000	-77.573324	77.247761	-0.832328	-37.904614	0.000000	-0.000000	-0.000000	0.000000	8.576120	-2.639980	2.243220	0.066467	0.922056	0.330260	-1.000000	-1.000000	-1.000000	-1.000000	-1.000000	-1.000000	-1.000000	139.310345	0.000000	-1.000000	-1.000000	314763.000000	1772918658.313919
-2727.855000	29712.645000	-15907.005000	-14839.965000	0.000000	0.000000	0.000000	0.000000	-163.762352	64.757783	-81.412664	-126.529178	0.000000	-0.000000	-0.000000	0.000000	23.759820	-5.676720	1.846460	0.069946	0.908994	0.327514	-1.000000	-1.000000	-1.000000	-1.000000	-1.000000	-1.000000	-1.000000	139.310345	0.000000	-1.000000	-1.000000	314764.000000	1772918658.313923
-2688.705000	29682.000000	-15802.965000	-14871.420000	0.000000	0.000000	0.000000	0.000000	-146.016862	27.386878	-81.886509	-123.227800	0.000000	-0.000000	-0.000000	0.000000	23.759820	-5.676720	1.846460	0.069946	0.908994	0.327514	-1.000000	-1.000000	-1.000000	-1.000000	-1.000000	-1.000000	-1.000000	139.310345	0.000000	-1.000000	-1.000000	314765.000000	1772918658.313925
-2694.780000	29691.540000	-15835.995000	-14855.490000	0.000000	0.000000	0.000000	0.000000	-43.852358	-9.425955	-8.850572	-42.868579	0.000000	-0.000000	-0.000000	0.000000	23.759820	-5.676720	1.846460	0.069946	0.908994	0.327514	-1.000000	-1.000000	-1.000000	-1.000000	-1.000000	-1.000000	-1.000000	139.310345	0.000000	-1.000000	-1.000000	314766.000000	1772918658.313928
-2630.880000	29671.650000	-15744.780000	-14704.830000	0.000000	0.000000	0.000000	0.000000	68.518670	-29.222001	72.904473	50.430474	0.000000	-0.000000	-0.000000	0.000000	23.759820	-5.676720	1.846460	0.069946	0.908994	0.327514	-1.000000	-1.000000	-1.000000	-1.000000	-1.000000	-1.000000	-1.000000	139.310345	0.000000	-1.000000	-1.000000	314767.000000	1772918658.313930
-2594.655000	29591.460000	-15692.895000	-14670.135000	0.000000	0.000000	0.000000	0.000000	130.512415	-29.985530	108.486791	109.034678	0.000000	-0.000000	-0.000000	0.000000	23.759820	-5.676720	1.846460	0.069946	0.908994	0.327514	-1.000000	-1.000000	-1.000000	-1.000000	-1.000000	-1.000000	-1.000000	139.310345	0.000000	-1.000000	-1.000000	314768.000000	1772918658.313933
-2657.700000	29445.570000	-15800.850000	-14790.690000	0.000000	0.000000	0.000000	0.000000	124.298940	-22.828518	84.771524	113.526167	0.000000	-0.000000	-0.000000	0.000000	23.759820	-5.676720	1.846460	0.069946	0.908994	0.327514	-1.000000	-1.000000	-1.000000	-1.000000	-1.000000	-1.000000	-1.000000	139.310345	0.000000	-1.000000	-1.000000	314769.000000	1772918658.313935
-2532.915000	29447.955000	-15669.720000	-14672.970000	0.000000	0.000000	0.000000	0.000000	67.364309	-18.599424	20.466706	65.613501	0.000000	-0.000000	-0.000000	0.000000	23.759820	-5.676720	1.846460	0.069946	0.908994	0.327514	-1.000000	-1.000000	-1.000000	-1.000000	-1.000000	-1.000000	-1.000000	139.310345	0.000000	-1.000000	-1.000000	314770.000000	1772918658.313938
-2415.195000	29472.570000	-15556.455000	-14542.740000	0.000000	0.000000	0.000000	0.000000	-0.232156	-12.619125	-44.643726	-3.277567	0.000000	-0.000000	-0.000000	0.000000	23.759820	-5.676720	1.846460	0.069946	0.908994	0.327514	-1.000000	-1.000000	-1.000000	-1.000000	-1.000000	-1.000000	-1.000000	139.310345	0.000000	-1.000000	-1.000000	314771.000000	1772918658.313940
-2661.480000	29431.485000	-15784.155000	-14818.455000	0.000000	0.000000	0.000000	0.000000	-46.423470	5.947591	-78.050739	-55.362467	0.000000	-0.000000	-0.000000	0.000000	23.759820	-5.676720	1.846460	0.069946	0.908994	0.327514	-1.000000	-1.000000	-1.000000	-1.000000	-1.000000	-1.000000	-1.000000	139.310345	0.000000	-1.000000	-1.000000	314772.000000	1772918658.313943
-2959.605000	29470.410000	-16120.485000	-15145.065000	0.000000	0.000000	0.000000	0.000000	-78.199515	33.994929	-89.813083	-90.257087	0.000000	-0.000000	-0.000000	0.000000	23.759820	-5.676720	1.846460	0.069946	0.908994	0.327514	-1.000000	-1.000000	-1.000000	-1.000000	-1.000000	-1.000000	-1.000000	139.310345	0.000000	-1.000000	-1.000000	314773.000000	1772918658.313945
-2862.585000	29494.350000	-15966.360000	-14958.495000	0.000000	0.000000	0.000000	0.000000	-110.417304	57.631941	-101.838710	-119.316813	0.000000	-0.000000	-0.000000	0.000000	25.728360	-5.081580	-1.251320	0.073852	0.909544	0.324706	-1.000000	-1.000000	-1.000000	-1.000000	-1.000000	-1.000000	-1.000000	139.310345	0.000000	-1.000000	-1.000000	314774.000000	1772918658.313948
-2723.310000	29495.880000	-15841.890000	-14774.580000	0.000000	0.000000	0.000000	0.000000	-117.024241	65.489741	-93.467253	-113.308036	0.000000	-0.000000	-0.000000	0.000000	25.728360	-5.081580	-1.251320	0.073852	0.909544	0.324706	-1.000000	-1.000000	-1.000000	-1.000000	-1.000000	-1.000000	-1.000000	139.310345	0.000000	-1.000000	-1.000000	314775.000000	1772918658.313949
-2591.235000	29518.650000	-15807.870000	-14717.700000	0.000000	0.000000	0.000000	0.000000	-60.757440	53.092753	-32.207310	-39.347572	0.000000	-0.000000	-0.000000	0.000000	25.728360	-5.081580	-1.251320	0.073852	0.909544	0.324706	-1.000000	-1.000000	-1.000000	-1.000000	-1.000000	-1.000000	-1.000000	139.310345	0.000000	-1.000000	-1.000000	314776.000000	1772918658.313952
-2574.855000	29564.730000	-15829.290000	-14779.440000	0.000000	0.000000	0.000000	0.000000	44.744734	25.333116	62.904026	72.060962	0.000000	-0.000000	-0.000000	0.000000	25.728360	-5.081580	-1.251320	0.073852	0.909544	0.324706	-1.000000	-1.000000	-1.000000	-1.000000	-1.000000	-1.000000	-1.000000	139.310345	0.000000	-1.000000	-1.000000	314777.000000	1772918658.313954
-2568.240000	29528.730000	-15838.335000	-14763.240000	0.000000	0.000000	0.000000	0.000000	137.096788	-6.465393	133.790397	148.101627	0.000000	-0.000000	-0.000000	0.000000	25.728360	-5.081580	-1.251320	0.073852	0.909544	0.324706	-1.000000	-1.000000	-1.000000	-1.000000	-1.000000	-1.000000	-1.000000	139.310345	0.000000	-1.000000	-1.000000	314778.000000	1772918658.313957
-2657.655000	29508.750000	-15949.800000	-14856.435000	0.000000	0.000000	0.000000	0.000000	159.172256	-33.945065	138.849904	144.127800	0.000000	-0.000000	-0.000000	0.000000	25.728360	-5.081580	-1.251320	0.073852	0.909544	0.324706	-1.000000	-1.000000	-1.000000	-1.000000	-1.000000	-1.000000	-1.000000	139.310345	0.000000	-1.000000	-1.000000	314779.000000	1772918658.313959
-2805.120000	29383.110000	-16075.755000	-14969.970000	0.000000	0.000000	0.000000	0.000000	98.525642	-54.906046	77.995157	69.792995	0.000000	-0.000000	-0.000000	0.000000	25.728360	-5.081580	-1.251320	0.073852	0.909544	0.324706	-1.000000	-1.000000	-1.000000	-1.000000	-1.000000	-1.000000	-1.000000	139.310345	0.000000	-1.000000	-1.000000	314780.000000	1772918658.313961
-2851.290000	29272.590000	-16015.500000	-14913.675000	0.000000	0.000000	0.000000	0.000000	-10.217784	-69.762061	-12.239888	-28.768410	0.000000	-0.000000	-0.000000	0.000000	25.728360	-5.081580	-1.251320	0.073852	0.909544	0.324706	-1.000000	-1.000000	-1.000000	-1.000000	-1.000000	-1.000000	-1.000000	139.310345	0.000000	-1.000000	-1.000000	314781.000000	1772918658.313963
-2651.670000	29213.370000	-15701.580000	-14747.355000	0.000000	0.000000	0.000000	0.000000	-102.767464	-75.403097	-73.228606	-93.338026	0.000000	-0.000000	-0.000000	0.000000	25.728360	-5.081580	-1.251320	0.073852	0.909544	0.324706	-1.000000	-1.000000	-1.000000	-1.000000	-1.000000	-1.000000	-1.000000	139.310345	0.000000	-1.000000	-1.000000	314782.000000	1772918658.315740
