Channel1	Channel2	Channel3	Channel4	Channel5	Channel6	Channel7	Channel8	FilteredChannel1	FilteredChannel2	FilteredChannel3	FilteredChannel4	FilteredChannel5	FilteredChannel6	FilteredChannel7	FilteredChannel8	GyroX	GyroY	GyroZ	AccX	AccY	AccZ	PPG1	PPG2	rawPPG1	rawPPG2	rawPPG3	Hr	Hrv	Battery	Trigger	PhysicalTrigger	AutoTrigger	NumMeasurements	Timestamp
-2628.495000	27239.895000	-16044.930000	-14570.145000	0.000000	0.000000	0.000000	0.000000	16.692630	-83.865503	19.969585	14.895035	-0.000000	-0.000000	0.000000	0.000000	3.372460	0.000000	-1.312360	0.000305	0.907041	0.407470	-1.000000	-1.000000	-1.000000	-1.000000	-1.000000	-1.000000	-1.000000	138.965517	0.000000	-1.000000	-1.000000	330063.000000	1772918688.958582
-2647.755000	27210.240000	-16064.865000	-14582.700000	0.000000	0.000000	0.000000	0.000000	44.853438	-17.496154	67.824093	68.406807	-0.000000	-0.000000	0.000000	0.000000	3.372460	0.000000	-1.312360	0.000305	0.907041	0.407470	-1.000000	-1.000000	-1.000000	-1.000000	-1.000000	-1.000000	-1.000000	138.965517	0.000000	-1.000000	-1.000000	330064.000000	1772918688.958584
-2667.510000	27151.020000	-16100.640000	-14617.395000	0.000000	0.000000	0.000000	0.000000	47.785755	50.866862	76.714457	83.527928	-0.000000	-0.000000	0.000000	0.000000	3.372460	0.000000	-1.312360	0.000305	0.907041	0.407470	-1.000000	-1.000000	-1.000000	-1.000000	-1.000000	-1.000000	-1.000000	138.965517	0.000000	-1.000000	-1.000000	330065.000000	1772918688.962474
-2715.615000	27123.390000	-16177.590000	-14692.770000	0.000000	0.000000	0.000000	0.000000	23.869287	86.663919	41.081616	51.248540	-0.000000	-0.000000	0.000000	0.000000	3.372460	0.000000	-1.312360	0.000305	0.907041	0.407470	-1.000000	-1.000000	-1.000000	-1.000000	-1.000000	-1.000000	-1.000000	138.965517	0.000000	-1.000000	-1.000000	330066.000000	1772918688.962477
-2783.160000	27162.585000	-16278.390000	-14800.995000	0.000000	0.000000	0.000000	0.000000	-15.020610	80.925204	-20.557857	-11.969705	-0.000000	-0.000000	0.000000	0.000000	3.372460	0.000000	-1.312360	0.000305	0.907041	0.407470	-1.000000	-1.000000	-1.000000	-1.000000	-1.000000	-1.000000	-1.000000	138.965517	0.000000	-1.000000	-1.000000	330067.000000	1772918688.966625
-2759.265000	27045.135000	-16247.340000	-14778.270000	0.000000	0.000000	0.000000	0.000000	-48.943425	48.941188	-75.609677	-72.885206	-0.000000	-0.000000	0.000000	0.000000	3.372460	0.000000	-1.312360	0.000305	0.907041	0.407470	-1.000000	-1.000000	-1.000000	-1.000000	-1.000000	-1.000000	-1.000000	138.965517	0.000000	-1.000000	-1.000000	330068.000000	1772918688.966628
-2742.840000	27018.540000	-16211.610000	-14744.655000	0.000000	0.000000	0.000000	0.000000	-58.611926	8.898274	-92.426042	-96.987083	-0.000000	-0.000000	0.000000	0.000000	5.096840	-0.305200	0.000000	-0.000061	0.904661	0.409484	-1.000000	-1.000000	-1.000000	-1.000000	-1.000000	-1.000000	-1.000000	138.965517	0.000000	-1.000000	-1.000000	330069.000000	1772918688.970576
-2694.240000	26954.145000	-16151.580000	-14683.680000	0.000000	0.000000	0.000000	0.000000	-36.900920	-26.148347	-59.270291	-68.796535	-0.000000	-0.000000	0.000000	0.000000	5.096840	-0.305200	0.000000	-0.000061	0.904661	0.409484	-1.000000	-1.000000	-1.000000	-1.000000	-1.000000	-1.000000	-1.000000	138.965517	0.000000	-1.000000	-1.000000	330070.000000	1772918688.970580
-2610.180000	26974.620000	-16036.290000	-14564.340000	0.000000	0.000000	0.000000	0.000000	5.824397	-44.593831	6.863359	-2.758004	-0.000000	-0.000000	0.000000	0.000000	5.096840	-0.305200	0.000000	-0.000061	0.904661	0.409484	-1.000000	-1.000000	-1.000000	-1.000000	-1.000000	-1.000000	-1.000000	138.965517	0.000000	-1.000000	-1.000000	330071.000000	1772918688.974481
-2618.820000	27044.415000	-16042.140000	-14558.895000	0.000000	0.000000	0.000000	0.000000	48.080944	-38.207010	71.635122	66.707441	-0.000000	-0.000000	0.000000	0.000000	5.096840	-0.305200	0.000000	-0.000061	0.904661	0.409484	-1.000000	-1.000000	-1.000000	-1.000000	-1.000000	-1.000000	-1.000000	138.965517	0.000000	-1.000000	-1.000000	330072.000000	1772918688.974484
-2656.260000	27100.710000	-16097.220000	-14610.780000	0.000000	0.000000	0.000000	0.000000	66.575692	-8.101156	100.115519	102.210859	-0.000000	-0.000000	0.000000	0.000000	5.096840	-0.305200	0.000000	-0.000061	0.904661	0.409484	-1.000000	-1.000000	-1.000000	-1.000000	-1.000000	-1.000000	-1.000000	138.965517	0.000000	-1.000000	-1.000000	330073.000000	1772918688.978560
-2677.230000	27082.170000	-16137.405000	-14648.220000	0.000000	0.000000	0.000000	0.000000	49.313440	29.732067	75.255554	83.093024	-0.000000	-0.000000	0.000000	0.000000	5.096840	-0.305200	0.000000	-0.000061	0.904661	0.409484	-1.000000	-1.000000	-1.000000	-1.000000	-1.000000	-1.000000	-1.000000	138.965517	0.000000	-1.000000	-1.000000	330074.000000	1772918688.978563
-2761.965000	27082.080000	-16261.245000	-14772.735000	0.000000	0.000000	0.000000	0.000000	5.335743	50.690001	10.270919	19.694444	-0.000000	-0.000000	0.000000	0.000000	5.096840	-0.305200	0.000000	-0.000061	0.904661	0.409484	-1.000000	-1.000000	-1.000000	-1.000000	-1.000000	-1.000000	-1.000000	138.965517	0.000000	-1.000000	-1.000000	330075.000000	1772918688.982552
-2786.040000	27048.105000	-16295.445000	-14816.700000	0.000000	0.000000	0.000000	0.000000	-42.179200	40.558809	-60.676155	-54.444029	-0.000000	-0.000000	0.000000	0.000000	5.096840	-0.305200	0.000000	-0.000061	0.904661	0.409484	-1.000000	-1.000000	-1.000000	-1.000000	-1.000000	-1.000000	-1.000000	138.965517	0.000000	-1.000000	-1.000000	330076.000000	1772918688.982555
-2748.600000	27000.855000	-16228.575000	-14759.865000	0.000000	0.000000	0.000000	0.000000	-68.604695	5.380475	-100.301746	-100.483516	-0.000000	-0.000000	0.000000	0.000000	5.096840	-0.305200	0.000000	-0.000061	0.904661	0.409484	-1.000000	-1.000000	-1.000000	-1.000000	-1.000000	-1.000000	-1.000000	138.965517	0.000000	-1.000000	-1.000000	330077.000000	1772918688.986559
-2731.095000	27029.385000	-16185.915000	-14730.840000	0.000000	0.000000	0.000000	0.000000	-59.101853	-34.570257	-85.596394	-92.610999	-0.000000	-0.000000	0.000000	0.000000	5.096840	-0.305200	0.000000	-0.000061	0.904661	0.409484	-1.000000	-1.000000	-1.000000	-1.000000	-1.000000	-1.000000	-1.000000	138.965517	0.000000	-1.000000	-1.000000	330078.000000	1772918688.986562
-2650.320000	27063.990000	-16094.250000	-14638.320000	0.000000	0.000000	0.000000	0.000000	-18.229844	-56.131303	-23.925119	-35.088905	-0.000000	-0.000000	0.000000	0.000000	5.386780	-1.419180	-0.640920	-0.000854	0.908811	0.409667	-1.000000	-1.000000	-1.000000	-1.000000	-1.000000	-1.000000	-1.000000	138.965517	0.000000	-1.000000	-1.000000	330079.000000	1772918688.990572
-2597.940000	27109.395000	-16058.565000	-14572.845000	0.000000	0.000000	0.000000	0.000000	33.120102	-47.064397	50.329048	40.505525	-0.000000	-0.000000	0.000000	0.000000	5.386780	-1.419180	-0.640920	-0.000854	0.908811	0.409667	-1.000000	-1.000000	-1.000000	-1.000000	-1.000000	-1.000000	-1.000000	138.965517	0.000000	-1.000000	-1.000000	330080.000000	1772918688.990575
-2661.480000	27187.875000	-16096.815000	-14608.215000	0.000000	0.000000	0.000000	0.000000	68.484393	-13.764171	96.896840	94.745145	-0.000000	-0.000000	0.000000	0.000000	5.386780	-1.419180	-0.640920	-0.000854	0.908811	0.409667	-1.000000	-1.000000	-1.000000	-1.000000	-1.000000	-1.000000	-1.000000	138.965517	0.000000	-1.000000	-1.000000	330081.000000	1772918688.994519
-2722.005000	27263.970000	-16141.005000	-14657.355000	0.000000	0.000000	0.000000	0.000000	66.581299	25.622016	91.179924	99.120410	-0.000000	-0.000000	0.000000	0.000000	5.386780	-1.419180	-0.640920	-0.000854	0.908811	0.409667	-1.000000	-1.000000	-1.000000	-1.000000	-1.000000	-1.000000	-1.000000	138.965517	0.000000	-1.000000	-1.000000	330082.000000	1772918688.994521
-2784.510000	27283.095000	-16230.870000	-14748.255000	0.000000	0.000000	0.000000	0.000000	26.037840	51.854020	37.564682	51.205247	-0.000000	-0.000000	0.000000	0.000000	5.386780	-1.419180	-0.640920	-0.000854	0.908811	0.409667	-1.000000	-1.000000	-1.000000	-1.000000	-1.000000	-1.000000	-1.000000	138.965517	0.000000	-1.000000	-1.000000	330083.000000	1772918688.998579
-2855.115000	27263.880000	-16329.330000	-14854.320000	0.000000	0.000000	0.000000	0.000000	-30.363566	51.107170	-35.187449	-23.796158	-0.000000	-0.000000	0.000000	0.000000	5.386780	-1.419180	-0.640920	-0.000854	0.908811	0.409667	-1.000000	-1.000000	-1.000000	-1.000000	-1.000000	-1.000000	-1.000000	138.965517	0.000000	-1.000000	-1.000000	330084.000000	1772918688.998582
-2852.235000	27339.165000	-16335.810000	-14856.030000	0.000000	0.000000	0.000000	0.000000	-71.018143	23.286196	-90.976824	-87.576598	-0.000000	-0.000000	0.000000	0.000000	5.386780	-1.419180	-0.640920	-0.000854	0.908811	0.409667	-1.000000	-1.000000	-1.000000	-1.000000	-1.000000	-1.000000	-1.000000	138.965517	0.000000	-1.000000	-1.000000	330085.000000	1772918689.002562
-2829.420000	27403.110000	-16300.440000	-14822.955000	0.000000	0.000000	0.000000	0.000000	-73.846562	-13.507973	-101.723479	-106.722965	-0.000000	-0.000000	0.000000	0.000000	5.386780	-1.419180	-0.640920	-0.000854	0.908811	0.409667	-1.000000	-1.000000	-1.000000	-1.000000	-1.000000	-1.000000	-1.000000	138.965517	0.000000	-1.000000	-1.000000	330086.000000	1772918689.002564
-2742.255000	27387.495000	-16185.465000	-14713.965000	0.000000	0.000000	0.000000	0.000000	-36.507447	-37.903944	-59.717974	-69.299808	-0.000000	-0.000000	0.000000	0.000000	5.386780	-1.419180	-0.640920	-0.000854	0.908811	0.409667	-1.000000	-1.000000	-1.000000	-1.000000	-1.000000	-1.000000	-1.000000	138.965517	0.000000	-1.000000	-1.000000	330087.000000	1772918689.006161
-2642.445000	27360.855000	-16063.245000	-14584.410000	0.000000	0.000000	0.000000	0.000000	23.832601	-44.778034	17.284344	7.932411	-0.000000	-0.000000	0.000000	0.000000	5.386780	-1.419180	-0.640920	-0.000854	0.908811	0.409667	-1.000000	-1.000000	-1.000000	-1.000000	-1.000000	-1.000000	-1.000000	138.965517	0.000000	-1.000000	-1.000000	330088.000000	1772918689.006164
-2645.010000	27255.195000	-16065.495000	-14580.090000	0.000000	0.000000	0.000000	0.000000	78.062080	-43.598198	91.838207	86.470765	-0.000000	-0.000000	0.000000	0.000000	3.982860	-0.396760	-0.350980	0.001892	0.904905	0.409179	-1.000000	-1.000000	-1.000000	-1.000000	-1.000000	-1.000000	-1.000000	138.620690	0.000000	-1.000000	-1.000000	330089.000000	1772918689.010694
-2672.010000	27155.925000	-16096.455000	-14614.020000	0.000000	0.000000	0.000000	0.000000	96.446658	-44.039897	122.707962	123.012268	-0.000000	-0.000000	0.000000	0.000000	3.982860	-0.396760	-0.350980	0.001892	0.904905	0.409179	-1.000000	-1.000000	-1.000000	-1.000000	-1.000000	-1.000000	-1.000000	138.620690	0.000000	-1.000000	-1.000000	330090.000000	1772918689.010697
-2740.230000	27161.910000	-16194.420000	-14714.685000	0.000000	0.000000	0.000000	0.000000	65.650881	-44.540087	89.516057	94.271247	-0.000000	-0.000000	0.000000	0.000000	3.982860	-0.396760	-0.350980	0.001892	0.904905	0.409179	-1.000000	-1.000000	-1.000000	-1.000000	-1.000000	-1.000000	-1.000000	138.620690	0.000000	-1.000000	-1.000000	330091.000000	1772918689.014721
-2840.985000	27238.545000	-16322.940000	-14847.120000	0.000000	0.000000	0.000000	0.000000	-0.945494	-30.894637	7.115086	12.908075	-0.000000	-0.000000	0.000000	0.000000	3.982860	-0.396760	-0.350980	0.001892	0.904905	0.409179	-1.000000	-1.000000	-1.000000	-1.000000	-1.000000	-1.000000	-1.000000	138.620690	0.000000	-1.000000	-1.000000	330092.000000	1772918689.014724
-2809.035000	27184.635000	-16293.915000	-14820.435000	0.000000	0.000000	0.000000	0.000000	-69.595980	5.781851	-81.759993	-78.225243	-0.000000	-0.000000	0.000000	0.000000	3.982860	-0.396760	-0.350980	0.001892	0.904905	0.409179	-1.000000	-1.000000	-1.000000	-1.000000	-1.000000	-1.000000	-1.000000	138.620690	0.000000	-1.000000	-1.000000	330093.000000	1772918689.018622
-2733.345000	27013.590000	-16219.530000	-14744.340000	0.000000	0.000000	0.000000	0.000000	-101.973417	47.738970	-127.034474	-126.994946	-0.000000	-0.000000	0.000000	0.000000	3.982860	-0.396760	-0.350980	0.001892	0.904905	0.409179	-1.000000	-1.000000	-1.000000	-1.000000	-1.000000	-1.000000	-1.000000	138.620690	0.000000	-1.000000	-1.000000	330094.000000	1772918689.018625
-2694.420000	27009.810000	-16154.145000	-14682.870000	0.000000	0.000000	0.000000	0.000000	-78.702986	64.405259	-101.907008	-104.317679	-0.000000	-0.000000	0.000000	0.000000	3.982860	-0.396760	-0.350980	0.001892	0.904905	0.409179	-1.000000	-1.000000	-1.000000	-1.000000	-1.000000	-1.000000	-1.000000	138.620690	0.000000	-1.000000	-1.000000	330095.000000	1772918689.022658
-2614.320000	26954.370000	-16029.945000	-14553.630000	0.000000	0.000000	0.000000	0.000000	-15.255311	48.776532	-22.573914	-25.342922	-0.000000	-0.000000	0.000000	0.000000	3.982860	-0.396760	-0.350980	0.001892	0.904905	0.409179	-1.000000	-1.000000	-1.000000	-1.000000	-1.000000	-1.000000	-1.000000	138.620690	0.000000	-1.000000	-1.000000	330096.000000	1772918689.022661
-2609.775000	26923.590000	-16035.615000	-14546.025000	0.000000	0.000000	0.000000	0.000000	50.317057	20.470650	64.497634	63.411957	-0.000000	-0.000000	0.000000	0.000000	3.982860	-0.396760	-0.350980	0.001892	0.904905	0.409179	-1.000000	-1.000000	-1.000000	-1.000000	-1.000000	-1.000000	-1.000000	138.620690	0.000000	-1.000000	-1.000000	330097.000000	1772918689.026626
-2649.690000	26938.170000	-16100.685000	-14609.565000	0.000000	0.000000	0.000000	0.000000	82.459462	0.552676	110.475164	112.401682	-0.000000	-0.000000	0.000000	0.000000	3.982860	-0.396760	-0.350980	0.001892	0.904905	0.409179	-1.000000	-1.000000	-1.000000	-1.000000	-1.000000	-1.000000	-1.000000	138.620690	0.000000	-1.000000	-1.000000	330098.000000	1772918689.026629
-2682.360000	26926.335000	-16141.590000	-14651.145000	0.000000	0.000000	0.000000	0.000000	66.544642	-2.239583	91.216818	95.676326	-0.000000	-0.000000	0.000000	0.000000	7.217980	-0.137340	-0.320460	0.002441	0.907102	0.411254	-1.000000	-1.000000	-1.000000	-1.000000	-1.000000	-1.000000	-1.000000	138.620690	0.000000	-1.000000	-1.000000	330099.000000	1772918689.030720
-2776.455000	27001.620000	-16262.955000	-14779.170000	0.000000	0.000000	0.000000	0.000000	14.887177	8.747333	21.561156	25.916863	-0.000000	-0.000000	0.000000	0.000000	7.217980	-0.137340	-0.320460	0.002441	0.907102	0.411254	-1.000000	-1.000000	-1.000000	-1.000000	-1.000000	-1.000000	-1.000000	138.620690	0.000000	-1.000000	-1.000000	330100.000000	1772918689.030723
-2779.155000	26966.835000	-16275.465000	-14803.740000	0.000000	0.000000	0.000000	0.000000	-42.853394	23.035799	-57.266650	-56.330518	-0.000000	-0.000000	0.000000	0.000000	7.217980	-0.137340	-0.320460	0.002441	0.907102	0.411254	-1.000000	-1.000000	-1.000000	-1.000000	-1.000000	-1.000000	-1.000000	138.620690	0.000000	-1.000000	-1.000000	330101.000000	1772918689.033855
-2754.900000	26936.865000	-16233.615000	-14762.745000	0.000000	0.000000	0.000000	0.000000	-75.379572	27.309226	-101.941518	-106.152104	-0.000000	-0.000000	0.000000	0.000000	7.217980	-0.137340	-0.320460	0.002441	0.907102	0.411254	-1.000000	-1.000000	-1.000000	-1.000000	-1.000000	-1.000000	-1.000000	138.620690	0.000000	-1.000000	-1.000000	330102.000000	1772918689.033858
-2731.005000	26960.895000	-16199.280000	-14725.755000	0.000000	0.000000	0.000000	0.000000	-65.629898	13.949363	-89.001088	-96.868834	-0.000000	-0.000000	0.000000	0.000000	7.217980	-0.137340	-0.320460	0.002441	0.907102	0.411254	-1.000000	-1.000000	-1.000000	-1.000000	-1.000000	-1.000000	-1.000000	138.620690	0.000000	-1.000000	-1.000000	330103.000000	1772918689.039381
-2657.970000	26992.845000	-16097.130000	-14622.705000	0.000000	0.000000	0.000000	0.000000	-20.765770	-9.285355	-27.971407	-35.369918	-0.000000	-0.000000	0.000000	0.000000	7.217980	-0.137340	-0.320460	0.002441	0.907102	0.411254	-1.000000	-1.000000	-1.000000	-1.000000	-1.000000	-1.000000	-1.000000	138.620690	0.000000	-1.000000	-1.000000	330104.000000	1772918689.039384
-2636.100000	27065.205000	-16058.475000	-14575.545000	0.000000	0.000000	0.000000	0.000000	34.141998	-25.657282	46.904577	44.043353	-0.000000	-0.000000	0.000000	0.000000	7.217980	-0.137340	-0.320460	0.002441	0.907102	0.411254	-1.000000	-1.000000	-1.000000	-1.000000	-1.000000	-1.000000	-1.000000	138.620690	0.000000	-1.000000	-1.000000	330105.000000	1772918689.054873
-2659.770000	27084.195000	-16092.810000	-14608.800000	0.000000	0.000000	0.000000	0.000000	70.419846	-25.541185	96.299347	99.568185	-0.000000	-0.000000	0.000000	0.000000	7.217980	-0.137340	-0.320460	0.002441	0.907102	0.411254	-1.000000	-1.000000	-1.000000	-1.000000	-1.000000	-1.000000	-1.000000	138.620690	0.000000	-1.000000	-1.000000	330106.000000	1772918689.054876
-2661.570000	26986.230000	-16111.800000	-14624.505000	0.000000	0.000000	0.000000	0.000000	69.992557	-15.990858	94.880974	102.705832	-0.000000	-0.000000	0.000000	0.000000	7.217980	-0.137340	-0.320460	0.002441	0.907102	0.411254	-1.000000	-1.000000	-1.000000	-1.000000	-1.000000	-1.000000	-1.000000	138.620690	0.000000	-1.000000	-1.000000	330107.000000	1772918689.054881
-2723.940000	26926.605000	-16202.295000	-14716.305000	0.000000	0.000000	0.000000	0.000000	35.431111	-14.164861	45.343056	54.010419	-0.000000	-0.000000	0.000000	0.000000	7.217980	-0.137340	-0.320460	0.002441	0.907102	0.411254	-1.000000	-1.000000	-1.000000	-1.000000	-1.000000	-1.000000	-1.000000	138.620690	0.000000	-1.000000	-1.000000	330108.000000	1772918689.054883
-2783.970000	26926.245000	-16276.455000	-14801.355000	0.000000	0.000000	0.000000	0.000000	-14.404504	-25.839784	-25.493409	-19.965307	-0.000000	-0.000000	0.000000	0.000000	6.012440	0.091560	-0.839300	0.001709	0.901304	0.409423	-1.000000	-1.000000	-1.000000	-1.000000	-1.000000	-1.000000	-1.000000	138.620690	0.000000	-1.000000	-1.000000	330109.000000	1772918689.054886
-2780.730000	26944.605000	-16263.540000	-14790.690000	0.000000	0.000000	0.000000	0.000000	-55.894718	-36.405643	-82.409379	-82.580176	-0.000000	-0.000000	0.000000	0.000000	6.012440	0.091560	-0.839300	0.001709	0.901304	0.409423	-1.000000	-1.000000	-1.000000	-1.000000	-1.000000	-1.000000	-1.000000	138.620690	0.000000	-1.000000	-1.000000	330110.000000	1772918689.054888
-2763.540000	27000.450000	-16234.200000	-14762.070000	0.000000	0.000000	0.000000	0.000000	-69.228468	-27.880779	-96.829078	-102.493165	-0.000000	-0.000000	0.000000	0.000000	6.012440	0.091560	-0.839300	0.001709	0.901304	0.409423	-1.000000	-1.000000	-1.000000	-1.000000	-1.000000	-1.000000	-1.000000	138.620690	0.000000	-1.000000	-1.000000	330111.000000	1772918689.057171
-2688.210000	26969.985000	-16127.730000	-14655.330000	0.000000	0.000000	0.000000	0.000000	-47.236906	0.967175	-60.922575	-69.017459	-0.000000	-0.000000	0.000000	0.000000	6.012440	0.091560	-0.839300	0.001709	0.901304	0.409423	-1.000000	-1.000000	-1.000000	-1.000000	-1.000000	-1.000000	-1.000000	138.620690	0.000000	-1.000000	-1.000000	330112.000000	1772918689.057175
-2628.000000	26984.475000	-16043.310000	-14561.955000	0.000000	0.000000	0.000000	0.000000	-0.220136	32.789931	7.574008	1.250213	-0.000000	-0.000000	0.000000	0.000000	6.012440	0.091560	-0.839300	0.001709	0.901304	0.409423	-1.000000	-1.000000	-1.000000	-1.000000	-1.000000	-1.000000	-1.000000	138.620690	0.000000	-1.000000	-1.000000	330113.000000	1772918689.059048
-2669.490000	27066.780000	-16099.380000	-14611.905000	0.000000	0.000000	0.000000	0.000000	47.043881	49.908763	72.402768	71.036164	-0.000000	-0.000000	0.000000	0.000000	6.012440	0.091560	-0.839300	0.001709	0.901304	0.409423	-1.000000	-1.000000	-1.000000	-1.000000	-1.000000	-1.000000	-1.000000	138.620690	0.000000	-1.000000	-1.000000	330114.000000	1772918689.059051
-2691.405000	27036.585000	-16133.445000	-14648.670000	0.000000	0.000000	0.000000	0.000000	66.866826	48.382443	95.842463	99.962018	-0.000000	-0.000000	0.000000	0.000000	6.012440	0.091560	-0.839300	0.001709	0.901304	0.409423	-1.000000	-1.000000	-1.000000	-1.000000	-1.000000	-1.000000	-1.000000	138.620690	0.000000	-1.000000	-1.000000	330115.000000	1772918689.062814
-2748.690000	27097.830000	-16208.775000	-14725.980000	0.000000	0.000000	0.000000	0.000000	47.701244	32.456752	64.186877	71.185442	-0.000000	-0.000000	0.000000	0.000000	6.012440	0.091560	-0.839300	0.001709	0.901304	0.409423	-1.000000	-1.000000	-1.000000	-1.000000	-1.000000	-1.000000	-1.000000	138.620690	0.000000	-1.000000	-1.000000	330116.000000	1772918689.062817
-2820.420000	27081.270000	-16312.770000	-14836.005000	0.000000	0.000000	0.000000	0.000000	2.031215	8.802042	-2.817278	2.876903	-0.000000	-0.000000	0.000000	0.000000	6.012440	0.091560	-0.839300	0.001709	0.901304	0.409423	-1.000000	-1.000000	-1.000000	-1.000000	-1.000000	-1.000000	-1.000000	138.620690	0.000000	-1.000000	-1.000000	330117.000000	1772918689.066749
-2779.785000	26981.865000	-16263.630000	-14794.965000	0.000000	0.000000	0.000000	0.000000	-43.200762	-16.733643	-66.700457	-65.531185	-0.000000	-0.000000	0.000000	0.000000	6.012440	0.091560	-0.839300	0.001709	0.901304	0.409423	-1.000000	-1.000000	-1.000000	-1.000000	-1.000000	-1.000000	-1.000000	138.620690	0.000000	-1.000000	-1.000000	330118.000000	1772918689.066752
-2744.145000	26978.220000	-16212.645000	-14743.845000	0.000000	0.000000	0.000000	0.000000	-61.022835	-41.083759	-90.459700	-94.381445	-0.000000	-0.000000	0.000000	0.000000	7.568960	0.747740	-0.671440	0.003052	0.901365	0.411071	-1.000000	-1.000000	-1.000000	-1.000000	-1.000000	-1.000000	-1.000000	138.620690	0.000000	-1.000000	-1.000000	330119.000000	1772918689.070502
-2691.315000	26956.935000	-16144.920000	-14673.645000	0.000000	0.000000	0.000000	0.000000	-40.829561	-56.702558	-60.143125	-66.797305	-0.000000	-0.000000	0.000000	0.000000	7.568960	0.747740	-0.671440	0.003052	0.901365	0.411071	-1.000000	-1.000000	-1.000000	-1.000000	-1.000000	-1.000000	-1.000000	138.620690	0.000000	-1.000000	-1.000000	330120.000000	1772918689.070505
-2598.660000	26837.775000	-16028.820000	-14549.625000	0.000000	0.000000	0.000000	0.000000	4.551152	-55.059548	5.514796	0.127503	-0.000000	-0.000000	0.000000	0.000000	7.568960	0.747740	-0.671440	0.003052	0.901365	0.411071	-1.000000	-1.000000	-1.000000	-1.000000	-1.000000	-1.000000	-1.000000	138.620690	0.000000	-1.000000	-1.000000	330121.000000	1772918689.074925
-2604.375000	26774.865000	-16042.770000	-14552.730000	0.000000	0.000000	0.000000	0.000000	48.869708	-39.039317	68.869116	68.160341	-0.000000	-0.000000	0.000000	0.000000	7.568960	0.747740	-0.671440	0.003052	0.901365	0.411071	-1.000000	-1.000000	-1.000000	-1.000000	-1.000000	-1.000000	-1.000000	138.620690	0.000000	-1.000000	-1.000000	330122.000000	1772918689.074927
-2650.770000	26821.080000	-16099.740000	-14609.070000	0.000000	0.000000	0.000000	0.000000	66.024974	-15.718336	93.534086	98.382003	-0.000000	-0.000000	0.000000	0.000000	7.568960	0.747740	-0.671440	0.003052	0.901365	0.411071	-1.000000	-1.000000	-1.000000	-1.000000	-1.000000	-1.000000	-1.000000	138.620690	0.000000	-1.000000	-1.000000	330123.000000	1772918689.078823
-2695.230000	26885.160000	-16168.995000	-14670.405000	0.000000	0.000000	0.000000	0.000000	43.867966	15.302821	63.700918	71.855452	-0.000000	-0.000000	0.000000	0.000000	7.568960	0.747740	-0.671440	0.003052	0.901365	0.411071	-1.000000	-1.000000	-1.000000	-1.000000	-1.000000	-1.000000	-1.000000	138.620690	0.000000	-1.000000	-1.000000	330124.000000	1772918689.078826
-2763.315000	26885.655000	-16273.170000	-14779.170000	0.000000	0.000000	0.000000	0.000000	-6.134210	52.043711	-4.618651	2.795725	-0.000000	-0.000000	0.000000	0.000000	7.568960	0.747740	-0.671440	0.003052	0.901365	0.411071	-1.000000	-1.000000	-1.000000	-1.000000	-1.000000	-1.000000	-1.000000	138.620690	0.000000	-1.000000	-1.000000	330125.000000	1772918689.082819
-2786.490000	26911.620000	-16287.930000	-14814.630000	0.000000	0.000000	0.000000	0.000000	-56.094273	79.487378	-73.564325	-70.887276	-0.000000	-0.000000	0.000000	0.000000	7.568960	0.747740	-0.671440	0.003052	0.901365	0.411071	-1.000000	-1.000000	-1.000000	-1.000000	-1.000000	-1.000000	-1.000000	138.620690	0.000000	-1.000000	-1.000000	330126.000000	1772918689.082821
-2782.305000	26999.685000	-16276.365000	-14797.440000	0.000000	0.000000	0.000000	0.000000	-79.009324	82.357208	-105.299214	-109.651731	-0.000000	-0.000000	0.000000	0.000000	7.568960	0.747740	-0.671440	0.003052	0.901365	0.411071	-1.000000	-1.000000	-1.000000	-1.000000	-1.000000	-1.000000	-1.000000	138.620690	0.000000	-1.000000	-1.000000	330127.000000	1772918689.086825
-2756.790000	27033.255000	-16233.480000	-14758.020000	0.000000	0.000000	0.000000	0.000000	-63.008576	60.621064	-82.662131	-92.661214	-0.000000	-0.000000	0.000000	0.000000	7.568960	0.747740	-0.671440	0.003052	0.901365	0.411071	-1.000000	-1.000000	-1.000000	-1.000000	-1.000000	-1.000000	-1.000000	138.620690	0.000000	-1.000000	-1.000000	330128.000000	1772918689.086828
-2664.045000	26981.370000	-16069.590000	-14606.235000	0.000000	0.000000	0.000000	0.000000	-15.845468	23.238716	-16.651776	-27.666319	-0.000000	-0.000000	0.000000	0.000000	7.065380	-0.518840	-0.610400	-0.000122	0.911497	0.408080	-1.000000	-1.000000	-1.000000	-1.000000	-1.000000	-1.000000	-1.000000	138.620690	0.000000	-1.000000	-1.000000	330129.000000	1772918689.090860
-2592.045000	26817.435000	-16001.370000	-14525.190000	0.000000	0.000000	0.000000	0.000000	41.578710	-24.444123	62.733912	55.432024	-0.000000	-0.000000	0.000000	0.000000	7.065380	-0.518840	-0.610400	-0.000122	0.911497	0.408080	-1.000000	-1.000000	-1.000000	-1.000000	-1.000000	-1.000000	-1.000000	138.620690	0.000000	-1.000000	-1.000000	330130.000000	1772918689.090862
-2638.755000	26830.575000	-16068.195000	-14583.870000	0.000000	0.000000	0.000000	0.000000	82.762732	-74.907286	116.415321	115.820200	-0.000000	-0.000000	0.000000	0.000000	7.065380	-0.518840	-0.610400	-0.000122	0.911497	0.408080	-1.000000	-1.000000	-1.000000	-1.000000	-1.000000	-1.000000	-1.000000	138.620690	0.000000	-1.000000	-1.000000	330131.000000	1772918689.094804
-2689.740000	26928.270000	-16143.030000	-14644.350000	0.000000	0.000000	0.000000	0.000000	84.212022	-104.602515	111.134031	118.083147	-0.000000	-0.000000	0.000000	0.000000	7.065380	-0.518840	-0.610400	-0.000122	0.911497	0.408080	-1.000000	-1.000000	-1.000000	-1.000000	-1.000000	-1.000000	-1.000000	138.620690	0.000000	-1.000000	-1.000000	330132.000000	1772918689.094807
-2767.455000	26984.295000	-16245.675000	-14755.455000	0.000000	0.000000	0.000000	0.000000	41.405975	-87.336781	44.647229	56.947877	-0.000000	-0.000000	0.000000	0.000000	7.065380	-0.518840	-0.610400	-0.000122	0.911497	0.408080	-1.000000	-1.000000	-1.000000	-1.000000	-1.000000	-1.000000	-1.000000	138.620690	0.000000	-1.000000	-1.000000	330133.000000	1772918689.098949
-2810.700000	26999.055000	-16293.240000	-14823.540000	0.000000	0.000000	0.000000	0.000000	-23.675238	-26.849582	-47.327104	-35.285724	-0.000000	-0.000000	0.000000	0.000000	7.065380	-0.518840	-0.610400	-0.000122	0.911497	0.408080	-1.000000	-1.000000	-1.000000	-1.000000	-1.000000	-1.000000	-1.000000	138.620690	0.000000	-1.000000	-1.000000	330134.000000	1772918689.098952
-2760.120000	26889.300000	-16233.660000	-14764.545000	0.000000	0.000000	0.000000	0.000000	-74.591982	38.532243	-112.883235	-107.729053	-0.000000	-0.000000	0.000000	0.000000	7.065380	-0.518840	-0.610400	-0.000122	0.911497	0.408080	-1.000000	-1.000000	-1.000000	-1.000000	-1.000000	-1.000000	-1.000000	138.620690	0.000000	-1.000000	-1.000000	330135.000000	1772918689.102748
-2733.300000	26853.435000	-16210.440000	-14727.015000	0.000000	0.000000	0.000000	0.000000	-82.487008	67.443424	-115.860338	-120.100553	-0.000000	-0.000000	0.000000	0.000000	7.065380	-0.518840	-0.610400	-0.000122	0.911497	0.408080	-1.000000	-1.000000	-1.000000	-1.000000	-1.000000	-1.000000	-1.000000	138.620690	0.000000	-1.000000	-1.000000	330136.000000	1772918689.102751
-2647.440000	26806.680000	-16092.270000	-14615.055000	0.000000	0.000000	0.000000	0.000000	-44.549097	49.488745	-57.673238	-67.403355	-0.000000	-0.000000	0.000000	0.000000	7.065380	-0.518840	-0.610400	-0.000122	0.911497	0.408080	-1.000000	-1.000000	-1.000000	-1.000000	-1.000000	-1.000000	-1.000000	138.620690	0.000000	-1.000000	-1.000000	330137.000000	1772918689.106867
-2592.225000	26805.825000	-16014.825000	-14528.250000	0.000000	0.000000	0.000000	0.000000	16.032725	8.428324	27.843230	19.123969	-0.000000	-0.000000	0.000000	0.000000	7.065380	-0.518840	-0.610400	-0.000122	0.911497	0.408080	-1.000000	-1.000000	-1.000000	-1.000000	-1.000000	-1.000000	-1.000000	138.620690	0.000000	-1.000000	-1.000000	330138.000000	1772918689.106870
-2643.345000	26886.465000	-16076.520000	-14585.940000	0.000000	0.000000	0.000000	0.000000	64.904257	-21.664294	95.153041	91.771998	-0.000000	-0.000000	0.000000	0.000000	2.807840	0.106820	0.030520	-0.000244	0.902464	0.406066	-1.000000	-1.000000	-1.000000	-1.000000	-1.000000	-1.000000	-1.000000	138.620690	0.000000	-1.000000	-1.000000	330139.000000	1772918689.110925
-2674.170000	26868.105000	-16117.785000	-14629.365000	0.000000	0.000000	0.000000	0.000000	74.188067	-21.463962	107.950224	110.394211	-0.000000	-0.000000	0.000000	0.000000	2.807840	0.106820	0.030520	-0.000244	0.902464	0.406066	-1.000000	-1.000000	-1.000000	-1.000000	-1.000000	-1.000000	-1.000000	138.620690	0.000000	-1.000000	-1.000000	330140.000000	1772918689.110927
-2724.660000	26845.470000	-16193.520000	-14704.110000	0.000000	0.000000	0.000000	0.000000	39.936948	0.941517	60.835013	66.375450	-0.000000	-0.000000	0.000000	0.000000	2.807840	0.106820	0.030520	-0.000244	0.902464	0.406066	-1.000000	-1.000000	-1.000000	-1.000000	-1.000000	-1.000000	-1.000000	138.620690	0.000000	-1.000000	-1.000000	330141.000000	1772918689.114870
-2780.865000	26796.645000	-16281.630000	-14795.640000	0.000000	0.000000	0.000000	0.000000	-15.601391	20.727822	-17.121127	-12.316912	-0.000000	-0.000000	0.000000	0.000000	2.807840	0.106820	0.030520	-0.000244	0.902464	0.406066	-1.000000	-1.000000	-1.000000	-1.000000	-1.000000	-1.000000	-1.000000	138.620690	0.000000	-1.000000	-1.000000	330142.000000	1772918689.114873
-2795.490000	26777.385000	-16281.630000	-14801.310000	0.000000	0.000000	0.000000	0.000000	-61.116440	21.129082	-83.131437	-81.761222	-0.000000	-0.000000	0.000000	0.000000	2.807840	0.106820	0.030520	-0.000244	0.902464	0.406066	-1.000000	-1.000000	-1.000000	-1.000000	-1.000000	-1.000000	-1.000000	138.620690	0.000000	-1.000000	-1.000000	330143.000000	1772918689.118837
-2797.335000	26819.190000	-16266.150000	-14788.935000	0.000000	0.000000	0.000000	0.000000	-74.186621	6.091301	-103.714500	-106.361309	-0.000000	-0.000000	0.000000	0.000000	2.807840	0.106820	0.030520	-0.000244	0.902464	0.406066	-1.000000	-1.000000	-1.000000	-1.000000	-1.000000	-1.000000	-1.000000	138.620690	0.000000	-1.000000	-1.000000	330144.000000	1772918689.118839
-2719.935000	26837.955000	-16176.870000	-14700.150000	0.000000	0.000000	0.000000	0.000000	-49.672227	-7.622313	-69.733652	-74.926751	-0.000000	-0.000000	0.000000	0.000000	2.807840	0.106820	0.030520	-0.000244	0.902464	0.406066	-1.000000	-1.000000	-1.000000	-1.000000	-1.000000	-1.000000	-1.000000	138.620690	0.000000	-1.000000	-1.000000	330145.000000	1772918689.122888
-2615.490000	26841.870000	-16045.020000	-14558.130000	0.000000	0.000000	0.000000	0.000000	1.498263	-8.908145	1.525986	-3.344185	-0.000000	-0.000000	0.000000	0.000000	2.807840	0.106820	0.030520	-0.000244	0.902464	0.406066	-1.000000	-1.000000	-1.000000	-1.000000	-1.000000	-1.000000	-1.000000	138.620690	0.000000	-1.000000	-1.000000	330146.000000	1772918689.122891
-2580.930000	26834.535000	-16021.890000	-14529.555000	0.000000	0.000000	0.000000	0.000000	56.932372	-1.368119	75.738192	74.208866	-0.000000	-0.000000	0.000000	0.000000	2.807840	0.106820	0.030520	-0.000244	0.902464	0.406066	-1.000000	-1.000000	-1.000000	-1.000000	-1.000000	-1.000000	-1.000000	138.620690	0.000000	-1.000000	-1.000000	330147.000000	1772918689.126920
-2633.670000	26900.595000	-16071.795000	-14578.875000	0.000000	0.000000	0.000000	0.000000	87.874382	5.934249	114.008097	117.150455	-0.000000	-0.000000	0.000000	0.000000	2.807840	0.106820	0.030520	-0.000244	0.902464	0.406066	-1.000000	-1.000000	-1.000000	-1.000000	-1.000000	-1.000000	-1.000000	138.620690	0.000000	-1.000000	-1.000000	330148.000000	1772918689.126922
-2684.970000	26910.270000	-16137.270000	-14646.420000	0.000000	0.000000	0.000000	0.000000	73.458099	9.401883	92.564258	98.805549	-0.000000	-0.000000	0.000000	0.000000	5.722500	-0.137340	-0.503580	0.003784	0.906065	0.409301	-1.000000	-1.000000	-1.000000	-1.000000	-1.000000	-1.000000	-1.000000	138.620690	0.000000	-1.000000	-1.000000	330149.000000	1772918689.130925
-2776.545000	26797.455000	-16264.530000	-14781.465000	0.000000	0.000000	0.000000	0.000000	17.855846	6.682800	20.304222	25.992848	-0.000000	-0.000000	0.000000	0.000000	5.722500	-0.137340	-0.503580	0.003784	0.906065	0.409301	-1.000000	-1.000000	-1.000000	-1.000000	-1.000000	-1.000000	-1.000000	138.620690	0.000000	-1.000000	-1.000000	330150.000000	1772918689.130928
-2785.995000	26717.535000	-16275.510000	-14803.830000	0.000000	0.000000	0.000000	0.000000	-49.465843	-8.174592	-64.924727	-63.335110	-0.000000	-0.000000	0.000000	0.000000	5.722500	-0.137340	-0.503580	0.003784	0.906065	0.409301	-1.000000	-1.000000	-1.000000	-1.000000	-1.000000	-1.000000	-1.000000	138.620690	0.000000	-1.000000	-1.000000	330151.000000	1772918689.134885
-2763.090000	26727.255000	-16239.015000	-14771.295000	0.000000	0.000000	0.000000	0.000000	-91.050266	-32.120706	-116.581447	-120.490502	-0.000000	-0.000000	0.000000	0.000000	5.722500	-0.137340	-0.503580	0.003784	0.906065	0.409301	-1.000000	-1.000000	-1.000000	-1.000000	-1.000000	-1.000000	-1.000000	138.620690	0.000000	-1.000000	-1.000000	330152.000000	1772918689.134888
-2706.345000	26716.095000	-16166.205000	-14699.430000	0.000000	0.000000	0.000000	0.000000	-83.794637	-46.647150	-105.596287	-113.246239	-0.000000	-0.000000	0.000000	0.000000	5.722500	-0.137340	-0.503580	0.003784	0.906065	0.409301	-1.000000	-1.000000	-1.000000	-1.000000	-1.000000	-1.000000	-1.000000	138.620690	0.000000	-1.000000	-1.000000	330153.000000	1772918689.138073
-2607.750000	26714.520000	-16039.080000	-14563.170000	0.000000	0.000000	0.000000	0.000000	-32.243662	-36.330681	-38.206093	-45.385940	-0.000000	-0.000000	0.000000	0.000000	5.722500	-0.137340	-0.503580	0.003784	0.906065	0.409301	-1.000000	-1.000000	-1.000000	-1.000000	-1.000000	-1.000000	-1.000000	138.620690	0.000000	-1.000000	-1.000000	330154.000000	1772918689.138076
-2599.290000	26775.405000	-16023.375000	-14531.805000	0.000000	0.000000	0.000000	0.000000	35.176163	-3.952899	48.479217	46.314724	-0.000000	-0.000000	0.000000	0.000000	5.722500	-0.137340	-0.503580	0.003784	0.906065	0.409301	-1.000000	-1.000000	-1.000000	-1.000000	-1.000000	-1.000000	-1.000000	138.620690	0.000000	-1.000000	-1.000000	330155.000000	1772918689.143130
-2645.640000	26825.130000	-16079.445000	-14583.420000	0.000000	0.000000	0.000000	0.000000	80.751635	35.604646	106.053473	111.228132	-0.000000	-0.000000	0.000000	0.000000	5.722500	-0.137340	-0.503580	0.003784	0.906065	0.409301	-1.000000	-1.000000	-1.000000	-1.000000	-1.000000	-1.000000	-1.000000	138.620690	0.000000	-1.000000	-1.000000	330156.000000	1772918689.143133
-2672.235000	26791.380000	-16118.730000	-14620.815000	0.000000	0.000000	0.000000	0.000000	79.033921	63.944086	102.297038	113.042989	-0.000000	-0.000000	0.000000	0.000000	5.722500	-0.137340	-0.503580	0.003784	0.906065	0.409301	-1.000000	-1.000000	-1.000000	-1.000000	-1.000000	-1.000000	-1.000000	138.620690	0.000000	-1.000000	-1.000000	330157.000000	1772918689.177169
-2737.710000	26737.515000	-16210.755000	-14723.325000	0.000000	0.000000	0.000000	0.000000	34.111556	64.268457	42.548413	53.439549	-0.000000	-0.000000	0.000000	0.000000	5.722500	-0.137340	-0.503580	0.003784	0.906065	0.409301	-1.000000	-1.000000	-1.000000	-1.000000	-1.000000	-1.000000	-1.000000	138.620690	0.000000	-1.000000	-1.000000	330158.000000	1772918689.177172
-2774.295000	26673.030000	-16267.770000	-14795.595000	0.000000	0.000000	0.000000	0.000000	-25.782714	32.115144	-36.919694	-32.120043	-0.000000	-0.000000	0.000000	0.000000	2.472120	0.701960	-2.487380	0.004456	0.910154	0.406798	-1.000000	-1.000000	-1.000000	-1.000000	-1.000000	-1.000000	-1.000000	138.620690	0.000000	-1.000000	-1.000000	330159.000000	1772918689.177175
-2738.880000	26654.355000	-16234.470000	-14762.385000	0.000000	0.000000	0.000000	0.000000	-67.543420	-17.054043	-92.938567	-97.577716	-0.000000	-0.000000	0.000000	0.000000	2.472120	0.701960	-2.487380	0.004456	0.910154	0.406798	-1.000000	-1.000000	-1.000000	-1.000000	-1.000000	-1.000000	-1.000000	138.620690	0.000000	-1.000000	-1.000000	330160.000000	1772918689.177178
-2701.215000	26557.110000	-16194.060000	-14712.255000	0.000000	0.000000	0.000000	0.000000	-69.710287	-57.580867	-96.791109	-108.655575	-0.000000	-0.000000	0.000000	0.000000	2.472120	0.701960	-2.487380	0.004456	0.910154	0.406798	-1.000000	-1.000000	-1.000000	-1.000000	-1.000000	-1.000000	-1.000000	138.620690	0.000000	-1.000000	-1.000000	330161.000000	1772918689.177181
-2607.480000	26422.110000	-16076.295000	-14585.760000	0.000000	0.000000	0.000000	0.000000	-32.669930	-73.906038	-47.917072	-60.102963	-0.000000	-0.000000	0.000000	0.000000	2.472120	0.701960	-2.487380	0.004456	0.910154	0.406798	-1.000000	-1.000000	-1.000000	-1.000000	-1.000000	-1.000000	-1.000000	138.620690	0.000000	-1.000000	-1.000000	330162.000000	1772918689.177183
-2539.665000	26433.855000	-15986.430000	-14489.640000	0.000000	0.000000	0.000000	0.000000	22.941703	-65.509635	27.517102	21.947591	-0.000000	-0.000000	0.000000	0.000000	2.472120	0.701960	-2.487380	0.004456	0.910154	0.406798	-1.000000	-1.000000	-1.000000	-1.000000	-1.000000	-1.000000	-1.000000	138.620690	0.000000	-1.000000	-1.000000	330163.000000	1772918689.177186
-2558.070000	26367.570000	-15991.380000	-14500.035000	0.000000	0.000000	0.000000	0.000000	67.125313	-36.168364	90.321933	93.635644	-0.000000	-0.000000	0.000000	0.000000	2.472120	0.701960	-2.487380	0.004456	0.910154	0.406798	-1.000000	-1.000000	-1.000000	-1.000000	-1.000000	-1.000000	-1.000000	138.620690	0.000000	-1.000000	-1.000000	330164.000000	1772918689.177188
-2600.010000	26344.035000	-16034.940000	-14545.260000	0.000000	0.000000	0.000000	0.000000	74.285915	6.115397	106.024945	114.813243	-0.000000	-0.000000	0.000000	0.000000	2.472120	0.701960	-2.487380	0.004456	0.910154	0.406798	-1.000000	-1.000000	-1.000000	-1.000000	-1.000000	-1.000000	-1.000000	138.620690	0.000000	-1.000000	-1.000000	330165.000000	1772918689.177191
-2658.105000	26370.450000	-16135.200000	-14650.380000	0.000000	0.000000	0.000000	0.000000	38.682048	46.977958	64.029212	72.276008	-0.000000	-0.000000	0.000000	0.000000	2.472120	0.701960	-2.487380	0.004456	0.910154	0.406798	-1.000000	-1.000000	-1.000000	-1.000000	-1.000000	-1.000000	-1.000000	138.620690	0.000000	-1.000000	-1.000000	330166.000000	1772918689.177193
-2731.140000	26399.520000	-16246.035000	-14779.845000	0.000000	0.000000	0.000000	0.000000	-20.628571	74.524327	-15.196249	-12.230273	-0.000000	-0.000000	0.000000	0.000000	2.472120	0.701960	-2.487380	0.004456	0.910154	0.406798	-1.000000	-1.000000	-1.000000	-1.000000	-1.000000	-1.000000	-1.000000	138.620690	0.000000	-1.000000	-1.000000	330167.000000	1772918689.177196
-2727.315000	26414.010000	-16222.545000	-14758.515000	0.000000	0.000000	0.000000	0.000000	-71.666744	82.874152	-90.302430	-94.114356	-0.000000	-0.000000	0.000000	0.000000	2.472120	0.701960	-2.487380	0.004456	0.910154	0.406798	-1.000000	-1.000000	-1.000000	-1.000000	-1.000000	-1.000000	-1.000000	138.620690	0.000000	-1.000000	-1.000000	330168.000000	1772918689.177198
-2708.370000	26360.595000	-16167.870000	-14697.990000	0.000000	0.000000	0.000000	0.000000	-86.970329	68.692154	-118.949388	-127.162343	-0.000000	-0.000000	0.000000	0.000000	1.571780	1.510740	-0.991900	0.003113	0.904905	0.408507	-1.000000	-1.000000	-1.000000	-1.000000	-1.000000	-1.000000	-1.000000	138.620690	0.000000	-1.000000	-1.000000	330169.000000	1772918689.177201
-2658.780000	26346.195000	-16092.495000	-14621.040000	0.000000	0.000000	0.000000	0.000000	-58.235618	32.845074	-83.315389	-90.691137	-0.000000	-0.000000	0.000000	0.000000	1.571780	1.510740	-0.991900	0.003113	0.904905	0.408507	-1.000000	-1.000000	-1.000000	-1.000000	-1.000000	-1.000000	-1.000000	138.620690	0.000000	-1.000000	-1.000000	330170.000000	1772918689.177203
-2591.190000	26418.510000	-16004.295000	-14519.340000	0.000000	0.000000	0.000000	0.000000	-0.522629	-12.070658	-3.371299	-5.017594	-0.000000	-0.000000	0.000000	0.000000	1.571780	1.510740	-0.991900	0.003113	0.904905	0.408507	-1.000000	-1.000000	-1.000000	-1.000000	-1.000000	-1.000000	-1.000000	138.620690	0.000000	-1.000000	-1.000000	330171.000000	1772918689.177206
-2620.305000	26464.860000	-16037.775000	-14547.285000	0.000000	0.000000	0.000000	0.000000	56.403375	-43.790359	75.829325	81.587977	-0.000000	-0.000000	0.000000	0.000000	1.571780	1.510740	-0.991900	0.003113	0.904905	0.408507	-1.000000	-1.000000	-1.000000	-1.000000	-1.000000	-1.000000	-1.000000	138.620690	0.000000	-1.000000	-1.000000	330172.000000	1772918689.177208
-2618.055000	26368.515000	-16059.195000	-14564.520000	0.000000	0.000000	0.000000	0.000000	83.266704	-51.004712	110.842639	121.737402	-0.000000	-0.000000	0.000000	0.000000	1.571780	1.510740	-0.991900	0.003113	0.904905	0.408507	-1.000000	-1.000000	-1.000000	-1.000000	-1.000000	-1.000000	-1.000000	138.620690	0.000000	-1.000000	-1.000000	330173.000000	1772918689.179107
-2623.230000	26263.530000	-16083.675000	-14591.520000	0.000000	0.000000	0.000000	0.000000	68.884408	-45.913413	86.198569	97.211320	-0.000000	-0.000000	0.000000	0.000000	1.571780	1.510740	-0.991900	0.003113	0.904905	0.408507	-1.000000	-1.000000	-1.000000	-1.000000	-1.000000	-1.000000	-1.000000	138.620690	0.000000	-1.000000	-1.000000	330174.000000	1772918689.179110
-2662.605000	25957.845000	-16155.900000	-14674.455000	0.000000	0.000000	0.000000	0.000000	25.858861	-49.752801	21.618359	27.412366	-0.000000	-0.000000	0.000000	0.000000	1.571780	1.510740	-0.991900	0.003113	0.904905	0.408507	-1.000000	-1.000000	-1.000000	-1.000000	-1.000000	-1.000000	-1.000000	138.620690	0.000000	-1.000000	-1.000000	330175.000000	1772918689.184884
-2633.490000	25662.690000	-16126.695000	-14654.070000	0.000000	0.000000	0.000000	0.000000	-21.333668	-72.747068	-45.422213	-48.036050	-0.000000	-0.000000	0.000000	0.000000	1.571780	1.510740	-0.991900	0.003113	0.904905	0.408507	-1.000000	-1.000000	-1.000000	-1.000000	-1.000000	-1.000000	-1.000000	138.620690	0.000000	-1.000000	-1.000000	330176.000000	1772918689.184887
-2609.460000	25555.905000	-16093.305000	-14619.465000	0.000000	0.000000	0.000000	0.000000	-49.997292	-100.515995	-80.851097	-91.185960	-0.000000	-0.000000	0.000000	0.000000	1.571780	1.510740	-0.991900	0.003113	0.904905	0.408507	-1.000000	-1.000000	-1.000000	-1.000000	-1.000000	-1.000000	-1.000000	138.620690	0.000000	-1.000000	-1.000000	330177.000000	1772918689.186985
-2595.240000	25605.810000	-16065.270000	-14591.520000	0.000000	0.000000	0.000000	0.000000	-49.756753	-94.590115	-70.455092	-83.878491	-0.000000	-0.000000	0.000000	0.000000	1.571780	1.510740	-0.991900	0.003113	0.904905	0.408507	-1.000000	-1.000000	-1.000000	-1.000000	-1.000000	-1.000000	-1.000000	138.620690	0.000000	-1.000000	-1.000000	330178.000000	1772918689.186988
-2488.680000	25656.615000	-15929.595000	-14455.215000	0.000000	0.000000	0.000000	0.000000	-25.908378	-25.218390	-25.102369	-35.511684	-0.000000	-0.000000	0.000000	0.000000	4.990020	0.625660	-0.610400	0.001038	0.905149	0.410888	-1.000000	-1.000000	-1.000000	-1.000000	-1.000000	-1.000000	-1.000000	138.620690	0.000000	-1.000000	-1.000000	330179.000000	1772918689.191025
-2484.855000	25736.670000	-15916.050000	-14430.735000	0.000000	0.000000	0.000000	0.000000	7.322599	91.115662	29.921546	26.807823	-0.000000	-0.000000	0.000000	0.000000	4.990020	0.625660	-0.610400	0.001038	0.905149	0.410888	-1.000000	-1.000000	-1.000000	-1.000000	-1.000000	-1.000000	-1.000000	138.620690	0.000000	-1.000000	-1.000000	330180.000000	1772918689.191028
-2530.800000	25810.245000	-15961.230000	-14472.315000	0.000000	0.000000	0.000000	0.000000	31.227262	197.784478	65.264857	70.284975	-0.000000	-0.000000	0.000000	0.000000	4.990020	0.625660	-0.610400	0.001038	0.905149	0.410888	-1.000000	-1.000000	-1.000000	-1.000000	-1.000000	-1.000000	-1.000000	138.620690	0.000000	-1.000000	-1.000000	330181.000000	1772918689.195205
-2589.345000	25822.080000	-16036.380000	-14539.995000	0.000000	0.000000	0.000000	0.000000	29.396939	238.552685	59.026978	69.701781	-0.000000	-0.000000	0.000000	0.000000	4.990020	0.625660	-0.610400	0.001038	0.905149	0.410888	-1.000000	-1.000000	-1.000000	-1.000000	-1.000000	-1.000000	-1.000000	138.620690	0.000000	-1.000000	-1.000000	330182.000000	1772918689.195207
-2695.680000	25836.975000	-16175.565000	-14691.240000	0.000000	0.000000	0.000000	0.000000	0.699918	191.245410	12.049143	23.625434	-0.000000	-0.000000	0.000000	0.000000	4.990020	0.625660	-0.610400	0.001038	0.905149	0.410888	-1.000000	-1.000000	-1.000000	-1.000000	-1.000000	-1.000000	-1.000000	138.620690	0.000000	-1.000000	-1.000000	330183.000000	1772918689.199176
-2704.815000	25787.790000	-16191.810000	-14725.035000	0.000000	0.000000	0.000000	0.000000	-37.425815	76.248720	-49.717280	-42.739634	-0.000000	-0.000000	0.000000	0.000000	4.990020	0.625660	-0.610400	0.001038	0.905149	0.410888	-1.000000	-1.000000	-1.000000	-1.000000	-1.000000	-1.000000	-1.000000	138.620690	0.000000	-1.000000	-1.000000	330184.000000	1772918689.199179
-2679.390000	25717.455000	-16146.360000	-14685.930000	0.000000	0.000000	0.000000	0.000000	-58.394643	-59.055610	-87.681542	-89.188384	-0.000000	-0.000000	0.000000	0.000000	4.990020	0.625660	-0.610400	0.001038	0.905149	0.410888	-1.000000	-1.000000	-1.000000	-1.000000	-1.000000	-1.000000	-1.000000	138.620690	0.000000	-1.000000	-1.000000	330185.000000	1772918689.203079
-2647.305000	25640.685000	-16102.440000	-14644.710000	0.000000	0.000000	0.000000	0.000000	-44.089473	-165.704443	-74.419940	-83.926686	-0.000000	-0.000000	0.000000	0.000000	4.990020	0.625660	-0.610400	0.001038	0.905149	0.410888	-1.000000	-1.000000	-1.000000	-1.000000	-1.000000	-1.000000	-1.000000	138.620690	0.000000	-1.000000	-1.000000	330186.000000	1772918689.203082
-2568.915000	25613.010000	-15999.840000	-14531.265000	0.000000	0.000000	0.000000	0.000000	0.886917	-210.947075	-14.659619	-26.842382	-0.000000	-0.000000	0.000000	0.000000	4.990020	0.625660	-0.610400	0.001038	0.905149	0.410888	-1.000000	-1.000000	-1.000000	-1.000000	-1.000000	-1.000000	-1.000000	138.620690	0.000000	-1.000000	-1.000000	330187.000000	1772918689.206459
-2534.265000	25722.945000	-15968.700000	-14464.935000	0.000000	0.000000	0.000000	0.000000	53.046752	-183.657422	58.572427	51.368554	-0.000000	-0.000000	0.000000	0.000000	4.990020	0.625660	-0.610400	0.001038	0.905149	0.410888	-1.000000	-1.000000	-1.000000	-1.000000	-1.000000	-1.000000	-1.000000	138.620690	0.000000	-1.000000	-1.000000	330188.000000	1772918689.206462
-2556.135000	25815.780000	-15994.710000	-14494.995000	0.000000	0.000000	0.000000	0.000000	84.216335	-94.777724	104.771583	108.199893	-0.000000	-0.000000	0.000000	0.000000	5.295220	1.037680	-0.930860	0.001038	0.902097	0.411559	-1.000000	-1.000000	-1.000000	-1.000000	-1.000000	-1.000000	-1.000000	138.620690	0.000000	-1.000000	-1.000000	330189.000000	1772918689.211134
-2599.380000	25896.780000	-16041.690000	-14549.670000	0.000000	0.000000	0.000000	0.000000	75.781793	21.145793	98.015355	110.941137	-0.000000	-0.000000	0.000000	0.000000	5.295220	1.037680	-0.930860	0.001038	0.902097	0.411559	-1.000000	-1.000000	-1.000000	-1.000000	-1.000000	-1.000000	-1.000000	138.620690	0.000000	-1.000000	-1.000000	330190.000000	1772918689.211137
-2706.255000	25987.860000	-16160.670000	-14672.835000	0.000000	0.000000	0.000000	0.000000	29.173426	116.168960	41.192705	55.460564	-0.000000	-0.000000	0.000000	0.000000	5.295220	1.037680	-0.930860	0.001038	0.902097	0.411559	-1.000000	-1.000000	-1.000000	-1.000000	-1.000000	-1.000000	-1.000000	138.620690	0.000000	-1.000000	-1.000000	330191.000000	1772918689.215141
-2784.240000	26033.760000	-16262.280000	-14791.680000	0.000000	0.000000	0.000000	0.000000	-34.761237	153.983767	-37.786006	-31.336909	-0.000000	-0.000000	0.000000	0.000000	5.295220	1.037680	-0.930860	0.001038	0.902097	0.411559	-1.000000	-1.000000	-1.000000	-1.000000	-1.000000	-1.000000	-1.000000	138.620690	0.000000	-1.000000	-1.000000	330192.000000	1772918689.215144
-2732.805000	26021.340000	-16227.495000	-14764.680000	0.000000	0.000000	0.000000	0.000000	-84.120475	126.067918	-99.786541	-105.299718	-0.000000	-0.000000	0.000000	0.000000	5.295220	1.037680	-0.930860	0.001038	0.902097	0.411559	-1.000000	-1.000000	-1.000000	-1.000000	-1.000000	-1.000000	-1.000000	138.620690	0.000000	-1.000000	-1.000000	330193.000000	1772918689.219035
-2714.040000	26080.335000	-16197.120000	-14735.970000	0.000000	0.000000	0.000000	0.000000	-90.359470	51.543468	-111.016136	-125.757003	-0.000000	-0.000000	0.000000	0.000000	5.295220	1.037680	-0.930860	0.001038	0.902097	0.411559	-1.000000	-1.000000	-1.000000	-1.000000	-1.000000	-1.000000	-1.000000	138.620690	0.000000	-1.000000	-1.000000	330194.000000	1772918689.219038
-2702.295000	26175.780000	-16142.040000	-14668.380000	0.000000	0.000000	0.000000	0.000000	-49.465007	-30.810016	-64.242708	-80.373804	-0.000000	-0.000000	0.000000	0.000000	5.295220	1.037680	-0.930860	0.001038	0.902097	0.411559	-1.000000	-1.000000	-1.000000	-1.000000	-1.000000	-1.000000	-1.000000	138.620690	0.000000	-1.000000	-1.000000	330195.000000	1772918689.223028
-2598.750000	26118.765000	-16020.225000	-14527.575000	0.000000	0.000000	0.000000	0.000000	14.383934	-84.560053	15.396755	6.706716	-0.000000	-0.000000	0.000000	0.000000	5.295220	1.037680	-0.930860	0.001038	0.902097	0.411559	-1.000000	-1.000000	-1.000000	-1.000000	-1.000000	-1.000000	-1.000000	138.620690	0.000000	-1.000000	-1.000000	330196.000000	1772918689.223031
-2588.310000	26084.835000	-16020.900000	-14528.970000	0.000000	0.000000	0.000000	0.000000	69.231126	-99.953894	87.799727	91.489752	-0.000000	-0.000000	0.000000	0.000000	5.295220	1.037680	-0.930860	0.001038	0.902097	0.411559	-1.000000	-1.000000	-1.000000	-1.000000	-1.000000	-1.000000	-1.000000	138.620690	0.000000	-1.000000	-1.000000	330197.000000	1772918689.227207
-2626.695000	26143.245000	-16073.820000	-14581.755000	0.000000	0.000000	0.000000	0.000000	90.520123	-87.474274	116.671639	130.552264	-0.000000	-0.000000	0.000000	0.000000	5.295220	1.037680	-0.930860	0.001038	0.902097	0.411559	-1.000000	-1.000000	-1.000000	-1.000000	-1.000000	-1.000000	-1.000000	138.620690	0.000000	-1.000000	-1.000000	330198.000000	1772918689.227211
-2694.285000	26210.880000	-16151.580000	-14661.270000	0.000000	0.000000	0.000000	0.000000	67.512944	-55.306955	85.767111	101.954445	-0.000000	-0.000000	0.000000	0.000000	6.180300	0.793520	-0.763000	0.001770	0.903379	0.411681	-1.000000	-1.000000	-1.000000	-1.000000	-1.000000	-1.000000	-1.000000	138.620690	0.000000	-1.000000	-1.000000	330199.000000	1772918689.231207
-2788.245000	26228.970000	-16267.950000	-14791.905000	0.000000	0.000000	0.000000	0.000000	10.102425	-9.670148	10.148174	20.200601	-0.000000	-0.000000	0.000000	0.000000	6.180300	0.793520	-0.763000	0.001770	0.903379	0.411681	-1.000000	-1.000000	-1.000000	-1.000000	-1.000000	-1.000000	-1.000000	138.620690	0.000000	-1.000000	-1.000000	330200.000000	1772918689.231211
-2772.450000	26172.990000	-16254.675000	-14787.720000	0.000000	0.000000	0.000000	0.000000	-52.738898	33.062125	-70.441824	-71.174283	-0.000000	-0.000000	0.000000	0.000000	6.180300	0.793520	-0.763000	0.001770	0.903379	0.411681	-1.000000	-1.000000	-1.000000	-1.000000	-1.000000	-1.000000	-1.000000	138.620690	0.000000	-1.000000	-1.000000	330201.000000	1772918689.235139
-2756.295000	26242.425000	-16229.790000	-14761.350000	0.000000	0.000000	0.000000	0.000000	-86.726830	54.002207	-112.309699	-122.854850	-0.000000	-0.000000	0.000000	0.000000	6.180300	0.793520	-0.763000	0.001770	0.903379	0.411681	-1.000000	-1.000000	-1.000000	-1.000000	-1.000000	-1.000000	-1.000000	138.620690	0.000000	-1.000000	-1.000000	330202.000000	1772918689.235143
-2729.655000	26291.025000	-16193.970000	-14716.845000	0.000000	0.000000	0.000000	0.000000	-73.810000	51.000801	-93.806443	-108.115448	-0.000000	-0.000000	0.000000	0.000000	6.180300	0.793520	-0.763000	0.001770	0.903379	0.411681	-1.000000	-1.000000	-1.000000	-1.000000	-1.000000	-1.000000	-1.000000	138.620690	0.000000	-1.000000	-1.000000	330203.000000	1772918689.238491
-2653.785000	26288.055000	-16084.350000	-14597.235000	0.000000	0.000000	0.000000	0.000000	-23.850088	36.289861	-28.210985	-38.393144	-0.000000	-0.000000	0.000000	0.000000	6.180300	0.793520	-0.763000	0.001770	0.903379	0.411681	-1.000000	-1.000000	-1.000000	-1.000000	-1.000000	-1.000000	-1.000000	138.620690	0.000000	-1.000000	-1.000000	330204.000000	1772918689.238494
-2610.675000	26207.235000	-16037.145000	-14547.015000	0.000000	0.000000	0.000000	0.000000	35.543641	17.129945	48.928502	48.028487	-0.000000	-0.000000	0.000000	0.000000	6.180300	0.793520	-0.763000	0.001770	0.903379	0.411681	-1.000000	-1.000000	-1.000000	-1.000000	-1.000000	-1.000000	-1.000000	138.620690	0.000000	-1.000000	-1.000000	330205.000000	1772918689.266064
-2623.815000	26180.055000	-16065.180000	-14576.535000	0.000000	0.000000	0.000000	0.000000	75.067688	-6.982251	99.144841	107.036087	-0.000000	-0.000000	0.000000	0.000000	6.180300	0.793520	-0.763000	0.001770	0.903379	0.411681	-1.000000	-1.000000	-1.000000	-1.000000	-1.000000	-1.000000	-1.000000	138.620690	0.000000	-1.000000	-1.000000	330206.000000	1772918689.266068
-2670.075000	26223.300000	-16118.460000	-14634.360000	0.000000	0.000000	0.000000	0.000000	75.399760	-30.083227	97.023480	108.354589	-0.000000	-0.000000	0.000000	0.000000	6.180300	0.793520	-0.763000	0.001770	0.903379	0.411681	-1.000000	-1.000000	-1.000000	-1.000000	-1.000000	-1.000000	-1.000000	138.620690	0.000000	-1.000000	-1.000000	330207.000000	1772918689.266076
-2757.060000	26231.130000	-16225.965000	-14754.105000	0.000000	0.000000	0.000000	0.000000	36.170147	-37.770957	43.730994	51.854416	-0.000000	-0.000000	0.000000	0.000000	6.180300	0.793520	-0.763000	0.001770	0.903379	0.411681	-1.000000	-1.000000	-1.000000	-1.000000	-1.000000	-1.000000	-1.000000	138.620690	0.000000	-1.000000	-1.000000	330208.000000	1772918689.266078
-2782.665000	26246.970000	-16259.535000	-14797.215000	0.000000	0.000000	0.000000	0.000000	-22.460809	-23.557081	-32.418292	-31.830701	-0.000000	-0.000000	0.000000	0.000000	5.447820	0.427280	-1.632820	0.000916	0.905820	0.410216	-1.000000	-1.000000	-1.000000	-1.000000	-1.000000	-1.000000	-1.000000	138.620690	0.000000	-1.000000	-1.000000	330209.000000	1772918689.266082
-2774.160000	26297.235000	-16249.365000	-14780.160000	0.000000	0.000000	0.000000	0.000000	-68.758958	3.677720	-90.372224	-97.161159	-0.000000	-0.000000	0.000000	0.000000	5.447820	0.427280	-1.632820	0.000916	0.905820	0.410216	-1.000000	-1.000000	-1.000000	-1.000000	-1.000000	-1.000000	-1.000000	138.620690	0.000000	-1.000000	-1.000000	330210.000000	1772918689.266084
-2757.105000	26288.685000	-16224.750000	-14751.630000	0.000000	0.000000	0.000000	0.000000	-77.484146	28.790974	-99.275746	-108.825596	-0.000000	-0.000000	0.000000	0.000000	5.447820	0.427280	-1.632820	0.000916	0.905820	0.410216	-1.000000	-1.000000	-1.000000	-1.000000	-1.000000	-1.000000	-1.000000	138.620690	0.000000	-1.000000	-1.000000	330211.000000	1772918689.266088
-2677.050000	26303.220000	-16112.475000	-14637.735000	0.000000	0.000000	0.000000	0.000000	-45.281166	39.273502	-56.088707	-62.382568	-0.000000	-0.000000	0.000000	0.000000	5.447820	0.427280	-1.632820	0.000916	0.905820	0.410216	-1.000000	-1.000000	-1.000000	-1.000000	-1.000000	-1.000000	-1.000000	138.620690	0.000000	-1.000000	-1.000000	330212.000000	1772918689.266090
-2646.945000	26417.610000	-16060.050000	-14576.040000	0.000000	0.000000	0.000000	0.000000	9.539903	32.999919	15.612908	16.035784	-0.000000	-0.000000	0.000000	0.000000	5.447820	0.427280	-1.632820	0.000916	0.905820	0.410216	-1.000000	-1.000000	-1.000000	-1.000000	-1.000000	-1.000000	-1.000000	138.620690	0.000000	-1.000000	-1.000000	330213.000000	1772918689.266093
-2677.635000	26581.095000	-16104.645000	-14621.805000	0.000000	0.000000	0.000000	0.000000	57.154392	22.158214	77.563551	84.090355	-0.000000	-0.000000	0.000000	0.000000	5.447820	0.427280	-1.632820	0.000916	0.905820	0.410216	-1.000000	-1.000000	-1.000000	-1.000000	-1.000000	-1.000000	-1.000000	138.620690	0.000000	-1.000000	-1.000000	330214.000000	1772918689.266095
-2701.485000	26590.545000	-16147.665000	-14667.570000	0.000000	0.000000	0.000000	0.000000	71.400060	18.434761	94.955606	103.837696	-0.000000	-0.000000	0.000000	0.000000	5.447820	0.427280	-1.632820	0.000916	0.905820	0.410216	-1.000000	-1.000000	-1.000000	-1.000000	-1.000000	-1.000000	-1.000000	138.620690	0.000000	-1.000000	-1.000000	330215.000000	1772918689.266098
-2781.540000	26606.340000	-16264.710000	-14787.135000	0.000000	0.000000	0.000000	0.000000	45.868003	15.343396	58.270708	64.804803	-0.000000	-0.000000	0.000000	0.000000	5.447820	0.427280	-1.632820	0.000916	0.905820	0.410216	-1.000000	-1.000000	-1.000000	-1.000000	-1.000000	-1.000000	-1.000000	138.620690	0.000000	-1.000000	-1.000000	330216.000000	1772918689.266100
-2858.940000	26617.185000	-16343.550000	-14875.380000	0.000000	0.000000	0.000000	0.000000	-3.993612	-1.152013	-11.046741	-10.048331	-0.000000	-0.000000	0.000000	0.000000	5.447820	0.427280	-1.632820	0.000916	0.905820	0.410216	-1.000000	-1.000000	-1.000000	-1.000000	-1.000000	-1.000000	-1.000000	138.620690	0.000000	-1.000000	-1.000000	330217.000000	1772918689.267400
-2816.010000	26635.995000	-16290.225000	-14827.005000	0.000000	0.000000	0.000000	0.000000	-50.419748	-30.464470	-73.026466	-77.937808	-0.000000	-0.000000	0.000000	0.000000	5.447820	0.427280	-1.632820	0.000916	0.905820	0.410216	-1.000000	-1.000000	-1.000000	-1.000000	-1.000000	-1.000000	-1.000000	138.620690	0.000000	-1.000000	-1.000000	330218.000000	1772918689.267402
-2790.810000	26664.435000	-16246.620000	-14781.465000	0.000000	0.000000	0.000000	0.000000	-66.020692	-56.733566	-90.117357	-98.564224	-0.000000	-0.000000	0.000000	0.000000	3.799740	0.549360	-1.693860	0.002441	0.906492	0.409362	-1.000000	-1.000000	-1.000000	-1.000000	-1.000000	-1.000000	-1.000000	138.620690	0.000000	-1.000000	-1.000000	330219.000000	1772918689.271209
-2746.395000	26662.455000	-16173.765000	-14703.165000	0.000000	0.000000	0.000000	0.000000	-41.432363	-64.490079	-52.091132	-59.916458	-0.000000	-0.000000	0.000000	0.000000	3.799740	0.549360	-1.693860	0.002441	0.906492	0.409362	-1.000000	-1.000000	-1.000000	-1.000000	-1.000000	-1.000000	-1.000000	138.620690	0.000000	-1.000000	-1.000000	330220.000000	1772918689.271212
-2647.890000	26634.420000	-16067.520000	-14587.155000	0.000000	0.000000	0.000000	0.000000	8.118408	-51.199421	17.429914	14.275919	-0.000000	-0.000000	0.000000	0.000000	3.799740	0.549360	-1.693860	0.002441	0.906492	0.409362	-1.000000	-1.000000	-1.000000	-1.000000	-1.000000	-1.000000	-1.000000	138.620690	0.000000	-1.000000	-1.000000	330221.000000	1772918689.274539
-2662.290000	26667.990000	-16090.290000	-14605.515000	0.000000	0.000000	0.000000	0.000000	54.999620	-25.691268	78.766159	82.099619	-0.000000	-0.000000	0.000000	0.000000	3.799740	0.549360	-1.693860	0.002441	0.906492	0.409362	-1.000000	-1.000000	-1.000000	-1.000000	-1.000000	-1.000000	-1.000000	138.620690	0.000000	-1.000000	-1.000000	330222.000000	1772918689.274542
-2683.170000	26659.440000	-16117.920000	-14635.890000	0.000000	0.000000	0.000000	0.000000	73.152712	2.172297	97.474857	105.677675	-0.000000	-0.000000	0.000000	0.000000	3.799740	0.549360	-1.693860	0.002441	0.906492	0.409362	-1.000000	-1.000000	-1.000000	-1.000000	-1.000000	-1.000000	-1.000000	138.620690	0.000000	-1.000000	-1.000000	330223.000000	1772918689.279302
-2758.455000	26682.120000	-16213.590000	-14729.985000	0.000000	0.000000	0.000000	0.000000	50.693115	25.488867	62.037304	70.807001	-0.000000	-0.000000	0.000000	0.000000	3.799740	0.549360	-1.693860	0.002441	0.906492	0.409362	-1.000000	-1.000000	-1.000000	-1.000000	-1.000000	-1.000000	-1.000000	138.620690	0.000000	-1.000000	-1.000000	330224.000000	1772918689.279306
-2864.340000	26714.520000	-16350.750000	-14871.825000	0.000000	0.000000	0.000000	0.000000	-2.502179	39.927675	-10.175356	-5.236180	-0.000000	-0.000000	0.000000	0.000000	3.799740	0.549360	-1.693860	0.002441	0.906492	0.409362	-1.000000	-1.000000	-1.000000	-1.000000	-1.000000	-1.000000	-1.000000	138.620690	0.000000	-1.000000	-1.000000	330225.000000	1772918689.283410
-2848.365000	26785.395000	-16329.645000	-14855.490000	0.000000	0.000000	0.000000	0.000000	-59.101415	45.283064	-82.284282	-83.324707	-0.000000	-0.000000	0.000000	0.000000	3.799740	0.549360	-1.693860	0.002441	0.906492	0.409362	-1.000000	-1.000000	-1.000000	-1.000000	-1.000000	-1.000000	-1.000000	138.620690	0.000000	-1.000000	-1.000000	330226.000000	1772918689.283413
-2801.925000	26817.435000	-16278.075000	-14798.880000	0.000000	0.000000	0.000000	0.000000	-86.209714	43.785999	-113.489771	-119.640105	-0.000000	-0.000000	0.000000	0.000000	3.799740	0.549360	-1.693860	0.002441	0.906492	0.409362	-1.000000	-1.000000	-1.000000	-1.000000	-1.000000	-1.000000	-1.000000	138.620690	0.000000	-1.000000	-1.000000	330227.000000	1772918689.287361
-2734.380000	26740.980000	-16202.745000	-14715.900000	0.000000	0.000000	0.000000	0.000000	-65.145927	33.740444	-82.790019	-90.610338	-0.000000	-0.000000	0.000000	0.000000	3.799740	0.549360	-1.693860	0.002441	0.906492	0.409362	-1.000000	-1.000000	-1.000000	-1.000000	-1.000000	-1.000000	-1.000000	138.620690	0.000000	-1.000000	-1.000000	330228.000000	1772918689.287363
-2661.615000	26693.685000	-16104.870000	-14606.865000	0.000000	0.000000	0.000000	0.000000	-6.612923	9.744017	-5.989704	-11.147045	-0.000000	-0.000000	0.000000	0.000000	3.372460	0.045780	-0.824040	0.001465	0.911741	0.408202	-1.000000	-1.000000	-1.000000	-1.000000	-1.000000	-1.000000	-1.000000	138.620690	0.000000	-1.000000	-1.000000	330229.000000	1772918689.291381
-2673.630000	26735.580000	-16109.550000	-14613.525000	0.000000	0.000000	0.000000	0.000000	55.597684	-23.715812	74.158468	74.286203	-0.000000	-0.000000	0.000000	0.000000	3.372460	0.045780	-0.824040	0.001465	0.911741	0.408202	-1.000000	-1.000000	-1.000000	-1.000000	-1.000000	-1.000000	-1.000000	138.620690	0.000000	-1.000000	-1.000000	330230.000000	1772918689.291383
-2695.140000	26720.055000	-16137.810000	-14651.190000	0.000000	0.000000	0.000000	0.000000	85.730438	-47.799187	113.560486	117.918175	-0.000000	-0.000000	0.000000	0.000000	3.372460	0.045780	-0.824040	0.001465	0.911741	0.408202	-1.000000	-1.000000	-1.000000	-1.000000	-1.000000	-1.000000	-1.000000	138.620690	0.000000	-1.000000	-1.000000	330231.000000	1772918689.295387
-2737.980000	26747.415000	-16191.405000	-14712.255000	0.000000	0.000000	0.000000	0.000000	68.135981	-47.431376	92.160098	96.633091	-0.000000	-0.000000	0.000000	0.000000	3.372460	0.045780	-0.824040	0.001465	0.911741	0.408202	-1.000000	-1.000000	-1.000000	-1.000000	-1.000000	-1.000000	-1.000000	138.620690	0.000000	-1.000000	-1.000000	330232.000000	1772918689.295390
-2839.095000	26809.110000	-16314.750000	-14843.790000	0.000000	0.000000	0.000000	0.000000	14.763179	-23.809547	23.852710	24.453527	-0.000000	-0.000000	0.000000	0.000000	3.372460	0.045780	-0.824040	0.001465	0.911741	0.408202	-1.000000	-1.000000	-1.000000	-1.000000	-1.000000	-1.000000	-1.000000	138.620690	0.000000	-1.000000	-1.000000	330233.000000	1772918689.299567
-2830.005000	26751.060000	-16304.940000	-14845.455000	0.000000	0.000000	0.000000	0.000000	-45.069466	9.127992	-54.454385	-58.810257	-0.000000	-0.000000	0.000000	0.000000	3.372460	0.045780	-0.824040	0.001465	0.911741	0.408202	-1.000000	-1.000000	-1.000000	-1.000000	-1.000000	-1.000000	-1.000000	138.620690	0.000000	-1.000000	-1.000000	330234.000000	1772918689.299570
-2777.355000	26703.180000	-16238.970000	-14778.315000	0.000000	0.000000	0.000000	0.000000	-78.655720	30.973801	-100.444523	-107.602855	-0.000000	-0.000000	0.000000	0.000000	3.372460	0.045780	-0.824040	0.001465	0.911741	0.408202	-1.000000	-1.000000	-1.000000	-1.000000	-1.000000	-1.000000	-1.000000	138.620690	0.000000	-1.000000	-1.000000	330235.000000	1772918689.302246
-2734.245000	26705.385000	-16187.445000	-14723.280000	0.000000	0.000000	0.000000	0.000000	-66.779724	28.994631	-88.631215	-94.493112	-0.000000	-0.000000	0.000000	0.000000	3.372460	0.045780	-0.824040	0.001465	0.911741	0.408202	-1.000000	-1.000000	-1.000000	-1.000000	-1.000000	-1.000000	-1.000000	138.620690	0.000000	-1.000000	-1.000000	330236.000000	1772918689.302248
-2680.920000	26708.265000	-16110.720000	-14641.470000	0.000000	0.000000	0.000000	0.000000	-17.989584	10.567936	-28.648618	-29.312663	-0.000000	-0.000000	0.000000	0.000000	3.372460	0.045780	-0.824040	0.001465	0.911741	0.408202	-1.000000	-1.000000	-1.000000	-1.000000	-1.000000	-1.000000	-1.000000	138.620690	0.000000	-1.000000	-1.000000	330237.000000	1772918689.306599
-2681.055000	26770.050000	-16099.065000	-14618.430000	0.000000	0.000000	0.000000	0.000000	37.301888	-5.360508	42.117788	48.188316	-0.000000	-0.000000	0.000000	0.000000	3.372460	0.045780	-0.824040	0.001465	0.911741	0.408202	-1.000000	-1.000000	-1.000000	-1.000000	-1.000000	-1.000000	-1.000000	138.620690	0.000000	-1.000000	-1.000000	330238.000000	1772918689.306602
-2695.455000	26852.445000	-16121.520000	-14639.220000	0.000000	0.000000	0.000000	0.000000	67.642483	-4.911085	83.735514	94.873322	-0.000000	-0.000000	0.000000	0.000000	-0.106820	0.213640	-0.595140	0.000244	0.903379	0.405700	-1.000000	-1.000000	-1.000000	-1.000000	-1.000000	-1.000000	-1.000000	138.620690	0.000000	-1.000000	-1.000000	330239.000000	1772918689.310578
-2722.050000	26873.640000	-16157.520000	-14673.600000	0.000000	0.000000	0.000000	0.000000	58.971451	11.127059	76.143952	88.141990	-0.000000	-0.000000	0.000000	0.000000	-0.106820	0.213640	-0.595140	0.000244	0.903379	0.405700	-1.000000	-1.000000	-1.000000	-1.000000	-1.000000	-1.000000	-1.000000	138.620690	0.000000	-1.000000	-1.000000	330240.000000	1772918689.310581
-2797.830000	26864.730000	-16261.110000	-14772.915000	0.000000	0.000000	0.000000	0.000000	19.619669	27.128599	27.283539	35.364289	-0.000000	-0.000000	0.000000	0.000000	-0.106820	0.213640	-0.595140	0.000244	0.903379	0.405700	-1.000000	-1.000000	-1.000000	-1.000000	-1.000000	-1.000000	-1.000000	138.620690	0.000000	-1.000000	-1.000000	330241.000000	1772918689.314557
-2841.615000	26860.770000	-16328.565000	-14851.260000	0.000000	0.000000	0.000000	0.000000	-28.698900	25.827399	-35.964658	-34.858388	-0.000000	-0.000000	0.000000	0.000000	-0.106820	0.213640	-0.595140	0.000244	0.903379	0.405700	-1.000000	-1.000000	-1.000000	-1.000000	-1.000000	-1.000000	-1.000000	138.620690	0.000000	-1.000000	-1.000000	330242.000000	1772918689.314560
-2827.260000	26860.950000	-16299.495000	-14827.050000	0.000000	0.000000	0.000000	0.000000	-61.825310	4.540874	-81.180067	-87.475621	-0.000000	-0.000000	0.000000	0.000000	-0.106820	0.213640	-0.595140	0.000244	0.903379	0.405700	-1.000000	-1.000000	-1.000000	-1.000000	-1.000000	-1.000000	-1.000000	138.620690	0.000000	-1.000000	-1.000000	330243.000000	1772918689.318650
-2820.015000	26890.245000	-16276.995000	-14803.605000	0.000000	0.000000	0.000000	0.000000	-62.786393	-23.165261	-83.524087	-95.040693	-0.000000	-0.000000	0.000000	0.000000	-0.106820	0.213640	-0.595140	0.000244	0.903379	0.405700	-1.000000	-1.000000	-1.000000	-1.000000	-1.000000	-1.000000	-1.000000	138.620690	0.000000	-1.000000	-1.000000	330244.000000	1772918689.318653
-2743.155000	26926.830000	-16188.255000	-14712.930000	0.000000	0.000000	0.000000	0.000000	-30.917830	-39.407960	-40.404932	-52.775758	-0.000000	-0.000000	0.000000	0.000000	-0.106820	0.213640	-0.595140	0.000244	0.903379	0.405700	-1.000000	-1.000000	-1.000000	-1.000000	-1.000000	-1.000000	-1.000000	138.620690	0.000000	-1.000000	-1.000000	330245.000000	1772918689.322603
-2687.175000	27049.095000	-16113.015000	-14629.680000	0.000000	0.000000	0.000000	0.000000	18.287915	-33.569548	26.323552	17.987017	-0.000000	-0.000000	0.000000	0.000000	-0.106820	0.213640	-0.595140	0.000244	0.903379	0.405700	-1.000000	-1.000000	-1.000000	-1.000000	-1.000000	-1.000000	-1.000000	138.620690	0.000000	-1.000000	-1.000000	330246.000000	1772918689.322607
-2722.005000	27154.980000	-16150.230000	-14668.290000	0.000000	0.000000	0.000000	0.000000	60.206329	-6.549245	82.087636	80.779520	-0.000000	-0.000000	0.000000	0.000000	-0.106820	0.213640	-0.595140	0.000244	0.903379	0.405700	-1.000000	-1.000000	-1.000000	-1.000000	-1.000000	-1.000000	-1.000000	138.620690	0.000000	-1.000000	-1.000000	330247.000000	1772918689.329085
-2761.245000	27174.465000	-16194.915000	-14716.485000	0.000000	0.000000	0.000000	0.000000	71.023350	27.461947	95.725946	100.888030	-0.000000	-0.000000	0.000000	0.000000	-0.106820	0.213640	-0.595140	0.000244	0.903379	0.405700	-1.000000	-1.000000	-1.000000	-1.000000	-1.000000	-1.000000	-1.000000	138.620690	0.000000	-1.000000	-1.000000	330248.000000	1772918689.329088
-2805.435000	27186.660000	-16256.790000	-14780.880000	0.000000	0.000000	0.000000	0.000000	43.366081	45.455477	58.596766	66.563960	-0.000000	-0.000000	0.000000	0.000000	4.654300	1.388660	0.183120	0.001587	0.900144	0.411498	-1.000000	-1.000000	-1.000000	-1.000000	-1.000000	-1.000000	-1.000000	138.620690	0.000000	-1.000000	-1.000000	330249.000000	1772918689.330696
-2880.540000	27221.220000	-16348.185000	-14885.685000	0.000000	0.000000	0.000000	0.000000	-7.126227	33.540051	-8.675072	-2.364185	-0.000000	-0.000000	0.000000	0.000000	4.654300	1.388660	0.183120	0.001587	0.900144	0.411498	-1.000000	-1.000000	-1.000000	-1.000000	-1.000000	-1.000000	-1.000000	138.620690	0.000000	-1.000000	-1.000000	330250.000000	1772918689.330699
-2819.970000	27070.245000	-16282.080000	-14828.220000	0.000000	0.000000	0.000000	0.000000	-52.019073	-3.096885	-69.099317	-67.488916	-0.000000	-0.000000	0.000000	0.000000	4.654300	1.388660	0.183120	0.001587	0.900144	0.411498	-1.000000	-1.000000	-1.000000	-1.000000	-1.000000	-1.000000	-1.000000	138.620690	0.000000	-1.000000	-1.000000	330251.000000	1772918689.334602
-2794.455000	26993.880000	-16256.115000	-14796.045000	0.000000	0.000000	0.000000	0.000000	-65.493302	-49.691479	-88.981669	-92.226309	-0.000000	-0.000000	0.000000	0.000000	4.654300	1.388660	0.183120	0.001587	0.900144	0.411498	-1.000000	-1.000000	-1.000000	-1.000000	-1.000000	-1.000000	-1.000000	138.620690	0.000000	-1.000000	-1.000000	330252.000000	1772918689.334604
-2757.150000	26995.185000	-16207.290000	-14743.080000	0.000000	0.000000	0.000000	0.000000	-40.741623	-85.865938	-58.839637	-63.832159	-0.000000	-0.000000	0.000000	0.000000	4.654300	1.388660	0.183120	0.001587	0.900144	0.411498	-1.000000	-1.000000	-1.000000	-1.000000	-1.000000	-1.000000	-1.000000	138.620690	0.000000	-1.000000	-1.000000	330253.000000	1772918689.338527
-2714.850000	27172.800000	-16126.425000	-14657.310000	0.000000	0.000000	0.000000	0.000000	4.853292	-84.989734	0.670500	-1.735783	-0.000000	-0.000000	0.000000	0.000000	4.654300	1.388660	0.183120	0.001587	0.900144	0.411498	-1.000000	-1.000000	-1.000000	-1.000000	-1.000000	-1.000000	-1.000000	138.620690	0.000000	-1.000000	-1.000000	330254.000000	1772918689.338530
-2753.325000	27350.910000	-16167.330000	-14683.680000	0.000000	0.000000	0.000000	0.000000	43.324362	-31.022357	54.997987	57.742140	-0.000000	-0.000000	0.000000	0.000000	4.654300	1.388660	0.183120	0.001587	0.900144	0.411498	-1.000000	-1.000000	-1.000000	-1.000000	-1.000000	-1.000000	-1.000000	138.620690	0.000000	-1.000000	-1.000000	330255.000000	1772918689.366105
-2779.740000	27420.570000	-16205.130000	-14714.865000	0.000000	0.000000	0.000000	0.000000	53.155745	57.500766	74.474745	81.946362	-0.000000	-0.000000	0.000000	0.000000	4.654300	1.388660	0.183120	0.001587	0.900144	0.411498	-1.000000	-1.000000	-1.000000	-1.000000	-1.000000	-1.000000	-1.000000	138.620690	0.000000	-1.000000	-1.000000	330256.000000	1772918689.366110
-2810.970000	27464.940000	-16250.490000	-14764.095000	0.000000	0.000000	0.000000	0.000000	31.118671	129.603539	49.906051	59.000087	-0.000000	-0.000000	0.000000	0.000000	4.654300	1.388660	0.183120	0.001587	0.900144	0.411498	-1.000000	-1.000000	-1.000000	-1.000000	-1.000000	-1.000000	-1.000000	138.620690	0.000000	-1.000000	-1.000000	330257.000000	1772918689.366116
-2877.795000	27387.045000	-16364.565000	-14889.465000	0.000000	0.000000	0.000000	0.000000	-7.464180	137.796377	-2.607430	3.347070	-0.000000	-0.000000	0.000000	0.000000	4.654300	1.388660	0.183120	0.001587	0.900144	0.411498	-1.000000	-1.000000	-1.000000	-1.000000	-1.000000	-1.000000	-1.000000	138.620690	0.000000	-1.000000	-1.000000	330258.000000	1772918689.366118
-2886.525000	27412.020000	-16365.960000	-14898.690000	0.000000	0.000000	0.000000	0.000000	-41.012670	74.039207	-54.088883	-55.395284	-0.000000	-0.000000	0.000000	0.000000	5.844580	1.999060	-0.793520	0.002136	0.904478	0.411925	-1.000000	-1.000000	-1.000000	-1.000000	-1.000000	-1.000000	-1.000000	138.620690	0.000000	-1.000000	-1.000000	330259.000000	1772918689.366515
-2861.685000	27442.800000	-16321.905000	-14852.475000	0.000000	0.000000	0.000000	0.000000	-52.312021	-23.848978	-76.362829	-85.502995	-0.000000	-0.000000	0.000000	0.000000	5.844580	1.999060	-0.793520	0.002136	0.904478	0.411925	-1.000000	-1.000000	-1.000000	-1.000000	-1.000000	-1.000000	-1.000000	138.620690	0.000000	-1.000000	-1.000000	330260.000000	1772918689.366518
-2843.280000	27548.550000	-16290.990000	-14820.615000	0.000000	0.000000	0.000000	0.000000	-35.188667	-98.897437	-55.360252	-68.344003	-0.000000	-0.000000	0.000000	0.000000	5.844580	1.999060	-0.793520	0.002136	0.904478	0.411925	-1.000000	-1.000000	-1.000000	-1.000000	-1.000000	-1.000000	-1.000000	138.620690	0.000000	-1.000000	-1.000000	330261.000000	1772918689.367125
-2739.330000	27532.845000	-16162.470000	-14692.770000	0.000000	0.000000	0.000000	0.000000	2.337938	-115.822695	-1.181909	-11.878552	-0.000000	-0.000000	0.000000	0.000000	5.844580	1.999060	-0.793520	0.002136	0.904478	0.411925	-1.000000	-1.000000	-1.000000	-1.000000	-1.000000	-1.000000	-1.000000	138.620690	0.000000	-1.000000	-1.000000	330262.000000	1772918689.367128
-2698.425000	27436.230000	-16113.285000	-14630.850000	0.000000	0.000000	0.000000	0.000000	43.279923	-83.548954	58.943767	55.133116	-0.000000	-0.000000	0.000000	0.000000	5.844580	1.999060	-0.793520	0.002136	0.904478	0.411925	-1.000000	-1.000000	-1.000000	-1.000000	-1.000000	-1.000000	-1.000000	138.620690	0.000000	-1.000000	-1.000000	330263.000000	1772918689.367132
-2732.580000	27412.605000	-16162.650000	-14670.765000	0.000000	0.000000	0.000000	0.000000	67.393309	-38.443911	93.647460	98.036064	-0.000000	-0.000000	0.000000	0.000000	5.844580	1.999060	-0.793520	0.002136	0.904478	0.411925	-1.000000	-1.000000	-1.000000	-1.000000	-1.000000	-1.000000	-1.000000	138.620690	0.000000	-1.000000	-1.000000	330264.000000	1772918689.367134
-2777.760000	27499.770000	-16221.105000	-14734.530000	0.000000	0.000000	0.000000	0.000000	58.189410	-4.444978	80.436762	90.886194	-0.000000	-0.000000	0.000000	0.000000	5.844580	1.999060	-0.793520	0.002136	0.904478	0.411925	-1.000000	-1.000000	-1.000000	-1.000000	-1.000000	-1.000000	-1.000000	138.620690	0.000000	-1.000000	-1.000000	330265.000000	1772918689.367138
-2860.020000	27587.160000	-16327.530000	-14853.330000	0.000000	0.000000	0.000000	0.000000	15.652375	22.045556	21.676008	32.987544	-0.000000	-0.000000	0.000000	0.000000	5.844580	1.999060	-0.793520	0.002136	0.904478	0.411925	-1.000000	-1.000000	-1.000000	-1.000000	-1.000000	-1.000000	-1.000000	138.620690	0.000000	-1.000000	-1.000000	330266.000000	1772918689.367141
-2933.415000	27711.270000	-16411.590000	-14953.545000	0.000000	0.000000	0.000000	0.000000	-40.513718	50.819738	-53.858446	-47.885564	-0.000000	-0.000000	0.000000	0.000000	5.844580	1.999060	-0.793520	0.002136	0.904478	0.411925	-1.000000	-1.000000	-1.000000	-1.000000	-1.000000	-1.000000	-1.000000	138.620690	0.000000	-1.000000	-1.000000	330267.000000	1772918689.372379
-2926.170000	27763.425000	-16409.565000	-14948.370000	0.000000	0.000000	0.000000	0.000000	-81.533502	77.368781	-107.223177	-109.998450	-0.000000	-0.000000	0.000000	0.000000	5.844580	1.999060	-0.793520	0.002136	0.904478	0.411925	-1.000000	-1.000000	-1.000000	-1.000000	-1.000000	-1.000000	-1.000000	138.620690	0.000000	-1.000000	-1.000000	330268.000000	1772918689.372382
-2867.355000	27772.245000	-16357.185000	-14882.850000	0.000000	0.000000	0.000000	0.000000	-83.584054	84.443809	-108.942280	-118.153661	-0.000000	-0.000000	0.000000	0.000000	11.032980	1.312360	-0.625660	0.000610	0.898130	0.413024	-1.000000	-1.000000	-1.000000	-1.000000	-1.000000	-1.000000	-1.000000	138.620690	0.000000	-1.000000	-1.000000	330269.000000	1772918689.395961
-2777.400000	27770.535000	-16232.400000	-14758.830000	0.000000	0.000000	0.000000	0.000000	-41.224300	58.525941	-54.458033	-63.426341	-0.000000	-0.000000	0.000000	0.000000	11.032980	1.312360	-0.625660	0.000610	0.898130	0.413024	-1.000000	-1.000000	-1.000000	-1.000000	-1.000000	-1.000000	-1.000000	138.620690	0.000000	-1.000000	-1.000000	330270.000000	1772918689.395964
-2705.040000	27779.670000	-16145.505000	-14663.160000	0.000000	0.000000	0.000000	0.000000	26.504031	5.539173	31.812740	28.939151	-0.000000	-0.000000	0.000000	0.000000	11.032980	1.312360	-0.625660	0.000610	0.898130	0.413024	-1.000000	-1.000000	-1.000000	-1.000000	-1.000000	-1.000000	-1.000000	138.620690	0.000000	-1.000000	-1.000000	330271.000000	1772918689.396006
-2723.490000	27682.335000	-16165.080000	-14673.330000	0.000000	0.000000	0.000000	0.000000	84.083281	-52.196853	106.169185	110.754357	-0.000000	-0.000000	0.000000	0.000000	11.032980	1.312360	-0.625660	0.000610	0.898130	0.413024	-1.000000	-1.000000	-1.000000	-1.000000	-1.000000	-1.000000	-1.000000	138.620690	0.000000	-1.000000	-1.000000	330272.000000	1772918689.396009
-2773.440000	27722.520000	-16214.895000	-14719.770000	0.000000	0.000000	0.000000	0.000000	98.569580	-91.484593	127.205235	136.513186	-0.000000	-0.000000	0.000000	0.000000	11.032980	1.312360	-0.625660	0.000610	0.898130	0.413024	-1.000000	-1.000000	-1.000000	-1.000000	-1.000000	-1.000000	-1.000000	138.620690	0.000000	-1.000000	-1.000000	330273.000000	1772918689.396013
-2821.860000	27685.620000	-16290.315000	-14796.090000	0.000000	0.000000	0.000000	0.000000	60.781365	-96.987246	82.170334	91.456870	-0.000000	-0.000000	0.000000	0.000000	11.032980	1.312360	-0.625660	0.000610	0.898130	0.413024	-1.000000	-1.000000	-1.000000	-1.000000	-1.000000	-1.000000	-1.000000	138.620690	0.000000	-1.000000	-1.000000	330274.000000	1772918689.396016
-2857.590000	27585.180000	-16373.520000	-14883.030000	0.000000	0.000000	0.000000	0.000000	-7.305138	-69.236695	-3.959308	0.772247	-0.000000	-0.000000	0.000000	0.000000	11.032980	1.312360	-0.625660	0.000610	0.898130	0.413024	-1.000000	-1.000000	-1.000000	-1.000000	-1.000000	-1.000000	-1.000000	138.620690	0.000000	-1.000000	-1.000000	330275.000000	1772918689.396020
-2833.965000	27555.300000	-16335.675000	-14839.560000	0.000000	0.000000	0.000000	0.000000	-67.082667	-26.435944	-84.340374	-86.329959	-0.000000	-0.000000	0.000000	0.000000	11.032980	1.312360	-0.625660	0.000610	0.898130	0.413024	-1.000000	-1.000000	-1.000000	-1.000000	-1.000000	-1.000000	-1.000000	138.620690	0.000000	-1.000000	-1.000000	330276.000000	1772918689.396022
-2818.395000	27514.710000	-16291.170000	-14800.410000	0.000000	0.000000	0.000000	0.000000	-87.665950	12.537792	-116.235568	-123.723685	-0.000000	-0.000000	0.000000	0.000000	11.032980	1.312360	-0.625660	0.000610	0.898130	0.413024	-1.000000	-1.000000	-1.000000	-1.000000	-1.000000	-1.000000	-1.000000	138.620690	0.000000	-1.000000	-1.000000	330277.000000	1772918689.396026
-2781.225000	27536.805000	-16240.680000	-14750.865000	0.000000	0.000000	0.000000	0.000000	-63.172646	40.858069	-85.724189	-95.294113	-0.000000	-0.000000	0.000000	0.000000	11.032980	1.312360	-0.625660	0.000610	0.898130	0.413024	-1.000000	-1.000000	-1.000000	-1.000000	-1.000000	-1.000000	-1.000000	138.620690	0.000000	-1.000000	-1.000000	330278.000000	1772918689.396028
-2709.180000	27617.400000	-16151.265000	-14634.765000	0.000000	0.000000	0.000000	0.000000	-11.554956	60.704434	-14.706846	-22.389889	-0.000000	-0.000000	0.000000	0.000000	23.683520	0.320460	-0.564620	-0.002563	0.890867	0.423095	-1.000000	-1.000000	-1.000000	-1.000000	-1.000000	-1.000000	-1.000000	138.620690	0.000000	-1.000000	-1.000000	330279.000000	1772918689.396031
-2723.670000	27710.820000	-16146.765000	-14624.415000	0.000000	0.000000	0.000000	0.000000	39.395187	75.872512	56.505998	54.367511	-0.000000	-0.000000	0.000000	0.000000	23.683520	0.320460	-0.564620	-0.002563	0.890867	0.423095	-1.000000	-1.000000	-1.000000	-1.000000	-1.000000	-1.000000	-1.000000	138.620690	0.000000	-1.000000	-1.000000	330280.000000	1772918689.396034
-2735.370000	27724.860000	-16149.645000	-14636.070000	0.000000	0.000000	0.000000	0.000000	64.814142	83.253344	92.157800	96.650881	-0.000000	-0.000000	0.000000	0.000000	23.683520	0.320460	-0.564620	-0.002563	0.890867	0.423095	-1.000000	-1.000000	-1.000000	-1.000000	-1.000000	-1.000000	-1.000000	138.620690	0.000000	-1.000000	-1.000000	330281.000000	1772918689.396037
-2802.105000	27664.830000	-16241.130000	-14743.620000	0.000000	0.000000	0.000000	0.000000	53.488562	70.430911	76.794793	84.231003	-0.000000	-0.000000	0.000000	0.000000	23.683520	0.320460	-0.564620	-0.002563	0.890867	0.423095	-1.000000	-1.000000	-1.000000	-1.000000	-1.000000	-1.000000	-1.000000	138.620690	0.000000	-1.000000	-1.000000	330282.000000	1772918689.396040
-2865.600000	27647.505000	-16353.405000	-14889.195000	0.000000	0.000000	0.000000	0.000000	13.390474	28.812568	19.967175	23.633162	-0.000000	-0.000000	0.000000	0.000000	23.683520	0.320460	-0.564620	-0.002563	0.890867	0.423095	-1.000000	-1.000000	-1.000000	-1.000000	-1.000000	-1.000000	-1.000000	138.620690	0.000000	-1.000000	-1.000000	330283.000000	1772918689.399509
-2855.655000	27680.625000	-16343.955000	-14861.250000	0.000000	0.000000	0.000000	0.000000	-32.475079	-29.133754	-48.318059	-52.829468	-0.000000	-0.000000	0.000000	0.000000	23.683520	0.320460	-0.564620	-0.002563	0.890867	0.423095	-1.000000	-1.000000	-1.000000	-1.000000	-1.000000	-1.000000	-1.000000	138.620690	0.000000	-1.000000	-1.000000	330284.000000	1772918689.399512
-2868.840000	27757.395000	-16346.925000	-14841.495000	0.000000	0.000000	0.000000	0.000000	-57.924094	-73.080094	-89.779867	-99.511734	-0.000000	-0.000000	0.000000	0.000000	23.683520	0.320460	-0.564620	-0.002563	0.890867	0.423095	-1.000000	-1.000000	-1.000000	-1.000000	-1.000000	-1.000000	-1.000000	138.620690	0.000000	-1.000000	-1.000000	330285.000000	1772918689.403526
-2885.175000	27811.485000	-16335.450000	-14829.210000	0.000000	0.000000	0.000000	0.000000	-50.656212	-79.174045	-81.553806	-87.750585	-0.000000	-0.000000	0.000000	0.000000	23.683520	0.320460	-0.564620	-0.002563	0.890867	0.423095	-1.000000	-1.000000	-1.000000	-1.000000	-1.000000	-1.000000	-1.000000	138.620690	0.000000	-1.000000	-1.000000	330286.000000	1772918689.403528
-2765.115000	27791.550000	-16192.530000	-14717.340000	0.000000	0.000000	0.000000	0.000000	-17.341578	-50.352167	-29.927711	-26.948543	-0.000000	-0.000000	0.000000	0.000000	23.683520	0.320460	-0.564620	-0.002563	0.890867	0.423095	-1.000000	-1.000000	-1.000000	-1.000000	-1.000000	-1.000000	-1.000000	138.620690	0.000000	-1.000000	-1.000000	330287.000000	1772918689.407627
-2714.130000	27783.720000	-16134.570000	-14667.615000	0.000000	0.000000	0.000000	0.000000	27.095729	-12.253806	39.552458	48.448456	-0.000000	-0.000000	0.000000	0.000000	23.683520	0.320460	-0.564620	-0.002563	0.890867	0.423095	-1.000000	-1.000000	-1.000000	-1.000000	-1.000000	-1.000000	-1.000000	138.620690	0.000000	-1.000000	-1.000000	330288.000000	1772918689.407629
-2728.260000	27710.460000	-16147.530000	-14679.045000	0.000000	0.000000	0.000000	0.000000	63.383504	9.598072	93.283267	100.522926	-0.000000	-0.000000	0.000000	0.000000	45.596880	-2.365300	1.815940	-0.005371	0.886472	0.428344	-1.000000	-1.000000	-1.000000	-1.000000	-1.000000	-1.000000	-1.000000	138.620690	0.000000	-1.000000	-1.000000	330289.000000	1772918689.413417
-2757.330000	27666.405000	-16186.230000	-14706.855000	0.000000	0.000000	0.000000	0.000000	70.484429	6.961807	101.391799	103.253876	-0.000000	-0.000000	0.000000	0.000000	45.596880	-2.365300	1.815940	-0.005371	0.886472	0.428344	-1.000000	-1.000000	-1.000000	-1.000000	-1.000000	-1.000000	-1.000000	138.620690	0.000000	-1.000000	-1.000000	330290.000000	1772918689.413420
-2859.570000	27643.545000	-16331.895000	-14847.750000	0.000000	0.000000	0.000000	0.000000	39.836339	-9.762777	55.871065	54.633091	-0.000000	-0.000000	0.000000	0.000000	45.596880	-2.365300	1.815940	-0.005371	0.886472	0.428344	-1.000000	-1.000000	-1.000000	-1.000000	-1.000000	-1.000000	-1.000000	138.620690	0.000000	-1.000000	-1.000000	330291.000000	1772918689.415635
-2862.765000	27656.370000	-16348.725000	-14867.370000	0.000000	0.000000	0.000000	0.000000	-14.826601	-21.149727	-21.723560	-21.945551	-0.000000	-0.000000	0.000000	0.000000	45.596880	-2.365300	1.815940	-0.005371	0.886472	0.428344	-1.000000	-1.000000	-1.000000	-1.000000	-1.000000	-1.000000	-1.000000	138.620690	0.000000	-1.000000	-1.000000	330292.000000	1772918689.415638
-2845.530000	27736.785000	-16314.435000	-14828.940000	0.000000	0.000000	0.000000	0.000000	-62.681072	-12.466443	-88.476203	-86.108686	-0.000000	-0.000000	0.000000	0.000000	45.596880	-2.365300	1.815940	-0.005371	0.886472	0.428344	-1.000000	-1.000000	-1.000000	-1.000000	-1.000000	-1.000000	-1.000000	138.620690	0.000000	-1.000000	-1.000000	330293.000000	1772918689.419707
-2832.570000	27770.130000	-16290.360000	-14791.815000	0.000000	0.000000	0.000000	0.000000	-75.628638	16.550595	-105.333719	-101.609351	-0.000000	-0.000000	0.000000	0.000000	45.596880	-2.365300	1.815940	-0.005371	0.886472	0.428344	-1.000000	-1.000000	-1.000000	-1.000000	-1.000000	-1.000000	-1.000000	138.620690	0.000000	-1.000000	-1.000000	330294.000000	1772918689.419709
-2760.030000	27740.205000	-16182.855000	-14668.560000	0.000000	0.000000	0.000000	0.000000	-48.233045	48.928991	-64.670751	-61.143926	-0.000000	-0.000000	0.000000	0.000000	45.596880	-2.365300	1.815940	-0.005371	0.886472	0.428344	-1.000000	-1.000000	-1.000000	-1.000000	-1.000000	-1.000000	-1.000000	138.620690	0.000000	-1.000000	-1.000000	330295.000000	1772918689.423735
-2666.880000	27728.910000	-16067.745000	-14534.955000	0.000000	0.000000	0.000000	0.000000	3.171342	60.897713	9.268327	12.184380	-0.000000	-0.000000	0.000000	0.000000	45.596880	-2.365300	1.815940	-0.005371	0.886472	0.428344	-1.000000	-1.000000	-1.000000	-1.000000	-1.000000	-1.000000	-1.000000	138.620690	0.000000	-1.000000	-1.000000	330296.000000	1772918689.423737
-2696.130000	27782.505000	-16107.930000	-14584.770000	0.000000	0.000000	0.000000	0.000000	52.060810	43.614489	77.132441	79.179719	-0.000000	-0.000000	0.000000	0.000000	45.596880	-2.365300	1.815940	-0.005371	0.886472	0.428344	-1.000000	-1.000000	-1.000000	-1.000000	-1.000000	-1.000000	-1.000000	138.620690	0.000000	-1.000000	-1.000000	330297.000000	1772918689.427706
-2758.365000	27849.285000	-16196.220000	-14712.390000	0.000000	0.000000	0.000000	0.000000	70.929947	11.779476	100.211731	99.000028	-0.000000	-0.000000	0.000000	0.000000	45.596880	-2.365300	1.815940	-0.005371	0.886472	0.428344	-1.000000	-1.000000	-1.000000	-1.000000	-1.000000	-1.000000	-1.000000	138.620690	0.000000	-1.000000	-1.000000	330298.000000	1772918689.427708
-2803.770000	27812.205000	-16274.835000	-14797.890000	0.000000	0.000000	0.000000	0.000000	46.997256	-14.281311	62.719723	54.188172	-0.000000	-0.000000	0.000000	0.000000	64.931300	-4.578000	-2.609460	-0.007019	0.874143	0.424865	-1.000000	-1.000000	-1.000000	-1.000000	-1.000000	-1.000000	-1.000000	138.620690	0.000000	-1.000000	-1.000000	330299.000000	1772918689.431767
-2805.435000	27682.470000	-16291.710000	-14815.305000	0.000000	0.000000	0.000000	0.000000	-4.372984	-30.752209	-12.139027	-28.554224	-0.000000	-0.000000	0.000000	0.000000	64.931300	-4.578000	-2.609460	-0.007019	0.874143	0.424865	-1.000000	-1.000000	-1.000000	-1.000000	-1.000000	-1.000000	-1.000000	138.620690	0.000000	-1.000000	-1.000000	330300.000000	1772918689.431770
-2768.490000	27569.295000	-16243.155000	-14768.325000	0.000000	0.000000	0.000000	0.000000	-49.138304	-47.316171	-76.058871	-94.183307	-0.000000	-0.000000	0.000000	0.000000	64.931300	-4.578000	-2.609460	-0.007019	0.874143	0.424865	-1.000000	-1.000000	-1.000000	-1.000000	-1.000000	-1.000000	-1.000000	138.620690	0.000000	-1.000000	-1.000000	330301.000000	1772918689.435727
-2766.285000	27511.560000	-16227.765000	-14749.200000	0.000000	0.000000	0.000000	0.000000	-60.734993	-65.146891	-90.796483	-101.609426	-0.000000	-0.000000	0.000000	0.000000	64.931300	-4.578000	-2.609460	-0.007019	0.874143	0.424865	-1.000000	-1.000000	-1.000000	-1.000000	-1.000000	-1.000000	-1.000000	138.620690	0.000000	-1.000000	-1.000000	330302.000000	1772918689.435730
-2713.770000	27499.950000	-16165.215000	-14684.265000	0.000000	0.000000	0.000000	0.000000	-37.450675	-69.034366	-53.405799	-51.340159	-0.000000	-0.000000	0.000000	0.000000	64.931300	-4.578000	-2.609460	-0.007019	0.874143	0.424865	-1.000000	-1.000000	-1.000000	-1.000000	-1.000000	-1.000000	-1.000000	138.620690	0.000000	-1.000000	-1.000000	330303.000000	1772918689.439716
-2674.980000	27595.395000	-16089.165000	-14582.070000	0.000000	0.000000	0.000000	0.000000	2.849129	-42.263754	9.339266	23.830388	-0.000000	-0.000000	0.000000	0.000000	64.931300	-4.578000	-2.609460	-0.007019	0.874143	0.424865	-1.000000	-1.000000	-1.000000	-1.000000	-1.000000	-1.000000	-1.000000	138.620690	0.000000	-1.000000	-1.000000	330304.000000	1772918689.439719
-2690.415000	27714.555000	-16119.855000	-14604.300000	0.000000	0.000000	0.000000	0.000000	37.242381	16.366456	62.411243	84.412848	-0.000000	-0.000000	0.000000	0.000000	64.931300	-4.578000	-2.609460	-0.007019	0.874143	0.424865	-1.000000	-1.000000	-1.000000	-1.000000	-1.000000	-1.000000	-1.000000	138.620690	0.000000	-1.000000	-1.000000	330305.000000	1772918689.443331
-2756.655000	27671.805000	-16244.730000	-14692.230000	0.000000	0.000000	0.000000	0.000000	47.214833	83.896248	76.847957	99.789335	-0.000000	-0.000000	0.000000	0.000000	64.931300	-4.578000	-2.609460	-0.007019	0.874143	0.424865	-1.000000	-1.000000	-1.000000	-1.000000	-1.000000	-1.000000	-1.000000	138.620690	0.000000	-1.000000	-1.000000	330306.000000	1772918689.443335
-2767.815000	27688.230000	-16382.880000	-14761.170000	0.000000	0.000000	0.000000	0.000000	27.719708	121.400402	41.660449	60.716871	-0.000000	-0.000000	0.000000	0.000000	64.931300	-4.578000	-2.609460	-0.007019	0.874143	0.424865	-1.000000	-1.000000	-1.000000	-1.000000	-1.000000	-1.000000	-1.000000	138.620690	0.000000	-1.000000	-1.000000	330307.000000	1772918689.450397
-2825.235000	27737.865000	-16614.900000	-14879.835000	0.000000	0.000000	0.000000	0.000000	-7.921229	105.565866	-27.527686	-12.073752	-0.000000	-0.000000	0.000000	0.000000	64.931300	-4.578000	-2.609460	-0.007019	0.874143	0.424865	-1.000000	-1.000000	-1.000000	-1.000000	-1.000000	-1.000000	-1.000000	138.620690	0.000000	-1.000000	-1.000000	330308.000000	1772918689.450400
-2840.355000	27716.625000	-16634.430000	-14905.980000	0.000000	0.000000	0.000000	0.000000	-38.000003	48.396757	-93.759883	-79.326240	-0.000000	-0.000000	0.000000	0.000000	75.750640	-3.341940	-2.472120	-0.000793	0.866941	0.409240	-1.000000	-1.000000	-1.000000	-1.000000	-1.000000	-1.000000	-1.000000	138.620690	0.000000	-1.000000	-1.000000	330309.000000	1772918689.462160
-2817.315000	27729.000000	-16523.955000	-14893.065000	0.000000	0.000000	0.000000	0.000000	-46.361044	-19.327191	-112.833812	-105.383828	-0.000000	-0.000000	0.000000	0.000000	75.750640	-3.341940	-2.472120	-0.000793	0.866941	0.409240	-1.000000	-1.000000	-1.000000	-1.000000	-1.000000	-1.000000	-1.000000	138.620690	0.000000	-1.000000	-1.000000	330310.000000	1772918689.462163
-2731.455000	27825.345000	-16317.315000	-14778.675000	0.000000	0.000000	0.000000	0.000000	-27.635436	-68.502098	-57.675271	-75.055677	-0.000000	-0.000000	0.000000	0.000000	75.750640	-3.341940	-2.472120	-0.000793	0.866941	0.409240	-1.000000	-1.000000	-1.000000	-1.000000	-1.000000	-1.000000	-1.000000	138.620690	0.000000	-1.000000	-1.000000	330311.000000	1772918689.462167
-2664.765000	27827.145000	-16092.495000	-14591.340000	0.000000	0.000000	0.000000	0.000000	11.302867	-81.658827	55.783146	0.528808	-0.000000	-0.000000	0.000000	0.000000	75.750640	-3.341940	-2.472120	-0.000793	0.866941	0.409240	-1.000000	-1.000000	-1.000000	-1.000000	-1.000000	-1.000000	-1.000000	138.620690	0.000000	-1.000000	-1.000000	330312.000000	1772918689.462169
-2689.290000	27835.155000	-15973.560000	-14526.270000	0.000000	0.000000	0.000000	0.000000	50.457335	-62.517049	169.977924	87.666053	-0.000000	-0.000000	0.000000	0.000000	75.750640	-3.341940	-2.472120	-0.000793	0.866941	0.409240	-1.000000	-1.000000	-1.000000	-1.000000	-1.000000	-1.000000	-1.000000	138.620690	0.000000	-1.000000	-1.000000	330313.000000	1772918689.473054
-2746.935000	27854.235000	-16041.825000	-14600.790000	0.000000	0.000000	0.000000	0.000000	64.134979	-31.062647	216.115059	139.205907	-0.000000	-0.000000	0.000000	0.000000	75.750640	-3.341940	-2.472120	-0.000793	0.866941	0.409240	-1.000000	-1.000000	-1.000000	-1.000000	-1.000000	-1.000000	-1.000000	138.620690	0.000000	-1.000000	-1.000000	330314.000000	1772918689.473058
-2833.920000	27814.050000	-16164.900000	-14691.510000	0.000000	0.000000	0.000000	0.000000	39.060330	-5.759932	154.775931	118.416087	-0.000000	-0.000000	0.000000	0.000000	75.750640	-3.341940	-2.472120	-0.000793	0.866941	0.409240	-1.000000	-1.000000	-1.000000	-1.000000	-1.000000	-1.000000	-1.000000	138.620690	0.000000	-1.000000	-1.000000	330315.000000	1772918689.473062
-2865.330000	27711.630000	-16296.390000	-14762.340000	0.000000	0.000000	0.000000	0.000000	-12.571692	3.494439	5.791202	30.067440	-0.000000	-0.000000	0.000000	0.000000	75.750640	-3.341940	-2.472120	-0.000793	0.866941	0.409240	-1.000000	-1.000000	-1.000000	-1.000000	-1.000000	-1.000000	-1.000000	138.620690	0.000000	-1.000000	-1.000000	330316.000000	1772918689.473065
-2858.130000	27483.345000	-16368.615000	-14796.180000	0.000000	0.000000	0.000000	0.000000	-59.349132	-7.410273	-158.036024	-77.141780	-0.000000	-0.000000	0.000000	0.000000	75.750640	-3.341940	-2.472120	-0.000793	0.866941	0.409240	-1.000000	-1.000000	-1.000000	-1.000000	-1.000000	-1.000000	-1.000000	138.620690	0.000000	-1.000000	-1.000000	330317.000000	1772918689.473068
-2824.695000	27435.510000	-16450.470000	-14812.740000	0.000000	0.000000	0.000000	0.000000	-72.115037	-32.785953	-255.421403	-144.624169	-0.000000	-0.000000	0.000000	0.000000	75.750640	-3.341940	-2.472120	-0.000793	0.866941	0.409240	-1.000000	-1.000000	-1.000000	-1.000000	-1.000000	-1.000000	-1.000000	138.620690	0.000000	-1.000000	-1.000000	330318.000000	1772918689.473071
-2674.980000	27406.485000	-16444.710000	-14708.835000	0.000000	0.000000	0.000000	0.000000	-41.947774	-50.090384	-244.380970	-139.911300	-0.000000	-0.000000	0.000000	0.000000	76.940920	-5.264700	-5.615680	-0.002380	0.912595	0.396483	-1.000000	-1.000000	-1.000000	-1.000000	-1.000000	-1.000000	-1.000000	138.620690	0.000000	-1.000000	-1.000000	330319.000000	1772918689.473074
-2563.110000	27448.695000	-16415.190000	-14597.100000	0.000000	0.000000	0.000000	0.000000	17.680824	-33.571967	-137.994402	-68.327094	-0.000000	-0.000000	0.000000	0.000000	76.940920	-5.264700	-5.615680	-0.002380	0.912595	0.396483	-1.000000	-1.000000	-1.000000	-1.000000	-1.000000	-1.000000	-1.000000	138.620690	0.000000	-1.000000	-1.000000	330320.000000	1772918689.473077
-2545.200000	27635.580000	-16347.015000	-14563.215000	0.000000	0.000000	0.000000	0.000000	76.009715	22.343583	11.978205	32.725588	-0.000000	-0.000000	0.000000	0.000000	76.940920	-5.264700	-5.615680	-0.002380	0.912595	0.396483	-1.000000	-1.000000	-1.000000	-1.000000	-1.000000	-1.000000	-1.000000	138.620690	0.000000	-1.000000	-1.000000	330321.000000	1772918689.481138
-2545.200000	27635.580000	-16347.015000	-14563.215000	0.000000	0.000000	0.000000	0.000000	97.684333	95.947331	142.643525	110.622691	-0.000000	-0.000000	0.000000	0.000000	76.940920	-5.264700	-5.615680	-0.002380	0.912595	0.396483	-1.000000	-1.000000	-1.000000	-1.000000	-1.000000	-1.000000	-1.000000	138.620690	0.000000	-1.000000	-1.000000	330322.000000	1772918689.481140
-2545.200000	27635.580000	-16347.015000	-14563.215000	0.000000	0.000000	0.000000	0.000000	67.083210	145.204459	205.617259	127.460848	-0.000000	-0.000000	0.000000	0.000000	76.940920	-5.264700	-5.615680	-0.002380	0.912595	0.396483	-1.000000	-1.000000	-1.000000	-1.000000	-1.000000	-1.000000	-1.000000	138.620690	0.000000	-1.000000	-1.000000	330323.000000	1772918689.481142
-2545.200000	27635.580000	-16347.015000	-14563.215000	0.000000	0.000000	0.000000	0.000000	1.356133	134.570027	186.083850	82.987854	-0.000000	-0.000000	0.000000	0.000000	76.940920	-5.264700	-5.615680	-0.002380	0.912595	0.396483	-1.000000	-1.000000	-1.000000	-1.000000	-1.000000	-1.000000	-1.000000	138.620690	0.000000	-1.000000	-1.000000	330324.000000	1772918689.481144
-2873.070000	27660.240000	-16575.030000	-14897.925000	0.000000	0.000000	0.000000	0.000000	-69.389169	66.123032	102.302536	3.148506	-0.000000	-0.000000	0.000000	0.000000	76.940920	-5.264700	-5.615680	-0.002380	0.912595	0.396483	-1.000000	-1.000000	-1.000000	-1.000000	-1.000000	-1.000000	-1.000000	138.620690	0.000000	-1.000000	-1.000000	330327.000000	1772918689.490908
-2780.595000	27683.055000	-16450.155000	-14819.805000	0.000000	0.000000	0.000000	0.000000	-122.554877	-23.122461	-7.272306	-80.839951	-0.000000	-0.000000	0.000000	0.000000	76.940920	-5.264700	-5.615680	-0.002380	0.912595	0.396483	-1.000000	-1.000000	-1.000000	-1.000000	-1.000000	-1.000000	-1.000000	138.620690	0.000000	-1.000000	-1.000000	330328.000000	1772918689.490911
-2693.835000	27687.690000	-16272.585000	-14714.640000	0.000000	0.000000	0.000000	0.000000	-132.452710	-91.261703	-88.790047	-127.991846	-0.000000	-0.000000	0.000000	0.000000	76.940920	-5.264700	-5.615680	-0.002380	0.912595	0.396483	-1.000000	-1.000000	-1.000000	-1.000000	-1.000000	-1.000000	-1.000000	138.620690	0.000000	-1.000000	-1.000000	330329.000000	1772918689.490915
-2635.605000	27632.745000	-16246.170000	-14632.155000	0.000000	0.000000	0.000000	0.000000	-78.890581	-117.408273	-100.127572	-102.614091	-0.000000	-0.000000	0.000000	0.000000	76.940920	-5.264700	-5.615680	-0.002380	0.912595	0.396483	-1.000000	-1.000000	-1.000000	-1.000000	-1.000000	-1.000000	-1.000000	138.620690	0.000000	-1.000000	-1.000000	330330.000000	1772918689.490917
-2723.355000	27613.935000	-16258.140000	-14613.030000	0.000000	0.000000	0.000000	0.000000	16.096275	-105.942015	-52.772477	-16.261599	-0.000000	-0.000000	0.000000	0.000000	51.929780	8.316700	8.545600	0.002625	0.983335	0.360229	-1.000000	-1.000000	-1.000000	-1.000000	-1.000000	-1.000000	-1.000000	138.620690	0.000000	-1.000000	-1.000000	330331.000000	1772918689.496211
-2772.585000	27538.020000	-16404.840000	-14743.350000	0.000000	0.000000	0.000000	0.000000	95.115708	-73.325387	-0.936863	72.699335	-0.000000	-0.000000	0.000000	0.000000	51.929780	8.316700	8.545600	0.002625	0.983335	0.360229	-1.000000	-1.000000	-1.000000	-1.000000	-1.000000	-1.000000	-1.000000	138.620690	0.000000	-1.000000	-1.000000	330332.000000	1772918689.496214
-2846.790000	27493.155000	-16710.255000	-14928.570000	0.000000	0.000000	0.000000	0.000000	115.243686	-35.568763	6.863838	104.218227	-0.000000	-0.000000	0.000000	0.000000	51.929780	8.316700	8.545600	0.002625	0.983335	0.360229	-1.000000	-1.000000	-1.000000	-1.000000	-1.000000	-1.000000	-1.000000	138.620690	0.000000	-1.000000	-1.000000	330333.000000	1772918689.499966
-2850.930000	27514.890000	-16960.545000	-14961.195000	0.000000	0.000000	0.000000	0.000000	78.468055	-1.371512	-39.698394	62.377545	-0.000000	-0.000000	0.000000	0.000000	51.929780	8.316700	8.545600	0.002625	0.983335	0.360229	-1.000000	-1.000000	-1.000000	-1.000000	-1.000000	-1.000000	-1.000000	138.620690	0.000000	-1.000000	-1.000000	330334.000000	1772918689.499969
-2776.140000	27529.560000	-16950.015000	-14850.450000	0.000000	0.000000	0.000000	0.000000	21.565549	28.995329	-102.345288	-10.347010	-0.000000	-0.000000	0.000000	0.000000	51.929780	8.316700	8.545600	0.002625	0.983335	0.360229	-1.000000	-1.000000	-1.000000	-1.000000	-1.000000	-1.000000	-1.000000	138.620690	0.000000	-1.000000	-1.000000	330335.000000	1772918689.504942
-2704.320000	27616.995000	-16572.915000	-14710.590000	0.000000	0.000000	0.000000	0.000000	-15.017771	56.562690	-110.731181	-49.459121	-0.000000	-0.000000	0.000000	0.000000	51.929780	8.316700	8.545600	0.002625	0.983335	0.360229	-1.000000	-1.000000	-1.000000	-1.000000	-1.000000	-1.000000	-1.000000	138.620690	0.000000	-1.000000	-1.000000	330336.000000	1772918689.504945
-2550.465000	27719.460000	-16011.675000	-14435.640000	0.000000	0.000000	0.000000	0.000000	-13.902373	78.553714	-12.455590	-22.566191	-0.000000	-0.000000	0.000000	0.000000	51.929780	8.316700	8.545600	0.002625	0.983335	0.360229	-1.000000	-1.000000	-1.000000	-1.000000	-1.000000	-1.000000	-1.000000	138.620690	0.000000	-1.000000	-1.000000	330337.000000	1772918689.507950
-2823.525000	27849.060000	-15976.800000	-14550.795000	0.000000	0.000000	0.000000	0.000000	7.573703	89.691913	164.061620	45.746422	-0.000000	-0.000000	0.000000	0.000000	51.929780	8.316700	8.545600	0.002625	0.983335	0.360229	-1.000000	-1.000000	-1.000000	-1.000000	-1.000000	-1.000000	-1.000000	138.620690	0.000000	-1.000000	-1.000000	330338.000000	1772918689.507952
-3016.485000	27938.430000	-16042.050000	-14714.820000	0.000000	0.000000	0.000000	0.000000	7.383553	84.007085	299.312155	88.902185	-0.000000	-0.000000	0.000000	0.000000	51.929780	8.316700	8.545600	0.002625	0.983335	0.360229	-1.000000	-1.000000	-1.000000	-1.000000	-1.000000	-1.000000	-1.000000	138.620690	0.000000	-1.000000	-1.000000	330339.000000	1772918689.512004
-3038.085000	27970.605000	-15995.790000	-14713.425000	0.000000	0.000000	0.000000	0.000000	-34.926016	56.597927	279.668667	57.191775	-0.000000	-0.000000	0.000000	0.000000	51.929780	8.316700	8.545600	0.002625	0.983335	0.360229	-1.000000	-1.000000	-1.000000	-1.000000	-1.000000	-1.000000	-1.000000	138.620690	0.000000	-1.000000	-1.000000	330340.000000	1772918689.512007
-2987.820000	27920.295000	-16093.215000	-14864.715000	0.000000	0.000000	0.000000	0.000000	-84.180361	6.767415	104.778917	-31.523817	-0.000000	-0.000000	0.000000	0.000000	-7.355320	32.168080	8.255660	0.027039	1.044736	0.322997	-1.000000	-1.000000	-1.000000	-1.000000	-1.000000	-1.000000	-1.000000	138.620690	0.000000	-1.000000	-1.000000	330341.000000	1772918689.516020
-2846.790000	27924.840000	-15940.890000	-14740.785000	0.000000	0.000000	0.000000	0.000000	-85.828532	-56.036064	-121.242469	-113.649582	-0.000000	-0.000000	0.000000	0.000000	-7.355320	32.168080	8.255660	0.027039	1.044736	0.322997	-1.000000	-1.000000	-1.000000	-1.000000	-1.000000	-1.000000	-1.000000	138.620690	0.000000	-1.000000	-1.000000	330342.000000	1772918689.516022
-2887.065000	27935.955000	-15950.565000	-14730.525000	0.000000	0.000000	0.000000	0.000000	-25.668015	-108.911630	-276.583137	-133.910982	-0.000000	-0.000000	0.000000	0.000000	-7.355320	32.168080	8.255660	0.027039	1.044736	0.322997	-1.000000	-1.000000	-1.000000	-1.000000	-1.000000	-1.000000	-1.000000	138.620690	0.000000	-1.000000	-1.000000	330343.000000	1772918689.519899
-2927.340000	27900.180000	-16379.145000	-14819.535000	0.000000	0.000000	0.000000	0.000000	55.263662	-127.613615	-307.505072	-83.873987	-0.000000	-0.000000	0.000000	0.000000	-7.355320	32.168080	8.255660	0.027039	1.044736	0.322997	-1.000000	-1.000000	-1.000000	-1.000000	-1.000000	-1.000000	-1.000000	138.620690	0.000000	-1.000000	-1.000000	330344.000000	1772918689.519902
-2829.690000	27855.315000	-16711.740000	-14814.945000	0.000000	0.000000	0.000000	0.000000	102.918008	-105.997932	-252.560002	-4.008159	-0.000000	-0.000000	0.000000	0.000000	-7.355320	32.168080	8.255660	0.027039	1.044736	0.322997	-1.000000	-1.000000	-1.000000	-1.000000	-1.000000	-1.000000	-1.000000	138.620690	0.000000	-1.000000	-1.000000	330345.000000	1772918689.523919
-2578.680000	27952.200000	-16670.520000	-14732.100000	0.000000	0.000000	0.000000	0.000000	103.013259	-55.896132	-168.818216	60.194028	-0.000000	-0.000000	0.000000	0.000000	-7.355320	32.168080	8.255660	0.027039	1.044736	0.322997	-1.000000	-1.000000	-1.000000	-1.000000	-1.000000	-1.000000	-1.000000	138.965517	0.000000	-1.000000	-1.000000	330346.000000	1772918689.523922
-2383.695000	27991.530000	-16593.435000	-14700.465000	0.000000	0.000000	0.000000	0.000000	81.103911	7.150707	-62.937035	91.841678	-0.000000	-0.000000	0.000000	0.000000	-7.355320	32.168080	8.255660	0.027039	1.044736	0.322997	-1.000000	-1.000000	-1.000000	-1.000000	-1.000000	-1.000000	-1.000000	138.965517	0.000000	-1.000000	-1.000000	330347.000000	1772918689.528021
-2512.170000	27959.985000	-16399.845000	-14609.340000	0.000000	0.000000	0.000000	0.000000	54.709377	64.622950	77.470586	94.085639	-0.000000	-0.000000	0.000000	0.000000	-7.355320	32.168080	8.255660	0.027039	1.044736	0.322997	-1.000000	-1.000000	-1.000000	-1.000000	-1.000000	-1.000000	-1.000000	138.965517	0.000000	-1.000000	-1.000000	330348.000000	1772918689.528024
-2714.805000	27948.150000	-16298.640000	-14723.505000	0.000000	0.000000	0.000000	0.000000	7.425001	93.897423	226.980662	72.068447	-0.000000	-0.000000	0.000000	0.000000	-7.355320	32.168080	8.255660	0.027039	1.044736	0.322997	-1.000000	-1.000000	-1.000000	-1.000000	-1.000000	-1.000000	-1.000000	138.965517	0.000000	-1.000000	-1.000000	330349.000000	1772918689.531990
-2831.040000	27909.990000	-16174.980000	-14782.815000	0.000000	0.000000	0.000000	0.000000	-74.809850	83.491095	324.923236	27.387049	-0.000000	-0.000000	0.000000	0.000000	-7.355320	32.168080	8.255660	0.027039	1.044736	0.322997	-1.000000	-1.000000	-1.000000	-1.000000	-1.000000	-1.000000	-1.000000	138.965517	0.000000	-1.000000	-1.000000	330350.000000	1772918689.531993
-2999.430000	27799.470000	-15989.490000	-14703.570000	0.000000	0.000000	0.000000	0.000000	-163.630631	41.747661	323.070055	-28.940036	-0.000000	-0.000000	0.000000	0.000000	-54.768140	18.632460	28.734580	0.040832	1.143613	0.348083	-1.000000	-1.000000	-1.000000	-1.000000	-1.000000	-1.000000	-1.000000	138.965517	0.000000	-1.000000	-1.000000	330351.000000	1772918689.535932
-3099.015000	27782.145000	-16276.995000	-14884.830000	0.000000	0.000000	0.000000	0.000000	-207.310840	-10.691612	215.676195	-72.354614	-0.000000	-0.000000	0.000000	0.000000	-54.768140	18.632460	28.734580	0.040832	1.143613	0.348083	-1.000000	-1.000000	-1.000000	-1.000000	-1.000000	-1.000000	-1.000000	138.965517	0.000000	-1.000000	-1.000000	330352.000000	1772918689.535936
-2666.655000	27757.935000	-16368.120000	-14788.530000	0.000000	0.000000	0.000000	0.000000	-165.868247	-49.137103	31.521308	-85.866218	-0.000000	-0.000000	0.000000	0.000000	-54.768140	18.632460	28.734580	0.040832	1.143613	0.348083	-1.000000	-1.000000	-1.000000	-1.000000	-1.000000	-1.000000	-1.000000	138.965517	0.000000	-1.000000	-1.000000	330353.000000	1772918689.539959
-2466.945000	27771.525000	-16330.185000	-14653.170000	0.000000	0.000000	0.000000	0.000000	-29.793601	-55.603406	-165.553951	-64.136424	-0.000000	-0.000000	0.000000	0.000000	-54.768140	18.632460	28.734580	0.040832	1.143613	0.348083	-1.000000	-1.000000	-1.000000	-1.000000	-1.000000	-1.000000	-1.000000	138.965517	0.000000	-1.000000	-1.000000	330354.000000	1772918689.539962
-2746.620000	27811.800000	-16618.140000	-14694.930000	0.000000	0.000000	0.000000	0.000000	144.133902	-29.462658	-293.694746	-11.764202	-0.000000	-0.000000	0.000000	0.000000	-54.768140	18.632460	28.734580	0.040832	1.143613	0.348083	-1.000000	-1.000000	-1.000000	-1.000000	-1.000000	-1.000000	-1.000000	138.965517	0.000000	-1.000000	-1.000000	330355.000000	1772918689.544023
-2956.905000	27762.120000	-16898.535000	-14859.180000	0.000000	0.000000	0.000000	0.000000	240.603822	12.288434	-314.694836	41.146903	-0.000000	-0.000000	0.000000	0.000000	-54.768140	18.632460	28.734580	0.040832	1.143613	0.348083	-1.000000	-1.000000	-1.000000	-1.000000	-1.000000	-1.000000	-1.000000	138.965517	0.000000	-1.000000	-1.000000	330356.000000	1772918689.544026
-2960.955000	27754.245000	-16521.795000	-14743.755000	0.000000	0.000000	0.000000	0.000000	191.956831	44.392264	-239.569014	58.482900	-0.000000	-0.000000	0.000000	0.000000	-54.768140	18.632460	28.734580	0.040832	1.143613	0.348083	-1.000000	-1.000000	-1.000000	-1.000000	-1.000000	-1.000000	-1.000000	138.965517	0.000000	-1.000000	-1.000000	330357.000000	1772918689.547191
-2889.810000	27742.050000	-16186.815000	-14709.105000	0.000000	0.000000	0.000000	0.000000	50.282317	50.320803	-80.724998	40.914961	-0.000000	-0.000000	0.000000	0.000000	-54.768140	18.632460	28.734580	0.040832	1.143613	0.348083	-1.000000	-1.000000	-1.000000	-1.000000	-1.000000	-1.000000	-1.000000	138.965517	0.000000	-1.000000	-1.000000	330358.000000	1772918689.547195
-2858.805000	27710.145000	-15979.050000	-14704.245000	0.000000	0.000000	0.000000	0.000000	-74.508564	32.208458	130.122224	16.538705	-0.000000	-0.000000	0.000000	0.000000	-54.768140	18.632460	28.734580	0.040832	1.143613	0.348083	-1.000000	-1.000000	-1.000000	-1.000000	-1.000000	-1.000000	-1.000000	138.965517	0.000000	-1.000000	-1.000000	330359.000000	1772918689.553043
-2776.815000	27780.570000	-15850.845000	-14618.700000	0.000000	0.000000	0.000000	0.000000	-114.596733	5.197579	306.388354	3.089748	-0.000000	-0.000000	0.000000	0.000000	-54.768140	18.632460	28.734580	0.040832	1.143613	0.348083	-1.000000	-1.000000	-1.000000	-1.000000	-1.000000	-1.000000	-1.000000	138.965517	0.000000	-1.000000	-1.000000	330360.000000	1772918689.553047
-2688.750000	27805.545000	-16107.120000	-14696.955000	0.000000	0.000000	0.000000	0.000000	-74.396115	-13.044269	349.290794	-0.434595	-0.000000	-0.000000	0.000000	0.000000	4.379620	-12.391120	45.520580	0.000732	1.127072	0.428527	-1.000000	-1.000000	-1.000000	-1.000000	-1.000000	-1.000000	-1.000000	138.965517	0.000000	-1.000000	-1.000000	330361.000000	1772918689.555965
-2592.720000	27822.960000	-16265.790000	-14711.850000	0.000000	0.000000	0.000000	0.000000	-0.005305	-14.646282	220.541950	-4.913262	-0.000000	-0.000000	0.000000	0.000000	4.379620	-12.391120	45.520580	0.000732	1.127072	0.428527	-1.000000	-1.000000	-1.000000	-1.000000	-1.000000	-1.000000	-1.000000	138.965517	0.000000	-1.000000	-1.000000	330362.000000	1772918689.555969
-2693.475000	27800.505000	-16421.265000	-14795.685000	0.000000	0.000000	0.000000	0.000000	56.631340	-7.150065	-20.588259	-18.614531	-0.000000	-0.000000	0.000000	0.000000	4.379620	-12.391120	45.520580	0.000732	1.127072	0.428527	-1.000000	-1.000000	-1.000000	-1.000000	-1.000000	-1.000000	-1.000000	138.965517	0.000000	-1.000000	-1.000000	330363.000000	1772918689.562498
-2946.555000	27836.595000	-16657.470000	-15006.870000	0.000000	0.000000	0.000000	0.000000	57.092125	-2.735338	-249.942535	-40.511836	-0.000000	-0.000000	0.000000	0.000000	4.379620	-12.391120	45.520580	0.000732	1.127072	0.428527	-1.000000	-1.000000	-1.000000	-1.000000	-1.000000	-1.000000	-1.000000	138.965517	0.000000	-1.000000	-1.000000	330364.000000	1772918689.562501
-2988.855000	27886.905000	-16383.105000	-14931.090000	0.000000	0.000000	0.000000	0.000000	-3.501982	-4.323620	-354.490930	-60.828275	-0.000000	-0.000000	0.000000	0.000000	4.379620	-12.391120	45.520580	0.000732	1.127072	0.428527	-1.000000	-1.000000	-1.000000	-1.000000	-1.000000	-1.000000	-1.000000	138.965517	0.000000	-1.000000	-1.000000	330365.000000	1772918689.565315
-2922.345000	27890.010000	-16330.950000	-14945.805000	0.000000	0.000000	0.000000	0.000000	-80.419597	-6.589666	-285.265263	-59.367386	-0.000000	-0.000000	0.000000	0.000000	4.379620	-12.391120	45.520580	0.000732	1.127072	0.428527	-1.000000	-1.000000	-1.000000	-1.000000	-1.000000	-1.000000	-1.000000	138.965517	0.000000	-1.000000	-1.000000	330366.000000	1772918689.565318
-2639.880000	27852.975000	-16036.020000	-14688.720000	0.000000	0.000000	0.000000	0.000000	-105.368684	-7.722678	-80.936019	-18.822424	-0.000000	-0.000000	0.000000	0.000000	4.379620	-12.391120	45.520580	0.000732	1.127072	0.428527	-1.000000	-1.000000	-1.000000	-1.000000	-1.000000	-1.000000	-1.000000	138.965517	0.000000	-1.000000	-1.000000	330367.000000	1772918689.568427
-2587.905000	27817.425000	-16015.140000	-14629.725000	0.000000	0.000000	0.000000	0.000000	-46.866262	-11.890497	150.344987	53.841252	-0.000000	-0.000000	0.000000	0.000000	4.379620	-12.391120	45.520580	0.000732	1.127072	0.428527	-1.000000	-1.000000	-1.000000	-1.000000	-1.000000	-1.000000	-1.000000	138.965517	0.000000	-1.000000	-1.000000	330368.000000	1772918689.568430
-2650.230000	27789.705000	-16162.650000	-14753.385000	0.000000	0.000000	0.000000	0.000000	53.964114	-20.299055	289.862237	118.807335	-0.000000	-0.000000	0.000000	0.000000	4.379620	-12.391120	45.520580	0.000732	1.127072	0.428527	-1.000000	-1.000000	-1.000000	-1.000000	-1.000000	-1.000000	-1.000000	138.965517	0.000000	-1.000000	-1.000000	330369.000000	1772918689.571969
-2722.455000	27641.745000	-16480.845000	-14919.930000	0.000000	0.000000	0.000000	0.000000	117.471243	-29.227074	267.046956	123.102655	-0.000000	-0.000000	0.000000	0.000000	4.379620	-12.391120	45.520580	0.000732	1.127072	0.428527	-1.000000	-1.000000	-1.000000	-1.000000	-1.000000	-1.000000	-1.000000	138.965517	0.000000	-1.000000	-1.000000	330370.000000	1772918689.571972
-2809.710000	27632.700000	-16971.255000	-14969.205000	0.000000	0.000000	0.000000	0.000000	98.273336	-34.673294	94.510014	50.705367	-0.000000	-0.000000	0.000000	0.000000	105.324520	-53.333700	55.576920	-0.076538	0.893736	0.452086	-1.000000	-1.000000	-1.000000	-1.000000	-1.000000	-1.000000	-1.000000	138.965517	0.000000	-1.000000	-1.000000	330371.000000	1772918689.576087
-2827.935000	27666.585000	-17160.795000	-14927.445000	0.000000	0.000000	0.000000	0.000000	17.067522	-29.110077	-135.937274	-52.526800	-0.000000	-0.000000	0.000000	0.000000	105.324520	-53.333700	55.576920	-0.076538	0.893736	0.452086	-1.000000	-1.000000	-1.000000	-1.000000	-1.000000	-1.000000	-1.000000	138.965517	0.000000	-1.000000	-1.000000	330372.000000	1772918689.576089
-2480.445000	27752.670000	-16385.310000	-14707.665000	0.000000	0.000000	0.000000	0.000000	-60.792222	-3.031134	-280.311957	-113.769159	-0.000000	-0.000000	0.000000	0.000000	105.324520	-53.333700	55.576920	-0.076538	0.893736	0.452086	-1.000000	-1.000000	-1.000000	-1.000000	-1.000000	-1.000000	-1.000000	138.965517	0.000000	-1.000000	-1.000000	330373.000000	1772918689.581314
-2374.965000	27779.310000	-16046.370000	-14499.045000	0.000000	0.000000	0.000000	0.000000	-73.515279	40.085829	-216.064789	-89.630828	-0.000000	-0.000000	0.000000	0.000000	105.324520	-53.333700	55.576920	-0.076538	0.893736	0.452086	-1.000000	-1.000000	-1.000000	-1.000000	-1.000000	-1.000000	-1.000000	138.965517	0.000000	-1.000000	-1.000000	330374.000000	1772918689.581316
-2507.580000	27723.465000	-15870.105000	-14447.115000	0.000000	0.000000	0.000000	0.000000	-21.631672	77.074513	32.878013	0.262438	-0.000000	-0.000000	0.000000	0.000000	105.324520	-53.333700	55.576920	-0.076538	0.893736	0.452086	-1.000000	-1.000000	-1.000000	-1.000000	-1.000000	-1.000000	-1.000000	138.965517	0.000000	-1.000000	-1.000000	330375.000000	1772918689.584045
-2669.760000	27772.335000	-15925.005000	-14582.745000	0.000000	0.000000	0.000000	0.000000	28.692097	82.230611	284.685662	84.267810	-0.000000	-0.000000	0.000000	0.000000	105.324520	-53.333700	55.576920	-0.076538	0.893736	0.452086	-1.000000	-1.000000	-1.000000	-1.000000	-1.000000	-1.000000	-1.000000	138.965517	0.000000	-1.000000	-1.000000	330376.000000	1772918689.584047
-3034.935000	27797.445000	-16093.080000	-14830.290000	0.000000	0.000000	0.000000	0.000000	16.167554	52.568302	356.185957	91.581037	-0.000000	-0.000000	0.000000	0.000000	105.324520	-53.333700	55.576920	-0.076538	0.893736	0.452086	-1.000000	-1.000000	-1.000000	-1.000000	-1.000000	-1.000000	-1.000000	138.965517	0.000000	-1.000000	-1.000000	330377.000000	1772918689.588241
-2899.440000	27776.205000	-16076.475000	-14795.820000	0.000000	0.000000	0.000000	0.000000	-53.371162	7.365306	206.537462	12.246603	-0.000000	-0.000000	0.000000	0.000000	105.324520	-53.333700	55.576920	-0.076538	0.893736	0.452086	-1.000000	-1.000000	-1.000000	-1.000000	-1.000000	-1.000000	-1.000000	138.965517	0.000000	-1.000000	-1.000000	330378.000000	1772918689.588243
-2863.530000	27787.185000	-16252.470000	-14813.730000	0.000000	0.000000	0.000000	0.000000	-109.727059	-32.849483	-56.724102	-90.354661	-0.000000	-0.000000	0.000000	0.000000	105.324520	-53.333700	55.576920	-0.076538	0.893736	0.452086	-1.000000	-1.000000	-1.000000	-1.000000	-1.000000	-1.000000	-1.000000	138.965517	0.000000	-1.000000	-1.000000	330379.000000	1772918689.596026
-2972.430000	27828.225000	-16258.860000	-14755.500000	0.000000	0.000000	0.000000	0.000000	-91.770090	-55.339124	-279.040962	-137.381750	-0.000000	-0.000000	0.000000	0.000000	105.324520	-53.333700	55.576920	-0.076538	0.893736	0.452086	-1.000000	-1.000000	-1.000000	-1.000000	-1.000000	-1.000000	-1.000000	138.965517	0.000000	-1.000000	-1.000000	330380.000000	1772918689.596029
-3063.105000	27847.710000	-16354.170000	-14828.130000	0.000000	0.000000	0.000000	0.000000	-12.838810	-54.747564	-359.695451	-101.960626	-0.000000	-0.000000	0.000000	0.000000	118.661760	14.649600	93.711660	-0.050598	0.848264	0.464293	-1.000000	-1.000000	-1.000000	-1.000000	-1.000000	-1.000000	-1.000000	138.965517	0.000000	-1.000000	-1.000000	330381.000000	1772918689.624516
-3008.970000	27857.340000	-16378.695000	-14787.945000	0.000000	0.000000	0.000000	0.000000	69.306598	-35.797162	-287.301002	-17.256645	-0.000000	-0.000000	0.000000	0.000000	118.661760	14.649600	93.711660	-0.050598	0.848264	0.464293	-1.000000	-1.000000	-1.000000	-1.000000	-1.000000	-1.000000	-1.000000	138.965517	0.000000	-1.000000	-1.000000	330382.000000	1772918689.624520
-2989.710000	27654.930000	-16341.840000	-14823.945000	0.000000	0.000000	0.000000	0.000000	116.559028	-15.016710	-119.414656	63.743245	-0.000000	-0.000000	0.000000	0.000000	118.661760	14.649600	93.711660	-0.050598	0.848264	0.464293	-1.000000	-1.000000	-1.000000	-1.000000	-1.000000	-1.000000	-1.000000	138.965517	0.000000	-1.000000	-1.000000	330383.000000	1772918689.624525
-2793.240000	27514.305000	-16152.075000	-14722.830000	0.000000	0.000000	0.000000	0.000000	126.173454	-12.769735	66.768832	106.899950	-0.000000	-0.000000	0.000000	0.000000	118.661760	14.649600	93.711660	-0.050598	0.848264	0.464293	-1.000000	-1.000000	-1.000000	-1.000000	-1.000000	-1.000000	-1.000000	138.965517	0.000000	-1.000000	-1.000000	330384.000000	1772918689.624527
-2834.775000	27464.805000	-16096.590000	-14622.255000	0.000000	0.000000	0.000000	0.000000	110.081656	-31.180355	210.035588	109.298912	-0.000000	-0.000000	0.000000	0.000000	118.661760	14.649600	93.711660	-0.050598	0.848264	0.464293	-1.000000	-1.000000	-1.000000	-1.000000	-1.000000	-1.000000	-1.000000	138.965517	0.000000	-1.000000	-1.000000	330385.000000	1772918689.624531
-2997.810000	27399.555000	-16276.230000	-14727.645000	0.000000	0.000000	0.000000	0.000000	69.719076	-46.166788	266.859925	83.465205	-0.000000	-0.000000	0.000000	0.000000	118.661760	14.649600	93.711660	-0.050598	0.848264	0.464293	-1.000000	-1.000000	-1.000000	-1.000000	-1.000000	-1.000000	-1.000000	138.965517	0.000000	-1.000000	-1.000000	330386.000000	1772918689.624533
-3018.465000	27376.830000	-16277.130000	-14776.515000	0.000000	0.000000	0.000000	0.000000	0.453242	-33.334480	217.196916	36.038517	-0.000000	-0.000000	0.000000	0.000000	118.661760	14.649600	93.711660	-0.050598	0.848264	0.464293	-1.000000	-1.000000	-1.000000	-1.000000	-1.000000	-1.000000	-1.000000	138.965517	0.000000	-1.000000	-1.000000	330387.000000	1772918689.624536
-3046.680000	27475.380000	-16224.030000	-14787.270000	0.000000	0.000000	0.000000	0.000000	-78.604567	10.219328	91.446431	-24.710550	-0.000000	-0.000000	0.000000	0.000000	118.661760	14.649600	93.711660	-0.050598	0.848264	0.464293	-1.000000	-1.000000	-1.000000	-1.000000	-1.000000	-1.000000	-1.000000	138.965517	0.000000	-1.000000	-1.000000	330388.000000	1772918689.624538
