Channel1	Channel2	Channel3	Channel4	Channel5	Channel6	Channel7	Channel8	FilteredChannel1	FilteredChannel2	FilteredChannel3	FilteredChannel4	FilteredChannel5	FilteredChannel6	FilteredChannel7	FilteredChannel8	GyroX	GyroY	GyroZ	AccX	AccY	AccZ	PPG1	PPG2	rawPPG1	rawPPG2	rawPPG3	Hr	Hrv	Battery	Trigger	PhysicalTrigger	AutoTrigger	NumMeasurements	Timestamp
-24411.735000	-34491.825000	-33632.865000	-18888.570000	0.000000	0.000000	0.000000	0.000000	0.603963	28.701213	-3.770008	-3.346613	-0.000000	0.000000	0.000000	0.000000	2.823100	0.213640	-0.152600	-0.002380	0.982236	0.021851	-1.000000	-1.000000	-1.000000	-1.000000	-1.000000	-1.000000	-1.000000	146.758621	0.000000	-1.000000	-1.000000	638650.000000	1772311937.677398
-24407.415000	-34514.685000	-33621.210000	-18878.760000	0.000000	0.000000	0.000000	0.000000	-1.977986	24.122056	-3.728982	-4.119942	-0.000000	0.000000	0.000000	0.000000	2.823100	0.213640	-0.152600	-0.002380	0.982236	0.021851	-1.000000	-1.000000	-1.000000	-1.000000	-1.000000	-1.000000	-1.000000	146.758621	0.000000	-1.000000	-1.000000	638651.000000	1772311937.677401
-24412.680000	-34500.555000	-33624.405000	-18875.070000	0.000000	0.000000	0.000000	0.000000	-1.888033	10.889917	-0.496124	-1.449123	-0.000000	0.000000	0.000000	0.000000	2.823100	0.213640	-0.152600	-0.002380	0.982236	0.021851	-1.000000	-1.000000	-1.000000	-1.000000	-1.000000	-1.000000	-1.000000	146.758621	0.000000	-1.000000	-1.000000	638652.000000	1772311937.683534
-24415.065000	-34492.725000	-33631.965000	-18881.055000	0.000000	0.000000	0.000000	0.000000	0.062420	-7.314161	3.848594	3.109718	-0.000000	0.000000	0.000000	0.000000	2.823100	0.213640	-0.152600	-0.002380	0.982236	0.021851	-1.000000	-1.000000	-1.000000	-1.000000	-1.000000	-1.000000	-1.000000	146.758621	0.000000	-1.000000	-1.000000	638653.000000	1772311937.683537
-24403.455000	-34525.440000	-33623.145000	-18873.360000	0.000000	0.000000	0.000000	0.000000	1.801914	-22.114769	5.809352	6.010427	-0.000000	0.000000	0.000000	0.000000	2.823100	0.213640	-0.152600	-0.002380	0.982236	0.021851	-1.000000	-1.000000	-1.000000	-1.000000	-1.000000	-1.000000	-1.000000	146.758621	0.000000	-1.000000	-1.000000	638654.000000	1772311937.685311
-24403.680000	-34547.715000	-33622.380000	-18871.470000	0.000000	0.000000	0.000000	0.000000	2.730420	-29.176040	4.646386	5.622717	-0.000000	0.000000	0.000000	0.000000	2.823100	0.213640	-0.152600	-0.002380	0.982236	0.021851	-1.000000	-1.000000	-1.000000	-1.000000	-1.000000	-1.000000	-1.000000	146.758621	0.000000	-1.000000	-1.000000	638655.000000	1772311937.685314
-24416.145000	-34530.570000	-33636.015000	-18889.020000	0.000000	0.000000	0.000000	0.000000	2.709999	-28.181849	1.785764	2.606596	-0.000000	0.000000	0.000000	0.000000	2.823100	0.213640	-0.152600	-0.002380	0.982236	0.021851	-1.000000	-1.000000	-1.000000	-1.000000	-1.000000	-1.000000	-1.000000	146.758621	0.000000	-1.000000	-1.000000	638656.000000	1772311937.689544
-24432.930000	-34477.965000	-33652.620000	-18904.455000	0.000000	0.000000	0.000000	0.000000	0.801308	-17.891269	-1.921251	-2.145162	-0.000000	0.000000	0.000000	0.000000	2.823100	0.213640	-0.152600	-0.002380	0.982236	0.021851	-1.000000	-1.000000	-1.000000	-1.000000	-1.000000	-1.000000	-1.000000	146.758621	0.000000	-1.000000	-1.000000	638657.000000	1772311937.689547
-24429.375000	-34447.770000	-33648.165000	-18896.310000	0.000000	0.000000	0.000000	0.000000	-2.887670	1.669166	-5.646804	-6.988714	-0.000000	0.000000	0.000000	0.000000	1.831200	0.335720	-0.198380	-0.002014	0.982419	0.020264	-1.000000	-1.000000	-1.000000	-1.000000	-1.000000	-1.000000	-1.000000	146.758621	0.000000	-1.000000	-1.000000	638658.000000	1772311937.693283
-24406.380000	-34442.955000	-33625.170000	-18877.050000	0.000000	0.000000	0.000000	0.000000	-5.309789	23.196389	-6.727082	-8.371179	-0.000000	0.000000	0.000000	0.000000	1.831200	0.335720	-0.198380	-0.002014	0.982419	0.020264	-1.000000	-1.000000	-1.000000	-1.000000	-1.000000	-1.000000	-1.000000	146.758621	0.000000	-1.000000	-1.000000	638659.000000	1772311937.693285
-24412.230000	-34437.330000	-33633.495000	-18889.920000	0.000000	0.000000	0.000000	0.000000	-3.239814	34.473650	-2.948249	-4.151928	-0.000000	0.000000	0.000000	0.000000	1.831200	0.335720	-0.198380	-0.002014	0.982419	0.020264	-1.000000	-1.000000	-1.000000	-1.000000	-1.000000	-1.000000	-1.000000	146.758621	0.000000	-1.000000	-1.000000	638660.000000	1772311937.697502
-24429.375000	-34455.690000	-33653.565000	-18916.245000	0.000000	0.000000	0.000000	0.000000	1.785781	28.302967	3.101458	2.240746	-0.000000	0.000000	0.000000	0.000000	1.831200	0.335720	-0.198380	-0.002014	0.982419	0.020264	-1.000000	-1.000000	-1.000000	-1.000000	-1.000000	-1.000000	-1.000000	146.758621	0.000000	-1.000000	-1.000000	638661.000000	1772311937.697505
-24404.850000	-34472.745000	-33628.680000	-18888.390000	0.000000	0.000000	0.000000	0.000000	5.216327	7.770087	6.464424	5.539042	-0.000000	0.000000	0.000000	0.000000	1.831200	0.335720	-0.198380	-0.002014	0.982419	0.020264	-1.000000	-1.000000	-1.000000	-1.000000	-1.000000	-1.000000	-1.000000	146.758621	0.000000	-1.000000	-1.000000	638662.000000	1772311937.701393
-24371.685000	-34468.245000	-33590.205000	-18832.275000	0.000000	0.000000	0.000000	0.000000	6.218335	-16.224325	6.884491	6.472150	-0.000000	0.000000	0.000000	0.000000	1.831200	0.335720	-0.198380	-0.002014	0.982419	0.020264	-1.000000	-1.000000	-1.000000	-1.000000	-1.000000	-1.000000	-1.000000	146.758621	0.000000	-1.000000	-1.000000	638663.000000	1772311937.701395
-24402.960000	-34461.630000	-33621.255000	-18861.975000	0.000000	0.000000	0.000000	0.000000	6.518009	-31.061847	7.010041	8.793468	-0.000000	0.000000	0.000000	0.000000	1.831200	0.335720	-0.198380	-0.002014	0.982419	0.020264	-1.000000	-1.000000	-1.000000	-1.000000	-1.000000	-1.000000	-1.000000	146.758621	0.000000	-1.000000	-1.000000	638664.000000	1772311937.705395
-24427.125000	-34486.020000	-33647.040000	-18892.530000	0.000000	0.000000	0.000000	0.000000	4.208484	-30.446402	5.045907	9.607742	-0.000000	0.000000	0.000000	0.000000	1.831200	0.335720	-0.198380	-0.002014	0.982419	0.020264	-1.000000	-1.000000	-1.000000	-1.000000	-1.000000	-1.000000	-1.000000	146.758621	0.000000	-1.000000	-1.000000	638665.000000	1772311937.705397
-24423.345000	-34472.205000	-33642.090000	-18887.355000	0.000000	0.000000	0.000000	0.000000	-2.979332	-17.851320	-1.984825	3.202655	-0.000000	0.000000	0.000000	0.000000	1.831200	0.335720	-0.198380	-0.002014	0.982419	0.020264	-1.000000	-1.000000	-1.000000	-1.000000	-1.000000	-1.000000	-1.000000	146.758621	0.000000	-1.000000	-1.000000	638666.000000	1772311937.710734
-24419.970000	-34473.870000	-33639.345000	-18883.305000	0.000000	0.000000	0.000000	0.000000	-11.085757	-1.122949	-10.564927	-7.917570	-0.000000	0.000000	0.000000	0.000000	1.831200	0.335720	-0.198380	-0.002014	0.982419	0.020264	-1.000000	-1.000000	-1.000000	-1.000000	-1.000000	-1.000000	-1.000000	146.758621	0.000000	-1.000000	-1.000000	638667.000000	1772311937.710737
-24426.045000	-34454.205000	-33644.925000	-18890.055000	0.000000	0.000000	0.000000	0.000000	-13.692078	13.390485	-14.036525	-15.400554	-0.000000	0.000000	0.000000	0.000000	2.227960	-0.244160	-0.412020	-0.002075	0.982664	0.022095	-1.000000	-1.000000	-1.000000	-1.000000	-1.000000	-1.000000	-1.000000	146.758621	0.000000	-1.000000	-1.000000	638668.000000	1772311937.715576
-24421.815000	-34445.205000	-33640.695000	-18887.805000	0.000000	0.000000	0.000000	0.000000	-9.105479	22.081700	-10.206653	-14.736508	-0.000000	0.000000	0.000000	0.000000	2.227960	-0.244160	-0.412020	-0.002075	0.982664	0.022095	-1.000000	-1.000000	-1.000000	-1.000000	-1.000000	-1.000000	-1.000000	146.758621	0.000000	-1.000000	-1.000000	638669.000000	1772311937.715580
-24421.725000	-34448.040000	-33644.025000	-18892.980000	0.000000	0.000000	0.000000	0.000000	-0.571979	23.354791	-2.025609	-7.662785	-0.000000	0.000000	0.000000	0.000000	2.227960	-0.244160	-0.412020	-0.002075	0.982664	0.022095	-1.000000	-1.000000	-1.000000	-1.000000	-1.000000	-1.000000	-1.000000	146.758621	0.000000	-1.000000	-1.000000	638670.000000	1772311937.717537
-24421.905000	-34467.975000	-33643.755000	-18891.855000	0.000000	0.000000	0.000000	0.000000	7.312677	16.777689	5.869739	1.197442	-0.000000	0.000000	0.000000	0.000000	2.227960	-0.244160	-0.412020	-0.002075	0.982664	0.022095	-1.000000	-1.000000	-1.000000	-1.000000	-1.000000	-1.000000	-1.000000	146.758621	0.000000	-1.000000	-1.000000	638671.000000	1772311937.717540
-24417.405000	-34479.090000	-33639.525000	-18891.630000	0.000000	0.000000	0.000000	0.000000	11.283741	3.956645	10.151562	7.792604	-0.000000	0.000000	0.000000	0.000000	2.227960	-0.244160	-0.412020	-0.002075	0.982664	0.022095	-1.000000	-1.000000	-1.000000	-1.000000	-1.000000	-1.000000	-1.000000	146.758621	0.000000	-1.000000	-1.000000	638672.000000	1772311937.722584
-24422.895000	-34472.295000	-33645.240000	-18897.345000	0.000000	0.000000	0.000000	0.000000	10.535911	-9.873055	10.040861	10.244192	-0.000000	0.000000	0.000000	0.000000	2.227960	-0.244160	-0.412020	-0.002075	0.982664	0.022095	-1.000000	-1.000000	-1.000000	-1.000000	-1.000000	-1.000000	-1.000000	146.758621	0.000000	-1.000000	-1.000000	638673.000000	1772311937.722587
-24417.585000	-34463.340000	-33638.580000	-18889.785000	0.000000	0.000000	0.000000	0.000000	6.311658	-17.611413	6.664324	8.801739	-0.000000	0.000000	0.000000	0.000000	2.227960	-0.244160	-0.412020	-0.002075	0.982664	0.022095	-1.000000	-1.000000	-1.000000	-1.000000	-1.000000	-1.000000	-1.000000	146.758621	0.000000	-1.000000	-1.000000	638674.000000	1772311937.725518
-24404.265000	-34463.430000	-33624.630000	-18879.705000	0.000000	0.000000	0.000000	0.000000	1.210427	-15.608544	2.366093	5.474677	-0.000000	0.000000	0.000000	0.000000	2.227960	-0.244160	-0.412020	-0.002075	0.982664	0.022095	-1.000000	-1.000000	-1.000000	-1.000000	-1.000000	-1.000000	-1.000000	146.758621	0.000000	-1.000000	-1.000000	638675.000000	1772311937.725521
-24408.270000	-34471.080000	-33627.195000	-18875.430000	0.000000	0.000000	0.000000	0.000000	-2.207209	-6.807250	-0.551502	2.615083	-0.000000	0.000000	0.000000	0.000000	2.227960	-0.244160	-0.412020	-0.002075	0.982664	0.022095	-1.000000	-1.000000	-1.000000	-1.000000	-1.000000	-1.000000	-1.000000	146.758621	0.000000	-1.000000	-1.000000	638676.000000	1772311937.729574
-24419.655000	-34491.465000	-33639.255000	-18886.905000	0.000000	0.000000	0.000000	0.000000	-3.734236	1.947171	-2.078665	0.657840	-0.000000	0.000000	0.000000	0.000000	2.227960	-0.244160	-0.412020	-0.002075	0.982664	0.022095	-1.000000	-1.000000	-1.000000	-1.000000	-1.000000	-1.000000	-1.000000	146.758621	0.000000	-1.000000	-1.000000	638677.000000	1772311937.729577
-24415.245000	-34504.065000	-33634.305000	-18881.415000	0.000000	0.000000	0.000000	0.000000	-4.856494	5.368849	-3.757292	-1.584044	-0.000000	0.000000	0.000000	0.000000	4.227020	-0.167860	-0.488320	-0.001465	0.980710	0.023865	-1.000000	-1.000000	-1.000000	-1.000000	-1.000000	-1.000000	-1.000000	146.758621	0.000000	-1.000000	-1.000000	638678.000000	1772311937.733446
-24404.850000	-34513.245000	-33626.295000	-18871.830000	0.000000	0.000000	0.000000	0.000000	-5.539523	3.250502	-5.405572	-4.051834	-0.000000	0.000000	0.000000	0.000000	4.227020	-0.167860	-0.488320	-0.001465	0.980710	0.023865	-1.000000	-1.000000	-1.000000	-1.000000	-1.000000	-1.000000	-1.000000	146.758621	0.000000	-1.000000	-1.000000	638679.000000	1772311937.733450
-24399.540000	-34501.950000	-33624.270000	-18870.840000	0.000000	0.000000	0.000000	0.000000	-4.240069	-0.238983	-5.221162	-5.065645	-0.000000	0.000000	0.000000	0.000000	4.227020	-0.167860	-0.488320	-0.001465	0.980710	0.023865	-1.000000	-1.000000	-1.000000	-1.000000	-1.000000	-1.000000	-1.000000	146.758621	0.000000	-1.000000	-1.000000	638680.000000	1772311937.737749
-24411.330000	-34492.545000	-33635.610000	-18881.595000	0.000000	0.000000	0.000000	0.000000	-1.104982	-0.440920	-3.010254	-4.212840	-0.000000	0.000000	0.000000	0.000000	4.227020	-0.167860	-0.488320	-0.001465	0.980710	0.023865	-1.000000	-1.000000	-1.000000	-1.000000	-1.000000	-1.000000	-1.000000	146.758621	0.000000	-1.000000	-1.000000	638681.000000	1772311937.737751
-24419.475000	-34484.355000	-33637.050000	-18885.330000	0.000000	0.000000	0.000000	0.000000	1.273891	3.780389	-0.763300	-3.087253	-0.000000	0.000000	0.000000	0.000000	4.227020	-0.167860	-0.488320	-0.001465	0.980710	0.023865	-1.000000	-1.000000	-1.000000	-1.000000	-1.000000	-1.000000	-1.000000	146.758621	0.000000	-1.000000	-1.000000	638682.000000	1772311937.741522
-24433.065000	-34452.765000	-33643.755000	-18889.785000	0.000000	0.000000	0.000000	0.000000	0.802998	9.725394	0.016150	-2.805911	-0.000000	0.000000	0.000000	0.000000	4.227020	-0.167860	-0.488320	-0.001465	0.980710	0.023865	-1.000000	-1.000000	-1.000000	-1.000000	-1.000000	-1.000000	-1.000000	146.758621	0.000000	-1.000000	-1.000000	638683.000000	1772311937.741524
-24432.390000	-34441.020000	-33635.745000	-18879.570000	0.000000	0.000000	0.000000	0.000000	-1.736569	13.887338	-0.124485	-2.531558	-0.000000	0.000000	0.000000	0.000000	4.227020	-0.167860	-0.488320	-0.001465	0.980710	0.023865	-1.000000	-1.000000	-1.000000	-1.000000	-1.000000	-1.000000	-1.000000	146.758621	0.000000	-1.000000	-1.000000	638684.000000	1772311937.750199
-24411.150000	-34443.315000	-33625.710000	-18870.345000	0.000000	0.000000	0.000000	0.000000	-3.085159	13.356913	0.523303	-0.615888	-0.000000	0.000000	0.000000	0.000000	4.227020	-0.167860	-0.488320	-0.001465	0.980710	0.023865	-1.000000	-1.000000	-1.000000	-1.000000	-1.000000	-1.000000	-1.000000	146.758621	0.000000	-1.000000	-1.000000	638685.000000	1772311937.750202
-24400.260000	-34432.065000	-33627.195000	-18873.675000	0.000000	0.000000	0.000000	0.000000	-0.268553	6.674191	2.735377	3.042440	-0.000000	0.000000	0.000000	0.000000	4.227020	-0.167860	-0.488320	-0.001465	0.980710	0.023865	-1.000000	-1.000000	-1.000000	-1.000000	-1.000000	-1.000000	-1.000000	146.758621	0.000000	-1.000000	-1.000000	638686.000000	1772311937.750207
-24404.580000	-34413.300000	-33632.415000	-18879.840000	0.000000	0.000000	0.000000	0.000000	5.680144	-3.687556	4.931617	6.031939	-0.000000	0.000000	0.000000	0.000000	4.227020	-0.167860	-0.488320	-0.001465	0.980710	0.023865	-1.000000	-1.000000	-1.000000	-1.000000	-1.000000	-1.000000	-1.000000	146.758621	0.000000	-1.000000	-1.000000	638687.000000	1772311937.750208
-24400.845000	-34421.535000	-33627.150000	-18874.080000	0.000000	0.000000	0.000000	0.000000	9.949731	-12.581096	4.886262	5.913825	-0.000000	0.000000	0.000000	0.000000	4.303320	-0.045780	-0.381500	-0.001282	0.980955	0.022583	-1.000000	-1.000000	-1.000000	-1.000000	-1.000000	-1.000000	-1.000000	146.758621	0.000000	-1.000000	-1.000000	638688.000000	1772311937.755289
-24391.170000	-34444.755000	-33616.485000	-18866.115000	0.000000	0.000000	0.000000	0.000000	9.129538	-17.395308	2.665333	3.168455	-0.000000	0.000000	0.000000	0.000000	4.303320	-0.045780	-0.381500	-0.001282	0.980955	0.022583	-1.000000	-1.000000	-1.000000	-1.000000	-1.000000	-1.000000	-1.000000	146.758621	0.000000	-1.000000	-1.000000	638689.000000	1772311937.755292
-24408.450000	-34445.070000	-33635.565000	-18888.435000	0.000000	0.000000	0.000000	0.000000	3.848027	-18.788389	-0.102881	-0.171363	-0.000000	0.000000	0.000000	0.000000	4.303320	-0.045780	-0.381500	-0.001282	0.980955	0.022583	-1.000000	-1.000000	-1.000000	-1.000000	-1.000000	-1.000000	-1.000000	146.758621	0.000000	-1.000000	-1.000000	638690.000000	1772311937.757690
-24421.140000	-34453.620000	-33647.670000	-18911.295000	0.000000	0.000000	0.000000	0.000000	-3.621711	-16.892224	-3.050930	-3.746591	-0.000000	0.000000	0.000000	0.000000	4.303320	-0.045780	-0.381500	-0.001282	0.980955	0.022583	-1.000000	-1.000000	-1.000000	-1.000000	-1.000000	-1.000000	-1.000000	146.758621	0.000000	-1.000000	-1.000000	638691.000000	1772311937.757694
-24411.645000	-34463.790000	-33634.980000	-18898.695000	0.000000	0.000000	0.000000	0.000000	-10.421513	-11.100832	-5.964319	-7.411391	-0.000000	0.000000	0.000000	0.000000	4.303320	-0.045780	-0.381500	-0.001282	0.980955	0.022583	-1.000000	-1.000000	-1.000000	-1.000000	-1.000000	-1.000000	-1.000000	146.758621	0.000000	-1.000000	-1.000000	638692.000000	1772311937.761500
-24402.105000	-34450.515000	-33623.415000	-18869.805000	0.000000	0.000000	0.000000	0.000000	-12.685853	-2.205617	-6.472929	-7.927343	-0.000000	0.000000	0.000000	0.000000	4.303320	-0.045780	-0.381500	-0.001282	0.980955	0.022583	-1.000000	-1.000000	-1.000000	-1.000000	-1.000000	-1.000000	-1.000000	146.758621	0.000000	-1.000000	-1.000000	638693.000000	1772311937.761503
-24401.835000	-34403.355000	-33622.740000	-18857.790000	0.000000	0.000000	0.000000	0.000000	-8.461645	8.634692	-2.794806	-2.039977	-0.000000	0.000000	0.000000	0.000000	4.303320	-0.045780	-0.381500	-0.001282	0.980955	0.022583	-1.000000	-1.000000	-1.000000	-1.000000	-1.000000	-1.000000	-1.000000	146.758621	0.000000	-1.000000	-1.000000	638694.000000	1772311937.765623
-24408.720000	-34386.255000	-33634.755000	-18879.570000	0.000000	0.000000	0.000000	0.000000	-0.567397	20.110949	2.724135	7.271241	-0.000000	0.000000	0.000000	0.000000	4.303320	-0.045780	-0.381500	-0.001282	0.980955	0.022583	-1.000000	-1.000000	-1.000000	-1.000000	-1.000000	-1.000000	-1.000000	146.758621	0.000000	-1.000000	-1.000000	638695.000000	1772311937.765626
-24420.015000	-34407.900000	-33648.840000	-18894.735000	0.000000	0.000000	0.000000	0.000000	5.601052	27.394666	5.452626	11.967335	-0.000000	0.000000	0.000000	0.000000	4.303320	-0.045780	-0.381500	-0.001282	0.980955	0.022583	-1.000000	-1.000000	-1.000000	-1.000000	-1.000000	-1.000000	-1.000000	146.758621	0.000000	-1.000000	-1.000000	638696.000000	1772311937.769682
-24409.395000	-34442.865000	-33639.930000	-18887.265000	0.000000	0.000000	0.000000	0.000000	6.980369	23.112792	3.508586	7.814557	-0.000000	0.000000	0.000000	0.000000	4.303320	-0.045780	-0.381500	-0.001282	0.980955	0.022583	-1.000000	-1.000000	-1.000000	-1.000000	-1.000000	-1.000000	-1.000000	146.758621	0.000000	-1.000000	-1.000000	638697.000000	1772311937.769685
-24404.760000	-34473.780000	-33625.845000	-18872.685000	0.000000	0.000000	0.000000	0.000000	5.044212	5.353090	-0.081914	-0.773118	-0.000000	0.000000	0.000000	0.000000	4.165980	0.244160	-0.579880	-0.002014	0.981809	0.021179	-1.000000	-1.000000	-1.000000	-1.000000	-1.000000	-1.000000	-1.000000	146.758621	0.000000	-1.000000	-1.000000	638698.000000	1772311937.773678
-24387.975000	-34519.455000	-33610.815000	-18857.250000	0.000000	0.000000	0.000000	0.000000	3.207804	-18.181471	-0.903677	-6.077757	-0.000000	0.000000	0.000000	0.000000	4.165980	0.244160	-0.579880	-0.002014	0.981809	0.021179	-1.000000	-1.000000	-1.000000	-1.000000	-1.000000	-1.000000	-1.000000	146.758621	0.000000	-1.000000	-1.000000	638699.000000	1772311937.773680
-24387.570000	-34558.200000	-33610.950000	-18857.340000	0.000000	0.000000	0.000000	0.000000	3.079333	-35.709197	1.854386	-4.951429	-0.000000	0.000000	0.000000	0.000000	4.165980	0.244160	-0.579880	-0.002014	0.981809	0.021179	-1.000000	-1.000000	-1.000000	-1.000000	-1.000000	-1.000000	-1.000000	146.758621	0.000000	-1.000000	-1.000000	638700.000000	1772311937.779527
-24414.210000	-34574.715000	-33630.615000	-18873.945000	0.000000	0.000000	0.000000	0.000000	2.930398	-38.761779	4.503005	-0.809431	-0.000000	0.000000	0.000000	0.000000	4.165980	0.244160	-0.579880	-0.002014	0.981809	0.021179	-1.000000	-1.000000	-1.000000	-1.000000	-1.000000	-1.000000	-1.000000	146.758621	0.000000	-1.000000	-1.000000	638701.000000	1772311937.779530
-24410.970000	-34587.945000	-33632.370000	-18876.375000	0.000000	0.000000	0.000000	0.000000	-0.058661	-25.507289	2.912715	0.935455	-0.000000	0.000000	0.000000	0.000000	4.165980	0.244160	-0.579880	-0.002014	0.981809	0.021179	-1.000000	-1.000000	-1.000000	-1.000000	-1.000000	-1.000000	-1.000000	146.758621	0.000000	-1.000000	-1.000000	638702.000000	1772311937.781664
-24402.015000	-34590.510000	-33627.825000	-18873.045000	0.000000	0.000000	0.000000	0.000000	-5.026920	-1.256011	-2.495119	-1.167986	-0.000000	0.000000	0.000000	0.000000	4.165980	0.244160	-0.579880	-0.002014	0.981809	0.021179	-1.000000	-1.000000	-1.000000	-1.000000	-1.000000	-1.000000	-1.000000	146.758621	0.000000	-1.000000	-1.000000	638703.000000	1772311937.781667
-24406.155000	-34601.130000	-33622.920000	-18869.355000	0.000000	0.000000	0.000000	0.000000	-7.768594	23.795672	-7.096038	-3.984286	-0.000000	0.000000	0.000000	0.000000	4.165980	0.244160	-0.579880	-0.002014	0.981809	0.021179	-1.000000	-1.000000	-1.000000	-1.000000	-1.000000	-1.000000	-1.000000	146.758621	0.000000	-1.000000	-1.000000	638704.000000	1772311937.785591
-24419.925000	-34623.720000	-33621.930000	-18866.565000	0.000000	0.000000	0.000000	0.000000	-6.460308	39.208870	-7.258495	-4.198915	-0.000000	0.000000	0.000000	0.000000	4.165980	0.244160	-0.579880	-0.002014	0.981809	0.021179	-1.000000	-1.000000	-1.000000	-1.000000	-1.000000	-1.000000	-1.000000	146.758621	0.000000	-1.000000	-1.000000	638705.000000	1772311937.785594
-24416.370000	-34628.220000	-33629.445000	-18872.280000	0.000000	0.000000	0.000000	0.000000	-3.082008	39.376143	-3.559770	-1.583762	-0.000000	0.000000	0.000000	0.000000	4.165980	0.244160	-0.579880	-0.002014	0.981809	0.021179	-1.000000	-1.000000	-1.000000	-1.000000	-1.000000	-1.000000	-1.000000	146.758621	0.000000	-1.000000	-1.000000	638706.000000	1772311937.789680
-24402.600000	-34637.085000	-33627.645000	-18872.595000	0.000000	0.000000	0.000000	0.000000	0.538959	26.554762	0.770035	1.606650	-0.000000	0.000000	0.000000	0.000000	4.165980	0.244160	-0.579880	-0.002014	0.981809	0.021179	-1.000000	-1.000000	-1.000000	-1.000000	-1.000000	-1.000000	-1.000000	146.758621	0.000000	-1.000000	-1.000000	638707.000000	1772311937.789683
-24391.395000	-34637.265000	-33617.835000	-18864.180000	0.000000	0.000000	0.000000	0.000000	4.393387	8.608369	3.490065	3.463156	-0.000000	0.000000	0.000000	0.000000	3.692920	0.534100	-0.625660	-0.001709	0.982725	0.019409	-1.000000	-1.000000	-1.000000	-1.000000	-1.000000	-1.000000	-1.000000	146.758621	0.000000	-1.000000	-1.000000	638708.000000	1772311937.793850
-24395.490000	-34643.160000	-33623.100000	-18868.590000	0.000000	0.000000	0.000000	0.000000	7.877824	-6.600788	4.516976	3.835435	-0.000000	0.000000	0.000000	0.000000	3.692920	0.534100	-0.625660	-0.001709	0.982725	0.019409	-1.000000	-1.000000	-1.000000	-1.000000	-1.000000	-1.000000	-1.000000	146.758621	0.000000	-1.000000	-1.000000	638709.000000	1772311937.793853
-24397.515000	-34612.020000	-33623.595000	-18870.480000	0.000000	0.000000	0.000000	0.000000	8.695139	-14.386967	4.119396	3.068982	-0.000000	0.000000	0.000000	0.000000	3.692920	0.534100	-0.625660	-0.001709	0.982725	0.019409	-1.000000	-1.000000	-1.000000	-1.000000	-1.000000	-1.000000	-1.000000	146.758621	0.000000	-1.000000	-1.000000	638710.000000	1772311937.797896
-24396.120000	-34624.215000	-33620.715000	-18868.005000	0.000000	0.000000	0.000000	0.000000	5.436796	-13.944537	2.410937	1.383398	-0.000000	0.000000	0.000000	0.000000	3.692920	0.534100	-0.625660	-0.001709	0.982725	0.019409	-1.000000	-1.000000	-1.000000	-1.000000	-1.000000	-1.000000	-1.000000	146.758621	0.000000	-1.000000	-1.000000	638711.000000	1772311937.797901
-24391.485000	-34608.105000	-33615.540000	-18862.740000	0.000000	0.000000	0.000000	0.000000	-0.249130	-8.680287	0.309528	-0.372158	-0.000000	0.000000	0.000000	0.000000	3.692920	0.534100	-0.625660	-0.001709	0.982725	0.019409	-1.000000	-1.000000	-1.000000	-1.000000	-1.000000	-1.000000	-1.000000	146.758621	0.000000	-1.000000	-1.000000	638712.000000	1772311937.801608
-24396.840000	-34569.585000	-33623.010000	-18868.140000	0.000000	0.000000	0.000000	0.000000	-5.200235	-2.864316	-1.145773	-1.265063	-0.000000	0.000000	0.000000	0.000000	3.692920	0.534100	-0.625660	-0.001709	0.982725	0.019409	-1.000000	-1.000000	-1.000000	-1.000000	-1.000000	-1.000000	-1.000000	146.758621	0.000000	-1.000000	-1.000000	638713.000000	1772311937.801611
-24405.480000	-34573.815000	-33631.605000	-18876.195000	0.000000	0.000000	0.000000	0.000000	-7.667723	1.660582	-2.110351	-1.552577	-0.000000	0.000000	0.000000	0.000000	3.692920	0.534100	-0.625660	-0.001709	0.982725	0.019409	-1.000000	-1.000000	-1.000000	-1.000000	-1.000000	-1.000000	-1.000000	146.758621	0.000000	-1.000000	-1.000000	638714.000000	1772311937.805871
-24408.315000	-34625.115000	-33635.115000	-18882.495000	0.000000	0.000000	0.000000	0.000000	-7.814498	2.238560	-3.219543	-2.163454	-0.000000	0.000000	0.000000	0.000000	3.692920	0.534100	-0.625660	-0.001709	0.982725	0.019409	-1.000000	-1.000000	-1.000000	-1.000000	-1.000000	-1.000000	-1.000000	146.758621	0.000000	-1.000000	-1.000000	638715.000000	1772311937.805875
-24396.435000	-34636.275000	-33625.260000	-18875.520000	0.000000	0.000000	0.000000	0.000000	-5.918360	-4.528586	-3.852925	-2.929704	-0.000000	0.000000	0.000000	0.000000	3.692920	0.534100	-0.625660	-0.001709	0.982725	0.019409	-1.000000	-1.000000	-1.000000	-1.000000	-1.000000	-1.000000	-1.000000	146.758621	0.000000	-1.000000	-1.000000	638716.000000	1772311937.809800
-24378.570000	-34630.920000	-33604.785000	-18852.030000	0.000000	0.000000	0.000000	0.000000	-1.567500	-15.420144	-2.196138	-2.060338	-0.000000	0.000000	0.000000	0.000000	3.692920	0.534100	-0.625660	-0.001709	0.982725	0.019409	-1.000000	-1.000000	-1.000000	-1.000000	-1.000000	-1.000000	-1.000000	146.758621	0.000000	-1.000000	-1.000000	638717.000000	1772311937.809803
-24395.625000	-34609.365000	-33603.570000	-18845.550000	0.000000	0.000000	0.000000	0.000000	4.269509	-20.541769	2.291721	1.765939	-0.000000	0.000000	0.000000	0.000000	3.265640	0.106820	-0.686700	-0.002075	0.982725	0.019226	-1.000000	-1.000000	-1.000000	-1.000000	-1.000000	-1.000000	-1.000000	146.758621	0.000000	-1.000000	-1.000000	638718.000000	1772311937.813753
-24418.170000	-34602.795000	-33622.785000	-18864.315000	0.000000	0.000000	0.000000	0.000000	7.578791	-13.457229	6.581603	6.297070	-0.000000	0.000000	0.000000	0.000000	3.265640	0.106820	-0.686700	-0.002075	0.982725	0.019226	-1.000000	-1.000000	-1.000000	-1.000000	-1.000000	-1.000000	-1.000000	146.758621	0.000000	-1.000000	-1.000000	638719.000000	1772311937.813756
-24394.680000	-34602.030000	-33617.565000	-18862.200000	0.000000	0.000000	0.000000	0.000000	5.480159	2.146543	6.445149	6.968149	-0.000000	0.000000	0.000000	0.000000	3.265640	0.106820	-0.686700	-0.002075	0.982725	0.019226	-1.000000	-1.000000	-1.000000	-1.000000	-1.000000	-1.000000	-1.000000	146.758621	0.000000	-1.000000	-1.000000	638720.000000	1772311937.817777
-24392.340000	-34610.940000	-33625.485000	-18876.555000	0.000000	0.000000	0.000000	0.000000	0.902971	16.141329	1.567420	2.273326	-0.000000	0.000000	0.000000	0.000000	3.265640	0.106820	-0.686700	-0.002075	0.982725	0.019226	-1.000000	-1.000000	-1.000000	-1.000000	-1.000000	-1.000000	-1.000000	146.758621	0.000000	-1.000000	-1.000000	638721.000000	1772311937.817780
-24393.915000	-34618.815000	-33628.365000	-18878.445000	0.000000	0.000000	0.000000	0.000000	-1.512926	20.441111	-4.399864	-4.725806	-0.000000	0.000000	0.000000	0.000000	3.265640	0.106820	-0.686700	-0.002075	0.982725	0.019226	-1.000000	-1.000000	-1.000000	-1.000000	-1.000000	-1.000000	-1.000000	146.758621	0.000000	-1.000000	-1.000000	638722.000000	1772311937.821716
-24380.865000	-34606.890000	-33607.305000	-18848.880000	0.000000	0.000000	0.000000	0.000000	-0.914186	14.504350	-7.423418	-9.004324	-0.000000	0.000000	0.000000	0.000000	3.265640	0.106820	-0.686700	-0.002075	0.982725	0.019226	-1.000000	-1.000000	-1.000000	-1.000000	-1.000000	-1.000000	-1.000000	146.758621	0.000000	-1.000000	-1.000000	638723.000000	1772311937.821719
-24397.920000	-34584.165000	-33624.990000	-18867.915000	0.000000	0.000000	0.000000	0.000000	0.693076	4.665530	-5.691743	-7.207588	-0.000000	0.000000	0.000000	0.000000	3.265640	0.106820	-0.686700	-0.002075	0.982725	0.019226	-1.000000	-1.000000	-1.000000	-1.000000	-1.000000	-1.000000	-1.000000	146.758621	0.000000	-1.000000	-1.000000	638724.000000	1772311937.826290
-24438.060000	-34592.805000	-33664.995000	-18908.280000	0.000000	0.000000	0.000000	0.000000	0.183565	-2.208639	-1.977607	-2.052558	-0.000000	0.000000	0.000000	0.000000	3.265640	0.106820	-0.686700	-0.002075	0.982725	0.019226	-1.000000	-1.000000	-1.000000	-1.000000	-1.000000	-1.000000	-1.000000	146.758621	0.000000	-1.000000	-1.000000	638725.000000	1772311937.826293
-24425.280000	-34608.420000	-33648.930000	-18891.765000	0.000000	0.000000	0.000000	0.000000	-4.038171	-4.970014	-0.769564	0.578620	-0.000000	0.000000	0.000000	0.000000	3.265640	0.106820	-0.686700	-0.002075	0.982725	0.019226	-1.000000	-1.000000	-1.000000	-1.000000	-1.000000	-1.000000	-1.000000	146.758621	0.000000	-1.000000	-1.000000	638726.000000	1772311937.829745
-24408.000000	-34621.065000	-33632.010000	-18874.305000	0.000000	0.000000	0.000000	0.000000	-8.045884	-6.815581	-1.206482	0.497471	-0.000000	0.000000	0.000000	0.000000	3.265640	0.106820	-0.686700	-0.002075	0.982725	0.019226	-1.000000	-1.000000	-1.000000	-1.000000	-1.000000	-1.000000	-1.000000	146.758621	0.000000	-1.000000	-1.000000	638727.000000	1772311937.829748
-24396.885000	-34652.385000	-33620.895000	-18863.640000	0.000000	0.000000	0.000000	0.000000	-5.903367	-9.751623	1.267773	2.291306	-0.000000	0.000000	0.000000	0.000000	3.525060	0.228900	-0.625660	-0.002258	0.981748	0.019958	-1.000000	-1.000000	-1.000000	-1.000000	-1.000000	-1.000000	-1.000000	146.758621	0.000000	-1.000000	-1.000000	638728.000000	1772311937.833714
-24399.270000	-34692.615000	-33626.610000	-18874.080000	0.000000	0.000000	0.000000	0.000000	2.345281	-13.233556	6.942741	6.769364	-0.000000	0.000000	0.000000	0.000000	3.525060	0.228900	-0.625660	-0.002258	0.981748	0.019958	-1.000000	-1.000000	-1.000000	-1.000000	-1.000000	-1.000000	-1.000000	146.758621	0.000000	-1.000000	-1.000000	638729.000000	1772311937.833717
-24403.905000	-34714.665000	-33631.380000	-18877.635000	0.000000	0.000000	0.000000	0.000000	10.357683	-15.368145	10.952531	9.582968	-0.000000	0.000000	0.000000	0.000000	3.525060	0.228900	-0.625660	-0.002258	0.981748	0.019958	-1.000000	-1.000000	-1.000000	-1.000000	-1.000000	-1.000000	-1.000000	146.758621	0.000000	-1.000000	-1.000000	638730.000000	1772311937.837874
-24400.080000	-34732.620000	-33623.640000	-18864.270000	0.000000	0.000000	0.000000	0.000000	12.292364	-13.356198	9.407731	7.520963	-0.000000	0.000000	0.000000	0.000000	3.525060	0.228900	-0.625660	-0.002258	0.981748	0.019958	-1.000000	-1.000000	-1.000000	-1.000000	-1.000000	-1.000000	-1.000000	146.758621	0.000000	-1.000000	-1.000000	638731.000000	1772311937.837877
-24403.995000	-34726.590000	-33626.025000	-18868.320000	0.000000	0.000000	0.000000	0.000000	7.618641	-5.118412	3.334281	2.156357	-0.000000	0.000000	0.000000	0.000000	3.525060	0.228900	-0.625660	-0.002258	0.981748	0.019958	-1.000000	-1.000000	-1.000000	-1.000000	-1.000000	-1.000000	-1.000000	146.758621	0.000000	-1.000000	-1.000000	638732.000000	1772311937.841888
-24402.600000	-34690.770000	-33624.045000	-18869.445000	0.000000	0.000000	0.000000	0.000000	-0.031216	8.929131	-3.437901	-3.195858	-0.000000	0.000000	0.000000	0.000000	3.525060	0.228900	-0.625660	-0.002258	0.981748	0.019958	-1.000000	-1.000000	-1.000000	-1.000000	-1.000000	-1.000000	-1.000000	146.758621	0.000000	-1.000000	-1.000000	638733.000000	1772311937.841890
-24381.360000	-34692.120000	-33607.080000	-18848.970000	0.000000	0.000000	0.000000	0.000000	-6.036157	24.850363	-7.521955	-6.309190	-0.000000	0.000000	0.000000	0.000000	3.525060	0.228900	-0.625660	-0.002258	0.981748	0.019958	-1.000000	-1.000000	-1.000000	-1.000000	-1.000000	-1.000000	-1.000000	146.758621	0.000000	-1.000000	-1.000000	638734.000000	1772311937.845780
-24385.725000	-34709.895000	-33607.260000	-18846.045000	0.000000	0.000000	0.000000	0.000000	-7.349616	34.577688	-7.329906	-5.952198	-0.000000	0.000000	0.000000	0.000000	3.525060	0.228900	-0.625660	-0.002258	0.981748	0.019958	-1.000000	-1.000000	-1.000000	-1.000000	-1.000000	-1.000000	-1.000000	146.758621	0.000000	-1.000000	-1.000000	638735.000000	1772311937.845783
-24398.280000	-34710.345000	-33623.190000	-18865.530000	0.000000	0.000000	0.000000	0.000000	-4.982461	30.683324	-4.380845	-3.263942	-0.000000	0.000000	0.000000	0.000000	3.525060	0.228900	-0.625660	-0.002258	0.981748	0.019958	-1.000000	-1.000000	-1.000000	-1.000000	-1.000000	-1.000000	-1.000000	146.758621	0.000000	-1.000000	-1.000000	638736.000000	1772311937.849854
-24417.810000	-34673.445000	-33643.305000	-18886.500000	0.000000	0.000000	0.000000	0.000000	-3.042498	14.782908	-2.538748	-2.003169	-0.000000	0.000000	0.000000	0.000000	3.525060	0.228900	-0.625660	-0.002258	0.981748	0.019958	-1.000000	-1.000000	-1.000000	-1.000000	-1.000000	-1.000000	-1.000000	146.758621	0.000000	-1.000000	-1.000000	638737.000000	1772311937.849856
-24411.465000	-34637.130000	-33632.820000	-18877.410000	0.000000	0.000000	0.000000	0.000000	-3.731896	-2.452646	-3.557177	-3.953632	-0.000000	0.000000	0.000000	0.000000	4.410140	0.228900	-0.701960	-0.003174	0.981138	0.020081	-1.000000	-1.000000	-1.000000	-1.000000	-1.000000	-1.000000	-1.000000	146.758621	0.000000	-1.000000	-1.000000	638738.000000	1772311937.853845
-24403.320000	-34622.685000	-33624.855000	-18866.835000	0.000000	0.000000	0.000000	0.000000	-4.722238	-11.680636	-4.578661	-5.831911	-0.000000	0.000000	0.000000	0.000000	4.410140	0.228900	-0.701960	-0.003174	0.981138	0.020081	-1.000000	-1.000000	-1.000000	-1.000000	-1.000000	-1.000000	-1.000000	146.758621	0.000000	-1.000000	-1.000000	638739.000000	1772311937.853849
-24408.900000	-34607.610000	-33632.955000	-18874.215000	0.000000	0.000000	0.000000	0.000000	-2.746167	-12.612315	-2.270396	-3.673858	-0.000000	0.000000	0.000000	0.000000	4.410140	0.228900	-0.701960	-0.003174	0.981138	0.020081	-1.000000	-1.000000	-1.000000	-1.000000	-1.000000	-1.000000	-1.000000	146.758621	0.000000	-1.000000	-1.000000	638740.000000	1772311937.859161
-24411.330000	-34610.895000	-33635.610000	-18877.230000	0.000000	0.000000	0.000000	0.000000	1.810844	-11.000793	2.448290	1.732683	-0.000000	0.000000	0.000000	0.000000	4.410140	0.228900	-0.701960	-0.003174	0.981138	0.020081	-1.000000	-1.000000	-1.000000	-1.000000	-1.000000	-1.000000	-1.000000	146.758621	0.000000	-1.000000	-1.000000	638741.000000	1772311937.859163
-24410.430000	-34608.465000	-33633.945000	-18874.395000	0.000000	0.000000	0.000000	0.000000	5.855168	-11.578598	6.195448	6.478172	-0.000000	0.000000	0.000000	0.000000	4.410140	0.228900	-0.701960	-0.003174	0.981138	0.020081	-1.000000	-1.000000	-1.000000	-1.000000	-1.000000	-1.000000	-1.000000	146.758621	0.000000	-1.000000	-1.000000	638742.000000	1772311937.862241
-24408.135000	-34604.640000	-33630.165000	-18870.795000	0.000000	0.000000	0.000000	0.000000	7.317215	-14.452353	7.236918	8.206046	-0.000000	0.000000	0.000000	0.000000	4.410140	0.228900	-0.701960	-0.003174	0.981138	0.020081	-1.000000	-1.000000	-1.000000	-1.000000	-1.000000	-1.000000	-1.000000	146.758621	0.000000	-1.000000	-1.000000	638743.000000	1772311937.862245
-24405.165000	-34615.440000	-33629.040000	-18873.090000	0.000000	0.000000	0.000000	0.000000	6.283729	-16.472091	6.046691	7.050190	-0.000000	0.000000	0.000000	0.000000	4.410140	0.228900	-0.701960	-0.003174	0.981138	0.020081	-1.000000	-1.000000	-1.000000	-1.000000	-1.000000	-1.000000	-1.000000	146.758621	0.000000	-1.000000	-1.000000	638744.000000	1772311937.866111
-24410.115000	-34612.830000	-33635.565000	-18877.860000	0.000000	0.000000	0.000000	0.000000	3.770832	-14.993510	3.570434	3.963712	-0.000000	0.000000	0.000000	0.000000	4.410140	0.228900	-0.701960	-0.003174	0.981138	0.020081	-1.000000	-1.000000	-1.000000	-1.000000	-1.000000	-1.000000	-1.000000	146.758621	0.000000	-1.000000	-1.000000	638745.000000	1772311937.866114
-24404.265000	-34615.665000	-33628.590000	-18870.795000	0.000000	0.000000	0.000000	0.000000	0.734729	-9.511000	0.514830	0.130991	-0.000000	0.000000	0.000000	0.000000	4.410140	0.228900	-0.701960	-0.003174	0.981138	0.020081	-1.000000	-1.000000	-1.000000	-1.000000	-1.000000	-1.000000	-1.000000	146.758621	0.000000	-1.000000	-1.000000	638746.000000	1772311937.870024
-24394.095000	-34622.685000	-33616.440000	-18859.095000	0.000000	0.000000	0.000000	0.000000	-1.660935	-1.478572	-1.876010	-2.618770	-0.000000	0.000000	0.000000	0.000000	4.410140	0.228900	-0.701960	-0.003174	0.981138	0.020081	-1.000000	-1.000000	-1.000000	-1.000000	-1.000000	-1.000000	-1.000000	146.758621	0.000000	-1.000000	-1.000000	638747.000000	1772311937.870027
-24392.205000	-34619.805000	-33615.045000	-18857.385000	0.000000	0.000000	0.000000	0.000000	-2.346756	6.372684	-2.309498	-2.869987	-0.000000	0.000000	0.000000	0.000000	4.455920	-0.076300	-0.671440	-0.002991	0.981931	0.019287	-1.000000	-1.000000	-1.000000	-1.000000	-1.000000	-1.000000	-1.000000	146.758621	0.000000	-1.000000	-1.000000	638748.000000	1772311937.874567
-24396.300000	-34640.370000	-33621.795000	-18864.225000	0.000000	0.000000	0.000000	0.000000	-1.745235	11.433327	-1.374786	-1.478862	-0.000000	0.000000	0.000000	0.000000	4.455920	-0.076300	-0.671440	-0.002991	0.981931	0.019287	-1.000000	-1.000000	-1.000000	-1.000000	-1.000000	-1.000000	-1.000000	146.758621	0.000000	-1.000000	-1.000000	638749.000000	1772311937.874570
-24402.555000	-34647.570000	-33626.610000	-18869.760000	0.000000	0.000000	0.000000	0.000000	-1.560974	12.126654	-1.168414	-0.864954	-0.000000	0.000000	0.000000	0.000000	4.455920	-0.076300	-0.671440	-0.002991	0.981931	0.019287	-1.000000	-1.000000	-1.000000	-1.000000	-1.000000	-1.000000	-1.000000	146.758621	0.000000	-1.000000	-1.000000	638750.000000	1772311937.877908
-24406.695000	-34660.260000	-33630.705000	-18875.790000	0.000000	0.000000	0.000000	0.000000	-2.751981	8.805429	-2.648939	-2.231626	-0.000000	0.000000	0.000000	0.000000	4.455920	-0.076300	-0.671440	-0.002991	0.981931	0.019287	-1.000000	-1.000000	-1.000000	-1.000000	-1.000000	-1.000000	-1.000000	146.758621	0.000000	-1.000000	-1.000000	638751.000000	1772311937.877910
-24401.970000	-34665.300000	-33626.430000	-18868.050000	0.000000	0.000000	0.000000	0.000000	-4.333736	3.929057	-4.499638	-4.253997	-0.000000	0.000000	0.000000	0.000000	4.455920	-0.076300	-0.671440	-0.002991	0.981931	0.019287	-1.000000	-1.000000	-1.000000	-1.000000	-1.000000	-1.000000	-1.000000	146.758621	0.000000	-1.000000	-1.000000	638752.000000	1772311937.881935
-24398.955000	-34647.705000	-33624.090000	-18864.540000	0.000000	0.000000	0.000000	0.000000	-4.320420	0.732117	-4.575944	-4.437942	-0.000000	0.000000	0.000000	0.000000	4.455920	-0.076300	-0.671440	-0.002991	0.981931	0.019287	-1.000000	-1.000000	-1.000000	-1.000000	-1.000000	-1.000000	-1.000000	146.758621	0.000000	-1.000000	-1.000000	638753.000000	1772311937.881938
-24382.755000	-34651.620000	-33609.375000	-18847.890000	0.000000	0.000000	0.000000	0.000000	-1.610668	1.257502	-1.867553	-1.503424	-0.000000	0.000000	0.000000	0.000000	4.455920	-0.076300	-0.671440	-0.002991	0.981931	0.019287	-1.000000	-1.000000	-1.000000	-1.000000	-1.000000	-1.000000	-1.000000	146.758621	0.000000	-1.000000	-1.000000	638754.000000	1772311937.885897
-24391.440000	-34681.545000	-33617.205000	-18855.720000	0.000000	0.000000	0.000000	0.000000	2.786956	3.710809	2.530248	3.249490	-0.000000	0.000000	0.000000	0.000000	4.455920	-0.076300	-0.671440	-0.002991	0.981931	0.019287	-1.000000	-1.000000	-1.000000	-1.000000	-1.000000	-1.000000	-1.000000	146.758621	0.000000	-1.000000	-1.000000	638755.000000	1772311937.885900
-24399.495000	-34691.715000	-33627.060000	-18868.095000	0.000000	0.000000	0.000000	0.000000	5.817665	3.520803	5.601993	6.317204	-0.000000	0.000000	0.000000	0.000000	4.455920	-0.076300	-0.671440	-0.002991	0.981931	0.019287	-1.000000	-1.000000	-1.000000	-1.000000	-1.000000	-1.000000	-1.000000	146.758621	0.000000	-1.000000	-1.000000	638756.000000	1772311937.889989
-24387.840000	-34691.895000	-33614.910000	-18858.105000	0.000000	0.000000	0.000000	0.000000	5.150405	-0.640383	5.056787	5.088009	-0.000000	0.000000	0.000000	0.000000	4.455920	-0.076300	-0.671440	-0.002991	0.981931	0.019287	-1.000000	-1.000000	-1.000000	-1.000000	-1.000000	-1.000000	-1.000000	146.758621	0.000000	-1.000000	-1.000000	638757.000000	1772311937.889991
-24386.445000	-34673.625000	-33607.395000	-18852.525000	0.000000	0.000000	0.000000	0.000000	2.006152	-4.667149	2.208541	1.087414	-0.000000	0.000000	0.000000	0.000000	4.288060	0.061040	-0.503580	-0.003113	0.982236	0.017578	-1.000000	-1.000000	-1.000000	-1.000000	-1.000000	-1.000000	-1.000000	146.758621	0.000000	-1.000000	-1.000000	638758.000000	1772311937.894001
-24401.070000	-34657.200000	-33623.505000	-18866.250000	0.000000	0.000000	0.000000	0.000000	-1.087864	-3.819043	-0.299634	-2.299943	-0.000000	0.000000	0.000000	0.000000	4.288060	0.061040	-0.503580	-0.003113	0.982236	0.017578	-1.000000	-1.000000	-1.000000	-1.000000	-1.000000	-1.000000	-1.000000	146.758621	0.000000	-1.000000	-1.000000	638759.000000	1772311937.894004
-24415.650000	-34664.805000	-33644.115000	-18886.950000	0.000000	0.000000	0.000000	0.000000	-3.643120	1.783578	-2.432210	-4.297613	-0.000000	0.000000	0.000000	0.000000	4.288060	0.061040	-0.503580	-0.003113	0.982236	0.017578	-1.000000	-1.000000	-1.000000	-1.000000	-1.000000	-1.000000	-1.000000	146.758621	0.000000	-1.000000	-1.000000	638760.000000	1772311937.898006
-24418.800000	-34653.735000	-33647.310000	-18891.945000	0.000000	0.000000	0.000000	0.000000	-5.930650	7.149873	-5.242738	-5.958920	-0.000000	0.000000	0.000000	0.000000	4.288060	0.061040	-0.503580	-0.003113	0.982236	0.017578	-1.000000	-1.000000	-1.000000	-1.000000	-1.000000	-1.000000	-1.000000	146.758621	0.000000	-1.000000	-1.000000	638761.000000	1772311937.898008
-24404.040000	-34593.390000	-33634.845000	-18882.405000	0.000000	0.000000	0.000000	0.000000	-6.443143	8.944005	-7.117110	-6.512191	-0.000000	0.000000	0.000000	0.000000	4.288060	0.061040	-0.503580	-0.003113	0.982236	0.017578	-1.000000	-1.000000	-1.000000	-1.000000	-1.000000	-1.000000	-1.000000	146.758621	0.000000	-1.000000	-1.000000	638762.000000	1772311937.902015
-24401.745000	-34558.380000	-33633.630000	-18878.220000	0.000000	0.000000	0.000000	0.000000	-3.147589	9.183785	-5.021877	-3.712424	-0.000000	0.000000	0.000000	0.000000	4.288060	0.061040	-0.503580	-0.003113	0.982236	0.017578	-1.000000	-1.000000	-1.000000	-1.000000	-1.000000	-1.000000	-1.000000	146.758621	0.000000	-1.000000	-1.000000	638763.000000	1772311937.902018
-24374.115000	-34577.100000	-33603.840000	-18845.910000	0.000000	0.000000	0.000000	0.000000	3.551971	8.894271	1.500253	2.945742	-0.000000	0.000000	0.000000	0.000000	4.288060	0.061040	-0.503580	-0.003113	0.982236	0.017578	-1.000000	-1.000000	-1.000000	-1.000000	-1.000000	-1.000000	-1.000000	146.758621	0.000000	-1.000000	-1.000000	638764.000000	1772311937.905990
-24378.255000	-34586.190000	-33605.595000	-18846.135000	0.000000	0.000000	0.000000	0.000000	10.490542	3.827816	9.509398	10.991980	-0.000000	0.000000	0.000000	0.000000	4.288060	0.061040	-0.503580	-0.003113	0.982236	0.017578	-1.000000	-1.000000	-1.000000	-1.000000	-1.000000	-1.000000	-1.000000	146.758621	0.000000	-1.000000	-1.000000	638765.000000	1772311937.905994
-24402.825000	-34613.145000	-33633.405000	-18876.465000	0.000000	0.000000	0.000000	0.000000	12.928329	-8.698797	13.698022	15.137392	-0.000000	0.000000	0.000000	0.000000	4.288060	0.061040	-0.503580	-0.003113	0.982236	0.017578	-1.000000	-1.000000	-1.000000	-1.000000	-1.000000	-1.000000	-1.000000	146.758621	0.000000	-1.000000	-1.000000	638766.000000	1772311937.910030
-24401.295000	-34615.035000	-33632.235000	-18877.725000	0.000000	0.000000	0.000000	0.000000	7.643023	-23.789355	9.691167	10.560226	-0.000000	0.000000	0.000000	0.000000	4.288060	0.061040	-0.503580	-0.003113	0.982236	0.017578	-1.000000	-1.000000	-1.000000	-1.000000	-1.000000	-1.000000	-1.000000	146.758621	0.000000	-1.000000	-1.000000	638767.000000	1772311937.910033
-24380.505000	-34598.475000	-33607.215000	-18852.840000	0.000000	0.000000	0.000000	0.000000	-2.305395	-31.829608	-0.136293	-0.495799	-0.000000	0.000000	0.000000	0.000000	3.982860	0.183120	-0.534100	-0.003418	0.983457	0.016418	-1.000000	-1.000000	-1.000000	-1.000000	-1.000000	-1.000000	-1.000000	146.758621	0.000000	-1.000000	-1.000000	638768.000000	1772311937.914026
-24416.190000	-34567.830000	-33631.740000	-18871.245000	0.000000	0.000000	0.000000	0.000000	-10.053727	-25.560672	-8.353540	-9.880821	-0.000000	0.000000	0.000000	0.000000	3.982860	0.183120	-0.534100	-0.003418	0.983457	0.016418	-1.000000	-1.000000	-1.000000	-1.000000	-1.000000	-1.000000	-1.000000	146.758621	0.000000	-1.000000	-1.000000	638769.000000	1772311937.914028
-24434.685000	-34549.965000	-33653.205000	-18880.785000	0.000000	0.000000	0.000000	0.000000	-13.007079	-6.131889	-11.494620	-12.940725	-0.000000	0.000000	0.000000	0.000000	3.982860	0.183120	-0.534100	-0.003418	0.983457	0.016418	-1.000000	-1.000000	-1.000000	-1.000000	-1.000000	-1.000000	-1.000000	146.758621	0.000000	-1.000000	-1.000000	638770.000000	1772311937.917942
-24427.575000	-34532.415000	-33644.565000	-18874.620000	0.000000	0.000000	0.000000	0.000000	-12.493502	16.684585	-11.152789	-10.944123	-0.000000	0.000000	0.000000	0.000000	3.982860	0.183120	-0.534100	-0.003418	0.983457	0.016418	-1.000000	-1.000000	-1.000000	-1.000000	-1.000000	-1.000000	-1.000000	146.758621	0.000000	-1.000000	-1.000000	638771.000000	1772311937.917945
-24394.500000	-34517.340000	-33625.170000	-18861.840000	0.000000	0.000000	0.000000	0.000000	-7.855170	31.233790	-7.736850	-5.868297	-0.000000	0.000000	0.000000	0.000000	3.982860	0.183120	-0.534100	-0.003418	0.983457	0.016418	-1.000000	-1.000000	-1.000000	-1.000000	-1.000000	-1.000000	-1.000000	146.758621	0.000000	-1.000000	-1.000000	638772.000000	1772311937.922056
-24398.640000	-34533.450000	-33636.960000	-18871.470000	0.000000	0.000000	0.000000	0.000000	1.894016	31.044580	-0.725995	0.837572	-0.000000	0.000000	0.000000	0.000000	3.982860	0.183120	-0.534100	-0.003418	0.983457	0.016418	-1.000000	-1.000000	-1.000000	-1.000000	-1.000000	-1.000000	-1.000000	146.758621	0.000000	-1.000000	-1.000000	638773.000000	1772311937.922059
-24404.040000	-34551.000000	-33640.110000	-18875.565000	0.000000	0.000000	0.000000	0.000000	12.577470	16.768268	6.896717	6.294925	-0.000000	0.000000	0.000000	0.000000	3.982860	0.183120	-0.534100	-0.003418	0.983457	0.016418	-1.000000	-1.000000	-1.000000	-1.000000	-1.000000	-1.000000	-1.000000	146.758621	0.000000	-1.000000	-1.000000	638774.000000	1772311937.926148
-24395.310000	-34539.570000	-33633.495000	-18870.390000	0.000000	0.000000	0.000000	0.000000	17.362741	-4.320977	10.706546	7.895507	-0.000000	0.000000	0.000000	0.000000	3.982860	0.183120	-0.534100	-0.003418	0.983457	0.016418	-1.000000	-1.000000	-1.000000	-1.000000	-1.000000	-1.000000	-1.000000	146.758621	0.000000	-1.000000	-1.000000	638775.000000	1772311937.926152
-24382.485000	-34516.980000	-33614.910000	-18851.895000	0.000000	0.000000	0.000000	0.000000	14.138809	-20.658048	9.956052	6.337290	-0.000000	0.000000	0.000000	0.000000	3.982860	0.183120	-0.534100	-0.003418	0.983457	0.016418	-1.000000	-1.000000	-1.000000	-1.000000	-1.000000	-1.000000	-1.000000	146.758621	0.000000	-1.000000	-1.000000	638776.000000	1772311937.930202
-24381.045000	-34527.915000	-33616.935000	-18853.515000	0.000000	0.000000	0.000000	0.000000	6.370251	-23.960695	7.039777	4.296828	-0.000000	0.000000	0.000000	0.000000	3.982860	0.183120	-0.534100	-0.003418	0.983457	0.016418	-1.000000	-1.000000	-1.000000	-1.000000	-1.000000	-1.000000	-1.000000	146.758621	0.000000	-1.000000	-1.000000	638777.000000	1772311937.930204
-24404.535000	-34540.470000	-33640.875000	-18875.700000	0.000000	0.000000	0.000000	0.000000	-2.163860	-15.986615	3.055812	2.318728	-0.000000	0.000000	0.000000	0.000000	2.884140	0.183120	-0.381500	-0.003113	0.983213	0.015503	-1.000000	-1.000000	-1.000000	-1.000000	-1.000000	-1.000000	-1.000000	146.758621	0.000000	-1.000000	-1.000000	638778.000000	1772311937.934269
-24406.245000	-34540.380000	-33642.720000	-18879.930000	0.000000	0.000000	0.000000	0.000000	-9.841543	-4.932565	-2.693579	-1.275013	-0.000000	0.000000	0.000000	0.000000	2.884140	0.183120	-0.381500	-0.003113	0.983213	0.015503	-1.000000	-1.000000	-1.000000	-1.000000	-1.000000	-1.000000	-1.000000	146.758621	0.000000	-1.000000	-1.000000	638779.000000	1772311937.934272
-24385.815000	-34573.455000	-33620.670000	-18863.145000	0.000000	0.000000	0.000000	0.000000	-14.502283	2.671894	-8.456445	-5.822038	-0.000000	0.000000	0.000000	0.000000	2.884140	0.183120	-0.381500	-0.003113	0.983213	0.015503	-1.000000	-1.000000	-1.000000	-1.000000	-1.000000	-1.000000	-1.000000	146.758621	0.000000	-1.000000	-1.000000	638780.000000	1772311937.938443
-24394.275000	-34602.660000	-33627.195000	-18868.815000	0.000000	0.000000	0.000000	0.000000	-13.199688	4.306471	-10.007890	-7.667548	-0.000000	0.000000	0.000000	0.000000	2.884140	0.183120	-0.381500	-0.003113	0.983213	0.015503	-1.000000	-1.000000	-1.000000	-1.000000	-1.000000	-1.000000	-1.000000	146.758621	0.000000	-1.000000	-1.000000	638781.000000	1772311937.938447
-24415.200000	-34594.740000	-33645.555000	-18884.205000	0.000000	0.000000	0.000000	0.000000	-6.907083	1.547082	-6.644235	-5.495295	-0.000000	0.000000	0.000000	0.000000	2.884140	0.183120	-0.381500	-0.003113	0.983213	0.015503	-1.000000	-1.000000	-1.000000	-1.000000	-1.000000	-1.000000	-1.000000	146.758621	0.000000	-1.000000	-1.000000	638782.000000	1772311937.942147
-24412.860000	-34553.565000	-33645.555000	-18882.585000	0.000000	0.000000	0.000000	0.000000	-0.495712	0.489649	-2.234055	-1.930324	-0.000000	0.000000	0.000000	0.000000	2.884140	0.183120	-0.381500	-0.003113	0.983213	0.015503	-1.000000	-1.000000	-1.000000	-1.000000	-1.000000	-1.000000	-1.000000	146.758621	0.000000	-1.000000	-1.000000	638783.000000	1772311937.942150
-24406.740000	-34543.755000	-33642.045000	-18882.225000	0.000000	0.000000	0.000000	0.000000	3.293128	6.470191	0.484626	0.761068	-0.000000	0.000000	0.000000	0.000000	2.884140	0.183120	-0.381500	-0.003113	0.983213	0.015503	-1.000000	-1.000000	-1.000000	-1.000000	-1.000000	-1.000000	-1.000000	146.758621	0.000000	-1.000000	-1.000000	638784.000000	1772311937.946234
-24409.665000	-34522.290000	-33642.540000	-18879.660000	0.000000	0.000000	0.000000	0.000000	5.375960	16.990498	2.097853	2.615044	-0.000000	0.000000	0.000000	0.000000	2.884140	0.183120	-0.381500	-0.003113	0.983213	0.015503	-1.000000	-1.000000	-1.000000	-1.000000	-1.000000	-1.000000	-1.000000	146.758621	0.000000	-1.000000	-1.000000	638785.000000	1772311937.946237
-24405.705000	-34492.365000	-33637.275000	-18875.430000	0.000000	0.000000	0.000000	0.000000	6.742156	24.156267	3.681942	4.161695	-0.000000	0.000000	0.000000	0.000000	2.884140	0.183120	-0.381500	-0.003113	0.983213	0.015503	-1.000000	-1.000000	-1.000000	-1.000000	-1.000000	-1.000000	-1.000000	146.758621	0.000000	-1.000000	-1.000000	638786.000000	1772311937.950214
-24399.810000	-34473.870000	-33634.440000	-18875.655000	0.000000	0.000000	0.000000	0.000000	7.206520	22.734678	5.158446	5.207376	-0.000000	0.000000	0.000000	0.000000	2.884140	0.183120	-0.381500	-0.003113	0.983213	0.015503	-1.000000	-1.000000	-1.000000	-1.000000	-1.000000	-1.000000	-1.000000	146.758621	0.000000	-1.000000	-1.000000	638787.000000	1772311937.950217
-24386.985000	-34486.695000	-33619.185000	-18859.320000	0.000000	0.000000	0.000000	0.000000	6.670795	12.328885	5.991007	5.312878	-0.000000	0.000000	0.000000	0.000000	2.594200	0.045780	-0.320460	-0.003174	0.983396	0.015686	-1.000000	-1.000000	-1.000000	-1.000000	-1.000000	-1.000000	-1.000000	146.758621	0.000000	-1.000000	-1.000000	638788.000000	1772311937.954257
-24385.950000	-34529.490000	-33620.265000	-18857.430000	0.000000	0.000000	0.000000	0.000000	5.326028	-5.113012	5.804043	4.551058	-0.000000	0.000000	0.000000	0.000000	2.594200	0.045780	-0.320460	-0.003174	0.983396	0.015686	-1.000000	-1.000000	-1.000000	-1.000000	-1.000000	-1.000000	-1.000000	146.758621	0.000000	-1.000000	-1.000000	638789.000000	1772311937.954260
-24405.705000	-34539.795000	-33640.380000	-18873.180000	0.000000	0.000000	0.000000	0.000000	2.586646	-25.134828	3.703724	2.656880	-0.000000	0.000000	0.000000	0.000000	2.594200	0.045780	-0.320460	-0.003174	0.983396	0.015686	-1.000000	-1.000000	-1.000000	-1.000000	-1.000000	-1.000000	-1.000000	146.758621	0.000000	-1.000000	-1.000000	638790.000000	1772311937.958275
-24416.370000	-34505.505000	-33650.370000	-18888.705000	0.000000	0.000000	0.000000	0.000000	-2.543321	-38.523453	-1.349030	-1.453874	-0.000000	0.000000	0.000000	0.000000	2.594200	0.045780	-0.320460	-0.003174	0.983396	0.015686	-1.000000	-1.000000	-1.000000	-1.000000	-1.000000	-1.000000	-1.000000	146.758621	0.000000	-1.000000	-1.000000	638791.000000	1772311937.958278
-24425.055000	-34478.730000	-33657.345000	-18896.625000	0.000000	0.000000	0.000000	0.000000	-8.971337	-35.297279	-7.990283	-7.379756	-0.000000	0.000000	0.000000	0.000000	2.594200	0.045780	-0.320460	-0.003174	0.983396	0.015686	-1.000000	-1.000000	-1.000000	-1.000000	-1.000000	-1.000000	-1.000000	146.758621	0.000000	-1.000000	-1.000000	638792.000000	1772311937.962260
-24413.715000	-34474.770000	-33647.265000	-18882.180000	0.000000	0.000000	0.000000	0.000000	-12.849398	-15.013270	-12.064585	-11.611255	-0.000000	0.000000	0.000000	0.000000	2.594200	0.045780	-0.320460	-0.003174	0.983396	0.015686	-1.000000	-1.000000	-1.000000	-1.000000	-1.000000	-1.000000	-1.000000	146.758621	0.000000	-1.000000	-1.000000	638793.000000	1772311937.962263
-24394.140000	-34457.715000	-33629.085000	-18861.165000	0.000000	0.000000	0.000000	0.000000	-10.364990	10.671038	-9.792617	-9.802066	-0.000000	0.000000	0.000000	0.000000	2.594200	0.045780	-0.320460	-0.003174	0.983396	0.015686	-1.000000	-1.000000	-1.000000	-1.000000	-1.000000	-1.000000	-1.000000	146.758621	0.000000	-1.000000	-1.000000	638794.000000	1772311937.966311
-24393.600000	-34460.190000	-33628.545000	-18863.190000	0.000000	0.000000	0.000000	0.000000	-1.538881	27.757429	-1.373762	-1.438531	-0.000000	0.000000	0.000000	0.000000	2.594200	0.045780	-0.320460	-0.003174	0.983396	0.015686	-1.000000	-1.000000	-1.000000	-1.000000	-1.000000	-1.000000	-1.000000	146.758621	0.000000	-1.000000	-1.000000	638795.000000	1772311937.966314
-24390.090000	-34469.640000	-33625.305000	-18858.420000	0.000000	0.000000	0.000000	0.000000	8.570935	29.213776	8.225623	8.346914	-0.000000	0.000000	0.000000	0.000000	2.594200	0.045780	-0.320460	-0.003174	0.983396	0.015686	-1.000000	-1.000000	-1.000000	-1.000000	-1.000000	-1.000000	-1.000000	146.758621	0.000000	-1.000000	-1.000000	638796.000000	1772311937.970290
-24385.545000	-34459.830000	-33620.580000	-18854.010000	0.000000	0.000000	0.000000	0.000000	13.843811	17.163727	13.183692	13.286545	-0.000000	0.000000	0.000000	0.000000	2.594200	0.045780	-0.320460	-0.003174	0.983396	0.015686	-1.000000	-1.000000	-1.000000	-1.000000	-1.000000	-1.000000	-1.000000	146.758621	0.000000	-1.000000	-1.000000	638797.000000	1772311937.970293
-24403.905000	-34448.445000	-33636.330000	-18871.875000	0.000000	0.000000	0.000000	0.000000	11.667268	0.546844	11.105648	10.900286	-0.000000	0.000000	0.000000	0.000000	2.868880	0.122080	-0.503580	-0.002258	0.983457	0.016296	-1.000000	-1.000000	-1.000000	-1.000000	-1.000000	-1.000000	-1.000000	146.758621	0.000000	-1.000000	-1.000000	638798.000000	1772311937.974264
-24412.545000	-34438.680000	-33641.865000	-18880.155000	0.000000	0.000000	0.000000	0.000000	3.386001	-11.078474	3.384906	2.679541	-0.000000	0.000000	0.000000	0.000000	2.868880	0.122080	-0.503580	-0.002258	0.983457	0.016296	-1.000000	-1.000000	-1.000000	-1.000000	-1.000000	-1.000000	-1.000000	146.758621	0.000000	-1.000000	-1.000000	638799.000000	1772311937.974267
-24400.620000	-34394.760000	-33633.090000	-18872.325000	0.000000	0.000000	0.000000	0.000000	-6.435382	-13.023615	-5.705546	-6.911784	-0.000000	0.000000	0.000000	0.000000	2.868880	0.122080	-0.503580	-0.002258	0.983457	0.016296	-1.000000	-1.000000	-1.000000	-1.000000	-1.000000	-1.000000	-1.000000	146.758621	0.000000	-1.000000	-1.000000	638800.000000	1772311937.978121
-24410.520000	-34377.030000	-33648.165000	-18886.725000	0.000000	0.000000	0.000000	0.000000	-12.052052	-6.209992	-11.159395	-12.490117	-0.000000	0.000000	0.000000	0.000000	2.868880	0.122080	-0.503580	-0.002258	0.983457	0.016296	-1.000000	-1.000000	-1.000000	-1.000000	-1.000000	-1.000000	-1.000000	146.758621	0.000000	-1.000000	-1.000000	638801.000000	1772311937.978124
-24392.970000	-34407.495000	-33627.195000	-18863.370000	0.000000	0.000000	0.000000	0.000000	-10.740858	2.952327	-10.665347	-11.386567	-0.000000	0.000000	0.000000	0.000000	2.868880	0.122080	-0.503580	-0.002258	0.983457	0.016296	-1.000000	-1.000000	-1.000000	-1.000000	-1.000000	-1.000000	-1.000000	146.758621	0.000000	-1.000000	-1.000000	638802.000000	1772311937.982309
-24393.285000	-34424.415000	-33628.410000	-18858.915000	0.000000	0.000000	0.000000	0.000000	-4.086366	5.454628	-5.117311	-4.473508	-0.000000	0.000000	0.000000	0.000000	2.868880	0.122080	-0.503580	-0.002258	0.983457	0.016296	-1.000000	-1.000000	-1.000000	-1.000000	-1.000000	-1.000000	-1.000000	146.758621	0.000000	-1.000000	-1.000000	638803.000000	1772311937.982311
-24421.815000	-34418.745000	-33658.290000	-18887.580000	0.000000	0.000000	0.000000	0.000000	3.260901	-1.523503	1.801878	4.089931	-0.000000	0.000000	0.000000	0.000000	2.868880	0.122080	-0.503580	-0.002258	0.983457	0.016296	-1.000000	-1.000000	-1.000000	-1.000000	-1.000000	-1.000000	-1.000000	146.758621	0.000000	-1.000000	-1.000000	638804.000000	1772311937.986316
-24441.165000	-34447.725000	-33676.515000	-18908.640000	0.000000	0.000000	0.000000	0.000000	5.803083	-11.616932	4.772634	7.998212	-0.000000	0.000000	0.000000	0.000000	2.868880	0.122080	-0.503580	-0.002258	0.983457	0.016296	-1.000000	-1.000000	-1.000000	-1.000000	-1.000000	-1.000000	-1.000000	146.758621	0.000000	-1.000000	-1.000000	638805.000000	1772311937.986318
-24408.630000	-34465.050000	-33643.755000	-18875.835000	0.000000	0.000000	0.000000	0.000000	2.765829	-17.309151	2.639649	5.200662	-0.000000	0.000000	0.000000	0.000000	2.868880	0.122080	-0.503580	-0.002258	0.983457	0.016296	-1.000000	-1.000000	-1.000000	-1.000000	-1.000000	-1.000000	-1.000000	146.758621	0.000000	-1.000000	-1.000000	638806.000000	1772311937.990399
-24389.055000	-34449.255000	-33623.460000	-18857.430000	0.000000	0.000000	0.000000	0.000000	0.073477	-15.294510	0.873980	1.321267	-0.000000	0.000000	0.000000	0.000000	2.868880	0.122080	-0.503580	-0.002258	0.983457	0.016296	-1.000000	-1.000000	-1.000000	-1.000000	-1.000000	-1.000000	-1.000000	146.758621	0.000000	-1.000000	-1.000000	638807.000000	1772311937.990402
-24385.590000	-34414.380000	-33622.965000	-18864.945000	0.000000	0.000000	0.000000	0.000000	2.565765	-4.853871	3.874479	1.792335	-0.000000	0.000000	0.000000	0.000000	4.104940	-0.061040	-0.534100	-0.003113	0.981504	0.018188	-1.000000	-1.000000	-1.000000	-1.000000	-1.000000	-1.000000	-1.000000	146.758621	0.000000	-1.000000	-1.000000	638808.000000	1772311937.994296
-24393.240000	-34384.365000	-33628.905000	-18864.630000	0.000000	0.000000	0.000000	0.000000	7.463200	11.870697	8.604536	4.724779	-0.000000	0.000000	0.000000	0.000000	4.104940	-0.061040	-0.534100	-0.003113	0.981504	0.018188	-1.000000	-1.000000	-1.000000	-1.000000	-1.000000	-1.000000	-1.000000	146.758621	0.000000	-1.000000	-1.000000	638809.000000	1772311937.994299
-24389.730000	-34376.940000	-33627.465000	-18862.830000	0.000000	0.000000	0.000000	0.000000	8.651060	27.785879	9.126663	5.230068	-0.000000	0.000000	0.000000	0.000000	4.104940	-0.061040	-0.534100	-0.003113	0.981504	0.018188	-1.000000	-1.000000	-1.000000	-1.000000	-1.000000	-1.000000	-1.000000	146.758621	0.000000	-1.000000	-1.000000	638810.000000	1772311937.998375
-24382.170000	-34369.335000	-33622.155000	-18867.870000	0.000000	0.000000	0.000000	0.000000	4.212219	33.648975	3.915853	1.816464	-0.000000	0.000000	0.000000	0.000000	4.104940	-0.061040	-0.534100	-0.003113	0.981504	0.018188	-1.000000	-1.000000	-1.000000	-1.000000	-1.000000	-1.000000	-1.000000	146.758621	0.000000	-1.000000	-1.000000	638811.000000	1772311937.998378
-24388.560000	-34337.835000	-33630.705000	-18876.420000	0.000000	0.000000	0.000000	0.000000	-2.733662	25.586183	-3.668198	-3.644248	-0.000000	0.000000	0.000000	0.000000	4.104940	-0.061040	-0.534100	-0.003113	0.981504	0.018188	-1.000000	-1.000000	-1.000000	-1.000000	-1.000000	-1.000000	-1.000000	146.758621	0.000000	-1.000000	-1.000000	638812.000000	1772311938.002360
-24390.720000	-34308.090000	-33630.345000	-18864.090000	0.000000	0.000000	0.000000	0.000000	-8.395181	8.909430	-9.606638	-8.134935	-0.000000	0.000000	0.000000	0.000000	4.104940	-0.061040	-0.534100	-0.003113	0.981504	0.018188	-1.000000	-1.000000	-1.000000	-1.000000	-1.000000	-1.000000	-1.000000	146.758621	0.000000	-1.000000	-1.000000	638813.000000	1772311938.002363
-24392.610000	-34335.990000	-33628.815000	-18861.750000	0.000000	0.000000	0.000000	0.000000	-10.835441	-8.004038	-11.610492	-8.843962	-0.000000	0.000000	0.000000	0.000000	4.104940	-0.061040	-0.534100	-0.003113	0.981504	0.018188	-1.000000	-1.000000	-1.000000	-1.000000	-1.000000	-1.000000	-1.000000	146.758621	0.000000	-1.000000	-1.000000	638814.000000	1772311938.006393
-24405.750000	-34333.515000	-33643.800000	-18882.675000	0.000000	0.000000	0.000000	0.000000	-9.880132	-21.135207	-9.517421	-5.616658	-0.000000	0.000000	0.000000	0.000000	4.104940	-0.061040	-0.534100	-0.003113	0.981504	0.018188	-1.000000	-1.000000	-1.000000	-1.000000	-1.000000	-1.000000	-1.000000	146.758621	0.000000	-1.000000	-1.000000	638815.000000	1772311938.006396
-24404.625000	-34298.955000	-33643.575000	-18884.790000	0.000000	0.000000	0.000000	0.000000	-6.629246	-28.372518	-5.194037	-1.613095	-0.000000	0.000000	0.000000	0.000000	4.104940	-0.061040	-0.534100	-0.003113	0.981504	0.018188	-1.000000	-1.000000	-1.000000	-1.000000	-1.000000	-1.000000	-1.000000	146.758621	0.000000	-1.000000	-1.000000	638816.000000	1772311938.010424
-24417.765000	-34287.210000	-33651.765000	-18885.780000	0.000000	0.000000	0.000000	0.000000	-2.479516	-26.221551	-0.786204	0.657882	-0.000000	0.000000	0.000000	0.000000	4.104940	-0.061040	-0.534100	-0.003113	0.981504	0.018188	-1.000000	-1.000000	-1.000000	-1.000000	-1.000000	-1.000000	-1.000000	146.758621	0.000000	-1.000000	-1.000000	638817.000000	1772311938.010427
-24409.440000	-34298.505000	-33643.530000	-18883.935000	0.000000	0.000000	0.000000	0.000000	1.601963	-15.167743	2.843603	1.743938	-0.000000	0.000000	0.000000	0.000000	3.891300	0.473060	-0.366240	-0.002625	0.981870	0.017212	-1.000000	-1.000000	-1.000000	-1.000000	-1.000000	-1.000000	-1.000000	146.758621	0.000000	-1.000000	-1.000000	638818.000000	1772311938.014437
-24403.815000	-34324.470000	-33640.020000	-18872.145000	0.000000	0.000000	0.000000	0.000000	5.337659	-2.597591	5.825089	3.221850	-0.000000	0.000000	0.000000	0.000000	3.891300	0.473060	-0.366240	-0.002625	0.981870	0.017212	-1.000000	-1.000000	-1.000000	-1.000000	-1.000000	-1.000000	-1.000000	146.758621	0.000000	-1.000000	-1.000000	638819.000000	1772311938.014440
-24407.145000	-34322.760000	-33645.870000	-18871.470000	0.000000	0.000000	0.000000	0.000000	8.449238	4.141771	7.947422	5.507527	-0.000000	0.000000	0.000000	0.000000	3.891300	0.473060	-0.366240	-0.002625	0.981870	0.017212	-1.000000	-1.000000	-1.000000	-1.000000	-1.000000	-1.000000	-1.000000	146.758621	0.000000	-1.000000	-1.000000	638820.000000	1772311938.018391
-24396.120000	-34311.015000	-33632.550000	-18864.405000	0.000000	0.000000	0.000000	0.000000	9.846151	4.954484	8.289438	7.364744	-0.000000	0.000000	0.000000	0.000000	3.891300	0.473060	-0.366240	-0.002625	0.981870	0.017212	-1.000000	-1.000000	-1.000000	-1.000000	-1.000000	-1.000000	-1.000000	146.758621	0.000000	-1.000000	-1.000000	638821.000000	1772311938.018394
-24400.530000	-34333.425000	-33638.220000	-18869.220000	0.000000	0.000000	0.000000	0.000000	8.651007	4.493902	6.546988	7.011952	-0.000000	0.000000	0.000000	0.000000	3.891300	0.473060	-0.366240	-0.002625	0.981870	0.017212	-1.000000	-1.000000	-1.000000	-1.000000	-1.000000	-1.000000	-1.000000	146.758621	0.000000	-1.000000	-1.000000	638822.000000	1772311938.022627
-24387.660000	-34346.925000	-33628.905000	-18862.785000	0.000000	0.000000	0.000000	0.000000	5.205486	4.812712	3.371107	3.847500	-0.000000	0.000000	0.000000	0.000000	3.891300	0.473060	-0.366240	-0.002625	0.981870	0.017212	-1.000000	-1.000000	-1.000000	-1.000000	-1.000000	-1.000000	-1.000000	146.758621	0.000000	-1.000000	-1.000000	638823.000000	1772311938.022629
-24355.935000	-34354.485000	-33594.930000	-18832.770000	0.000000	0.000000	0.000000	0.000000	1.436660	4.784566	0.393840	-0.313681	-0.000000	0.000000	0.000000	0.000000	3.891300	0.473060	-0.366240	-0.002625	0.981870	0.017212	-1.000000	-1.000000	-1.000000	-1.000000	-1.000000	-1.000000	-1.000000	146.758621	0.000000	-1.000000	-1.000000	638824.000000	1772311938.026426
-24375.555000	-34364.970000	-33615.900000	-18855.855000	0.000000	0.000000	0.000000	0.000000	-0.732758	4.031933	-0.810367	-2.900579	-0.000000	0.000000	0.000000	0.000000	3.891300	0.473060	-0.366240	-0.002625	0.981870	0.017212	-1.000000	-1.000000	-1.000000	-1.000000	-1.000000	-1.000000	-1.000000	146.758621	0.000000	-1.000000	-1.000000	638825.000000	1772311938.026430
-24439.950000	-34369.380000	-33677.775000	-18908.370000	0.000000	0.000000	0.000000	0.000000	-3.562510	3.417478	-2.680221	-5.169125	-0.000000	0.000000	0.000000	0.000000	3.891300	0.473060	-0.366240	-0.002625	0.981870	0.017212	-1.000000	-1.000000	-1.000000	-1.000000	-1.000000	-1.000000	-1.000000	146.758621	0.000000	-1.000000	-1.000000	638826.000000	1772311938.030525
-24427.395000	-34361.730000	-33660.855000	-18888.840000	0.000000	0.000000	0.000000	0.000000	-10.595141	3.802275	-8.878074	-9.913052	-0.000000	0.000000	0.000000	0.000000	3.891300	0.473060	-0.366240	-0.002625	0.981870	0.017212	-1.000000	-1.000000	-1.000000	-1.000000	-1.000000	-1.000000	-1.000000	146.758621	0.000000	-1.000000	-1.000000	638827.000000	1772311938.030529
-24402.870000	-34371.090000	-33639.255000	-18875.115000	0.000000	0.000000	0.000000	0.000000	-17.553264	5.282016	-15.303833	-13.713004	-0.000000	0.000000	0.000000	0.000000	3.845520	-0.076300	-0.167860	-0.003052	0.983152	0.016540	-1.000000	-1.000000	-1.000000	-1.000000	-1.000000	-1.000000	-1.000000	146.758621	0.000000	-1.000000	-1.000000	638828.000000	1772311938.034453
-24364.980000	-34378.470000	-33604.155000	-18849.465000	0.000000	0.000000	0.000000	0.000000	-14.888472	6.379036	-12.883503	-9.793317	-0.000000	0.000000	0.000000	0.000000	3.845520	-0.076300	-0.167860	-0.003052	0.983152	0.016540	-1.000000	-1.000000	-1.000000	-1.000000	-1.000000	-1.000000	-1.000000	146.758621	0.000000	-1.000000	-1.000000	638829.000000	1772311938.034456
-24381.180000	-34363.665000	-33620.400000	-18858.870000	0.000000	0.000000	0.000000	0.000000	-0.853612	5.553263	-0.152933	1.956392	-0.000000	0.000000	0.000000	0.000000	3.845520	-0.076300	-0.167860	-0.003052	0.983152	0.016540	-1.000000	-1.000000	-1.000000	-1.000000	-1.000000	-1.000000	-1.000000	146.758621	0.000000	-1.000000	-1.000000	638830.000000	1772311938.038511
-24440.625000	-34364.250000	-33678.990000	-18906.345000	0.000000	0.000000	0.000000	0.000000	13.619899	3.413045	12.592645	12.811437	-0.000000	0.000000	0.000000	0.000000	3.845520	-0.076300	-0.167860	-0.003052	0.983152	0.016540	-1.000000	-1.000000	-1.000000	-1.000000	-1.000000	-1.000000	-1.000000	146.758621	0.000000	-1.000000	-1.000000	638831.000000	1772311938.038514
-24434.190000	-34362.315000	-33675.165000	-18910.980000	0.000000	0.000000	0.000000	0.000000	15.937297	1.259369	13.797206	13.501171	-0.000000	0.000000	0.000000	0.000000	3.845520	-0.076300	-0.167860	-0.003052	0.983152	0.016540	-1.000000	-1.000000	-1.000000	-1.000000	-1.000000	-1.000000	-1.000000	146.758621	0.000000	-1.000000	-1.000000	638832.000000	1772311938.042452
-24380.190000	-34351.380000	-33620.355000	-18863.730000	0.000000	0.000000	0.000000	0.000000	7.205020	-0.590180	5.017093	5.277568	-0.000000	0.000000	0.000000	0.000000	3.845520	-0.076300	-0.167860	-0.003052	0.983152	0.016540	-1.000000	-1.000000	-1.000000	-1.000000	-1.000000	-1.000000	-1.000000	146.758621	0.000000	-1.000000	-1.000000	638833.000000	1772311938.042455
-24337.035000	-34366.320000	-33573.645000	-18820.845000	0.000000	0.000000	0.000000	0.000000	0.628211	-2.312644	-0.681239	-0.675374	-0.000000	0.000000	0.000000	0.000000	3.845520	-0.076300	-0.167860	-0.003052	0.983152	0.016540	-1.000000	-1.000000	-1.000000	-1.000000	-1.000000	-1.000000	-1.000000	146.758621	0.000000	-1.000000	-1.000000	638834.000000	1772311938.046523
-24366.105000	-34390.350000	-33601.365000	-18838.260000	0.000000	0.000000	0.000000	0.000000	3.316778	-4.816438	3.472713	2.278580	-0.000000	0.000000	0.000000	0.000000	3.845520	-0.076300	-0.167860	-0.003052	0.983152	0.016540	-1.000000	-1.000000	-1.000000	-1.000000	-1.000000	-1.000000	-1.000000	146.758621	0.000000	-1.000000	-1.000000	638835.000000	1772311938.046526
-24420.510000	-34388.820000	-33656.670000	-18877.905000	0.000000	0.000000	0.000000	0.000000	7.132098	-8.548550	8.698974	7.383914	-0.000000	0.000000	0.000000	0.000000	3.845520	-0.076300	-0.167860	-0.003052	0.983152	0.016540	-1.000000	-1.000000	-1.000000	-1.000000	-1.000000	-1.000000	-1.000000	146.758621	0.000000	-1.000000	-1.000000	638836.000000	1772311938.050441
-24413.130000	-34393.050000	-33647.400000	-18864.090000	0.000000	0.000000	0.000000	0.000000	1.472431	-11.142537	3.627186	4.629328	-0.000000	0.000000	0.000000	0.000000	3.845520	-0.076300	-0.167860	-0.003052	0.983152	0.016540	-1.000000	-1.000000	-1.000000	-1.000000	-1.000000	-1.000000	-1.000000	146.758621	0.000000	-1.000000	-1.000000	638837.000000	1772311938.050443
-24394.455000	-34403.670000	-33631.020000	-18862.020000	0.000000	0.000000	0.000000	0.000000	-10.885187	-9.631016	-9.244044	-5.327976	-0.000000	0.000000	0.000000	0.000000	4.028640	-0.396760	0.152600	-0.003906	0.983823	0.016846	-1.000000	-1.000000	-1.000000	-1.000000	-1.000000	-1.000000	-1.000000	146.758621	0.000000	-1.000000	-1.000000	638838.000000	1772311938.054633
-24374.970000	-34409.970000	-33613.245000	-18855.720000	0.000000	0.000000	0.000000	0.000000	-17.593315	-4.258842	-17.265221	-13.517251	-0.000000	0.000000	0.000000	0.000000	4.028640	-0.396760	0.152600	-0.003906	0.983823	0.016846	-1.000000	-1.000000	-1.000000	-1.000000	-1.000000	-1.000000	-1.000000	146.758621	0.000000	-1.000000	-1.000000	638839.000000	1772311938.054636
-24407.145000	-34430.265000	-33645.600000	-18882.360000	0.000000	0.000000	0.000000	0.000000	-12.753043	1.932658	-13.921071	-14.405281	-0.000000	0.000000	0.000000	0.000000	4.028640	-0.396760	0.152600	-0.003906	0.983823	0.016846	-1.000000	-1.000000	-1.000000	-1.000000	-1.000000	-1.000000	-1.000000	146.758621	0.000000	-1.000000	-1.000000	638840.000000	1772311938.058553
-24422.670000	-34436.340000	-33659.730000	-18891.765000	0.000000	0.000000	0.000000	0.000000	-2.564903	5.904662	-4.644991	-9.938774	-0.000000	0.000000	0.000000	0.000000	4.028640	-0.396760	0.152600	-0.003906	0.983823	0.016846	-1.000000	-1.000000	-1.000000	-1.000000	-1.000000	-1.000000	-1.000000	146.758621	0.000000	-1.000000	-1.000000	638841.000000	1772311938.058557
-24389.865000	-34411.770000	-33625.260000	-18864.900000	0.000000	0.000000	0.000000	0.000000	4.814922	7.387946	2.942381	-3.789282	-0.000000	0.000000	0.000000	0.000000	4.028640	-0.396760	0.152600	-0.003906	0.983823	0.016846	-1.000000	-1.000000	-1.000000	-1.000000	-1.000000	-1.000000	-1.000000	146.758621	0.000000	-1.000000	-1.000000	638842.000000	1772311938.062674
-24368.715000	-34394.895000	-33603.705000	-18841.365000	0.000000	0.000000	0.000000	0.000000	8.776932	8.968068	8.095590	3.675509	-0.000000	0.000000	0.000000	0.000000	4.028640	-0.396760	0.152600	-0.003906	0.983823	0.016846	-1.000000	-1.000000	-1.000000	-1.000000	-1.000000	-1.000000	-1.000000	146.758621	0.000000	-1.000000	-1.000000	638843.000000	1772311938.062677
-24365.295000	-34392.870000	-33605.415000	-18844.110000	0.000000	0.000000	0.000000	0.000000	11.981080	11.694549	12.623939	12.077811	-0.000000	0.000000	0.000000	0.000000	4.028640	-0.396760	0.152600	-0.003906	0.983823	0.016846	-1.000000	-1.000000	-1.000000	-1.000000	-1.000000	-1.000000	-1.000000	146.758621	0.000000	-1.000000	-1.000000	638844.000000	1772311938.067391
-24384.825000	-34381.080000	-33626.205000	-18873.315000	0.000000	0.000000	0.000000	0.000000	12.927064	12.788009	14.044102	16.682308	-0.000000	0.000000	0.000000	0.000000	4.028640	-0.396760	0.152600	-0.003906	0.983823	0.016846	-1.000000	-1.000000	-1.000000	-1.000000	-1.000000	-1.000000	-1.000000	146.758621	0.000000	-1.000000	-1.000000	638845.000000	1772311938.067395
-24393.150000	-34356.015000	-33639.165000	-18889.335000	0.000000	0.000000	0.000000	0.000000	7.980128	9.756642	8.471692	12.190401	-0.000000	0.000000	0.000000	0.000000	4.028640	-0.396760	0.152600	-0.003906	0.983823	0.016846	-1.000000	-1.000000	-1.000000	-1.000000	-1.000000	-1.000000	-1.000000	146.758621	0.000000	-1.000000	-1.000000	638846.000000	1772311938.070569
-24409.125000	-34360.425000	-33651.180000	-18888.525000	0.000000	0.000000	0.000000	0.000000	-2.459829	3.392100	-2.977645	0.018277	-0.000000	0.000000	0.000000	0.000000	4.028640	-0.396760	0.152600	-0.003906	0.983823	0.016846	-1.000000	-1.000000	-1.000000	-1.000000	-1.000000	-1.000000	-1.000000	146.758621	0.000000	-1.000000	-1.000000	638847.000000	1772311938.070572
-24430.320000	-34365.420000	-33666.255000	-18884.340000	0.000000	0.000000	0.000000	0.000000	-13.399285	-4.539528	-14.140847	-11.528061	-0.000000	0.000000	0.000000	0.000000	4.669560	-0.259420	1.648080	-0.005310	0.983335	0.016174	-1.000000	-1.000000	-1.000000	-1.000000	-1.000000	-1.000000	-1.000000	146.758621	0.000000	-1.000000	-1.000000	638848.000000	1772311938.075716
-24410.025000	-34342.245000	-33644.205000	-18870.660000	0.000000	0.000000	0.000000	0.000000	-18.918252	-12.093860	-18.497544	-14.674495	-0.000000	0.000000	0.000000	0.000000	4.669560	-0.259420	1.648080	-0.005310	0.983335	0.016174	-1.000000	-1.000000	-1.000000	-1.000000	-1.000000	-1.000000	-1.000000	146.758621	0.000000	-1.000000	-1.000000	638849.000000	1772311938.075719
-24413.940000	-34335.045000	-33644.385000	-18879.210000	0.000000	0.000000	0.000000	0.000000	-15.254804	-15.930993	-13.029579	-8.462255	-0.000000	0.000000	0.000000	0.000000	4.669560	-0.259420	1.648080	-0.005310	0.983335	0.016174	-1.000000	-1.000000	-1.000000	-1.000000	-1.000000	-1.000000	-1.000000	146.758621	0.000000	-1.000000	-1.000000	638850.000000	1772311938.078655
-24427.440000	-34326.900000	-33648.120000	-18884.340000	0.000000	0.000000	0.000000	0.000000	-4.165573	-13.950521	-0.757677	1.360512	-0.000000	0.000000	0.000000	0.000000	4.669560	-0.259420	1.648080	-0.005310	0.983335	0.016174	-1.000000	-1.000000	-1.000000	-1.000000	-1.000000	-1.000000	-1.000000	146.758621	0.000000	-1.000000	-1.000000	638851.000000	1772311938.078658
-24410.115000	-34329.915000	-33633.810000	-18868.995000	0.000000	0.000000	0.000000	0.000000	7.739936	-8.033977	11.044051	8.212852	-0.000000	0.000000	0.000000	0.000000	4.669560	-0.259420	1.648080	-0.005310	0.983335	0.016174	-1.000000	-1.000000	-1.000000	-1.000000	-1.000000	-1.000000	-1.000000	146.758621	0.000000	-1.000000	-1.000000	638852.000000	1772311938.082856
-24372.945000	-34334.820000	-33614.325000	-18855.000000	0.000000	0.000000	0.000000	0.000000	15.813710	-2.206021	17.192137	10.200229	-0.000000	0.000000	0.000000	0.000000	4.669560	-0.259420	1.648080	-0.005310	0.983335	0.016174	-1.000000	-1.000000	-1.000000	-1.000000	-1.000000	-1.000000	-1.000000	146.758621	0.000000	-1.000000	-1.000000	638853.000000	1772311938.082859
-24382.170000	-34337.205000	-33629.850000	-18871.380000	0.000000	0.000000	0.000000	0.000000	19.346546	0.778154	16.675035	8.639117	-0.000000	0.000000	0.000000	0.000000	4.669560	-0.259420	1.648080	-0.005310	0.983335	0.016174	-1.000000	-1.000000	-1.000000	-1.000000	-1.000000	-1.000000	-1.000000	146.758621	0.000000	-1.000000	-1.000000	638854.000000	1772311938.086555
-24394.680000	-34317.945000	-33640.155000	-18865.935000	0.000000	0.000000	0.000000	0.000000	16.998074	1.413946	9.868751	4.288207	-0.000000	0.000000	0.000000	0.000000	4.669560	-0.259420	1.648080	-0.005310	0.983335	0.016174	-1.000000	-1.000000	-1.000000	-1.000000	-1.000000	-1.000000	-1.000000	146.758621	0.000000	-1.000000	-1.000000	638855.000000	1772311938.086558
-24395.355000	-34314.570000	-33644.610000	-18879.165000	0.000000	0.000000	0.000000	0.000000	7.451361	2.311253	-1.297526	-1.935455	-0.000000	0.000000	0.000000	0.000000	4.669560	-0.259420	1.648080	-0.005310	0.983335	0.016174	-1.000000	-1.000000	-1.000000	-1.000000	-1.000000	-1.000000	-1.000000	146.758621	0.000000	-1.000000	-1.000000	638856.000000	1772311938.090561
-24413.850000	-34312.500000	-33664.005000	-18903.780000	0.000000	0.000000	0.000000	0.000000	-6.186404	4.522707	-12.240200	-8.166287	-0.000000	0.000000	0.000000	0.000000	4.669560	-0.259420	1.648080	-0.005310	0.983335	0.016174	-1.000000	-1.000000	-1.000000	-1.000000	-1.000000	-1.000000	-1.000000	146.758621	0.000000	-1.000000	-1.000000	638857.000000	1772311938.090563
-24413.985000	-34302.015000	-33659.190000	-18897.930000	0.000000	0.000000	0.000000	0.000000	-17.657048	6.492818	-18.161179	-12.441018	-0.000000	0.000000	0.000000	0.000000	5.142620	-0.549360	1.785420	-0.004272	0.982236	0.016418	-1.000000	-1.000000	-1.000000	-1.000000	-1.000000	-1.000000	-1.000000	146.758621	0.000000	-1.000000	-1.000000	638858.000000	1772311938.094684
-24379.830000	-34290.900000	-33622.920000	-18868.410000	0.000000	0.000000	0.000000	0.000000	-21.117626	6.782847	-15.859909	-11.828616	-0.000000	0.000000	0.000000	0.000000	5.142620	-0.549360	1.785420	-0.004272	0.982236	0.016418	-1.000000	-1.000000	-1.000000	-1.000000	-1.000000	-1.000000	-1.000000	146.758621	0.000000	-1.000000	-1.000000	638859.000000	1772311938.094686
-24370.380000	-34311.240000	-33608.790000	-18852.705000	0.000000	0.000000	0.000000	0.000000	-13.870232	4.956645	-4.906735	-4.018561	-0.000000	0.000000	0.000000	0.000000	5.142620	-0.549360	1.785420	-0.004272	0.982236	0.016418	-1.000000	-1.000000	-1.000000	-1.000000	-1.000000	-1.000000	-1.000000	146.758621	0.000000	-1.000000	-1.000000	638860.000000	1772311938.098589
-24382.980000	-34314.255000	-33616.530000	-18850.545000	0.000000	0.000000	0.000000	0.000000	-0.071699	0.618413	9.402396	8.009466	-0.000000	0.000000	0.000000	0.000000	5.142620	-0.549360	1.785420	-0.004272	0.982236	0.016418	-1.000000	-1.000000	-1.000000	-1.000000	-1.000000	-1.000000	-1.000000	146.758621	0.000000	-1.000000	-1.000000	638861.000000	1772311938.098591
-24374.790000	-34276.725000	-33614.055000	-18858.015000	0.000000	0.000000	0.000000	0.000000	11.073867	-4.433912	17.965877	16.467086	-0.000000	0.000000	0.000000	0.000000	5.142620	-0.549360	1.785420	-0.004272	0.982236	0.016418	-1.000000	-1.000000	-1.000000	-1.000000	-1.000000	-1.000000	-1.000000	146.758621	0.000000	-1.000000	-1.000000	638862.000000	1772311938.102543
-24386.670000	-34249.275000	-33636.195000	-18909.630000	0.000000	0.000000	0.000000	0.000000	13.491076	-5.351417	15.426163	14.597007	-0.000000	0.000000	0.000000	0.000000	5.142620	-0.549360	1.785420	-0.004272	0.982236	0.016418	-1.000000	-1.000000	-1.000000	-1.000000	-1.000000	-1.000000	-1.000000	146.758621	0.000000	-1.000000	-1.000000	638863.000000	1772311938.102546
-24381.810000	-34254.810000	-33627.645000	-18894.510000	0.000000	0.000000	0.000000	0.000000	8.023383	-0.369151	4.090420	2.300665	-0.000000	0.000000	0.000000	0.000000	5.142620	-0.549360	1.785420	-0.004272	0.982236	0.016418	-1.000000	-1.000000	-1.000000	-1.000000	-1.000000	-1.000000	-1.000000	146.758621	0.000000	-1.000000	-1.000000	638864.000000	1772311938.106701
-24360.345000	-34254.000000	-33598.530000	-18837.045000	0.000000	0.000000	0.000000	0.000000	0.151474	5.346584	-7.822590	-10.880300	-0.000000	0.000000	0.000000	0.000000	5.142620	-0.549360	1.785420	-0.004272	0.982236	0.016418	-1.000000	-1.000000	-1.000000	-1.000000	-1.000000	-1.000000	-1.000000	146.758621	0.000000	-1.000000	-1.000000	638865.000000	1772311938.106704
-24349.500000	-34231.635000	-33591.780000	-18822.105000	0.000000	0.000000	0.000000	0.000000	-4.151140	6.143797	-12.094217	-12.777361	-0.000000	0.000000	0.000000	0.000000	5.142620	-0.549360	1.785420	-0.004272	0.982236	0.016418	-1.000000	-1.000000	-1.000000	-1.000000	-1.000000	-1.000000	-1.000000	146.758621	0.000000	-1.000000	-1.000000	638866.000000	1772311938.110662
-24351.885000	-34244.595000	-33598.530000	-18824.310000	0.000000	0.000000	0.000000	0.000000	-3.206893	1.970976	-7.790544	-2.473046	-0.000000	0.000000	0.000000	0.000000	5.142620	-0.549360	1.785420	-0.004272	0.982236	0.016418	-1.000000	-1.000000	-1.000000	-1.000000	-1.000000	-1.000000	-1.000000	146.758621	0.000000	-1.000000	-1.000000	638867.000000	1772311938.110665
-24385.500000	-34258.365000	-33637.320000	-18863.955000	0.000000	0.000000	0.000000	0.000000	-0.970802	-4.410058	-1.746321	8.268860	-0.000000	0.000000	0.000000	0.000000	5.997180	1.236060	0.900340	-0.000977	0.981321	0.016052	-1.000000	-1.000000	-1.000000	-1.000000	-1.000000	-1.000000	-1.000000	146.758621	0.000000	-1.000000	-1.000000	638868.000000	1772311938.114638
-24417.045000	-34241.130000	-33672.105000	-18908.190000	0.000000	0.000000	0.000000	0.000000	-2.739209	-10.217511	-1.371101	7.592803	-0.000000	0.000000	0.000000	0.000000	5.997180	1.236060	0.900340	-0.000977	0.981321	0.016052	-1.000000	-1.000000	-1.000000	-1.000000	-1.000000	-1.000000	-1.000000	146.758621	0.000000	-1.000000	-1.000000	638869.000000	1772311938.114641
-24440.940000	-34233.930000	-33685.155000	-18924.120000	0.000000	0.000000	0.000000	0.000000	-9.255469	-11.876177	-7.304713	-5.276794	-0.000000	0.000000	0.000000	0.000000	5.997180	1.236060	0.900340	-0.000977	0.981321	0.016052	-1.000000	-1.000000	-1.000000	-1.000000	-1.000000	-1.000000	-1.000000	146.758621	0.000000	-1.000000	-1.000000	638870.000000	1772311938.118629
-24437.250000	-34248.915000	-33668.595000	-18908.910000	0.000000	0.000000	0.000000	0.000000	-15.047357	-7.828479	-12.402481	-19.213919	-0.000000	0.000000	0.000000	0.000000	5.997180	1.236060	0.900340	-0.000977	0.981321	0.016052	-1.000000	-1.000000	-1.000000	-1.000000	-1.000000	-1.000000	-1.000000	146.758621	0.000000	-1.000000	-1.000000	638871.000000	1772311938.118632
-24422.850000	-34250.220000	-33657.570000	-18886.545000	0.000000	0.000000	0.000000	0.000000	-12.965331	-1.236381	-8.658022	-20.919534	-0.000000	0.000000	0.000000	0.000000	5.997180	1.236060	0.900340	-0.000977	0.981321	0.016052	-1.000000	-1.000000	-1.000000	-1.000000	-1.000000	-1.000000	-1.000000	146.758621	0.000000	-1.000000	-1.000000	638872.000000	1772311938.122661
-24382.890000	-34259.085000	-33628.320000	-18850.770000	0.000000	0.000000	0.000000	0.000000	-0.405131	3.625609	4.815967	-6.380233	-0.000000	0.000000	0.000000	0.000000	5.997180	1.236060	0.900340	-0.000977	0.981321	0.016052	-1.000000	-1.000000	-1.000000	-1.000000	-1.000000	-1.000000	-1.000000	146.758621	0.000000	-1.000000	-1.000000	638873.000000	1772311938.122665
-24412.500000	-34278.705000	-33655.320000	-18879.570000	0.000000	0.000000	0.000000	0.000000	17.140545	4.960068	20.341232	15.561248	-0.000000	0.000000	0.000000	0.000000	5.997180	1.236060	0.900340	-0.000977	0.981321	0.016052	-1.000000	-1.000000	-1.000000	-1.000000	-1.000000	-1.000000	-1.000000	146.758621	0.000000	-1.000000	-1.000000	638874.000000	1772311938.126826
-24407.730000	-34290.540000	-33654.645000	-18886.635000	0.000000	0.000000	0.000000	0.000000	28.328103	3.158277	27.175444	29.537160	-0.000000	0.000000	0.000000	0.000000	5.997180	1.236060	0.900340	-0.000977	0.981321	0.016052	-1.000000	-1.000000	-1.000000	-1.000000	-1.000000	-1.000000	-1.000000	146.758621	0.000000	-1.000000	-1.000000	638875.000000	1772311938.126829
-24268.095000	-34272.090000	-33513.615000	-18756.360000	0.000000	0.000000	0.000000	0.000000	28.093242	0.676690	23.049821	28.771029	-0.000000	0.000000	0.000000	0.000000	5.997180	1.236060	0.900340	-0.000977	0.981321	0.016052	-1.000000	-1.000000	-1.000000	-1.000000	-1.000000	-1.000000	-1.000000	146.758621	0.000000	-1.000000	-1.000000	638876.000000	1772311938.130806
-24239.745000	-34276.905000	-33470.325000	-18713.790000	0.000000	0.000000	0.000000	0.000000	23.636179	0.931316	17.637135	21.862026	-0.000000	0.000000	0.000000	0.000000	5.997180	1.236060	0.900340	-0.000977	0.981321	0.016052	-1.000000	-1.000000	-1.000000	-1.000000	-1.000000	-1.000000	-1.000000	146.758621	0.000000	-1.000000	-1.000000	638877.000000	1772311938.130809
-24355.260000	-34271.595000	-33557.895000	-18781.740000	0.000000	0.000000	0.000000	0.000000	17.266949	4.493312	14.444550	15.305973	-0.000000	0.000000	0.000000	0.000000	6.302380	0.549360	2.136400	-0.003235	0.983274	0.013611	-1.000000	-1.000000	-1.000000	-1.000000	-1.000000	-1.000000	-1.000000	146.758621	0.000000	-1.000000	-1.000000	638878.000000	1772311938.134863
-24492.420000	-34293.330000	-33704.460000	-18924.120000	0.000000	0.000000	0.000000	0.000000	-3.175910	7.961153	0.034159	-0.161141	-0.000000	0.000000	0.000000	0.000000	6.302380	0.549360	2.136400	-0.003235	0.983274	0.013611	-1.000000	-1.000000	-1.000000	-1.000000	-1.000000	-1.000000	-1.000000	146.758621	0.000000	-1.000000	-1.000000	638879.000000	1772311938.134866
-24570.090000	-34308.270000	-33793.920000	-19021.230000	0.000000	0.000000	0.000000	0.000000	-42.303307	7.281178	-34.903278	-33.083611	-0.000000	0.000000	0.000000	0.000000	6.302380	0.549360	2.136400	-0.003235	0.983274	0.013611	-1.000000	-1.000000	-1.000000	-1.000000	-1.000000	-1.000000	-1.000000	146.758621	0.000000	-1.000000	-1.000000	638880.000000	1772311938.138836
-24498.990000	-34312.995000	-33731.910000	-18959.040000	0.000000	0.000000	0.000000	0.000000	-77.702148	1.793253	-72.352090	-68.583826	-0.000000	0.000000	0.000000	0.000000	6.302380	0.549360	2.136400	-0.003235	0.983274	0.013611	-1.000000	-1.000000	-1.000000	-1.000000	-1.000000	-1.000000	-1.000000	146.758621	0.000000	-1.000000	-1.000000	638881.000000	1772311938.138839
-24344.595000	-34299.000000	-33584.175000	-18799.605000	0.000000	0.000000	0.000000	0.000000	-73.870638	-4.456939	-75.934097	-72.680152	-0.000000	0.000000	0.000000	0.000000	6.302380	0.549360	2.136400	-0.003235	0.983274	0.013611	-1.000000	-1.000000	-1.000000	-1.000000	-1.000000	-1.000000	-1.000000	146.758621	0.000000	-1.000000	-1.000000	638882.000000	1772311938.142744
-24245.955000	-34297.245000	-33488.550000	-18709.605000	0.000000	0.000000	0.000000	0.000000	-17.303497	-6.357602	-26.835329	-25.806281	-0.000000	0.000000	0.000000	0.000000	6.302380	0.549360	2.136400	-0.003235	0.983274	0.013611	-1.000000	-1.000000	-1.000000	-1.000000	-1.000000	-1.000000	-1.000000	146.758621	0.000000	-1.000000	-1.000000	638883.000000	1772311938.142757
-24231.960000	-34291.080000	-33484.815000	-18726.345000	0.000000	0.000000	0.000000	0.000000	62.747396	-2.816292	50.500197	48.757222	-0.000000	0.000000	0.000000	0.000000	6.302380	0.549360	2.136400	-0.003235	0.983274	0.013611	-1.000000	-1.000000	-1.000000	-1.000000	-1.000000	-1.000000	-1.000000	146.758621	0.000000	-1.000000	-1.000000	638884.000000	1772311938.146857
-24430.455000	-34300.035000	-33693.975000	-18931.905000	0.000000	0.000000	0.000000	0.000000	110.412870	2.612894	101.109869	96.255670	-0.000000	0.000000	0.000000	0.000000	6.302380	0.549360	2.136400	-0.003235	0.983274	0.013611	-1.000000	-1.000000	-1.000000	-1.000000	-1.000000	-1.000000	-1.000000	146.758621	0.000000	-1.000000	-1.000000	638885.000000	1772311938.146860
-24477.795000	-34353.090000	-33749.550000	-18985.770000	0.000000	0.000000	0.000000	0.000000	86.818911	4.481448	83.638150	76.711515	-0.000000	0.000000	0.000000	0.000000	6.302380	0.549360	2.136400	-0.003235	0.983274	0.013611	-1.000000	-1.000000	-1.000000	-1.000000	-1.000000	-1.000000	-1.000000	146.758621	0.000000	-1.000000	-1.000000	638886.000000	1772311938.150801
-24408.630000	-34385.985000	-33671.700000	-18894.240000	0.000000	0.000000	0.000000	0.000000	8.751220	-0.928503	12.025442	6.415880	-0.000000	0.000000	0.000000	0.000000	6.302380	0.549360	2.136400	-0.003235	0.983274	0.013611	-1.000000	-1.000000	-1.000000	-1.000000	-1.000000	-1.000000	-1.000000	146.758621	0.000000	-1.000000	-1.000000	638887.000000	1772311938.150804
-24369.570000	-34367.580000	-33623.775000	-18871.020000	0.000000	0.000000	0.000000	0.000000	-63.257964	-10.470216	-54.460360	-55.481915	-0.000000	0.000000	0.000000	0.000000	7.156940	1.083460	10.102120	0.000610	0.986936	0.006226	-1.000000	-1.000000	-1.000000	-1.000000	-1.000000	-1.000000	-1.000000	146.758621	0.000000	-1.000000	-1.000000	638888.000000	1772311938.154787
-24321.240000	-34336.665000	-33570.900000	-18855.585000	0.000000	0.000000	0.000000	0.000000	-82.157584	-14.117752	-69.390792	-66.745547	-0.000000	0.000000	0.000000	0.000000	7.156940	1.083460	10.102120	0.000610	0.986936	0.006226	-1.000000	-1.000000	-1.000000	-1.000000	-1.000000	-1.000000	-1.000000	146.758621	0.000000	-1.000000	-1.000000	638889.000000	1772311938.154790
-24232.815000	-34312.095000	-33461.505000	-18725.355000	0.000000	0.000000	0.000000	0.000000	-47.391725	-4.939048	-33.218857	-31.342808	-0.000000	0.000000	0.000000	0.000000	7.156940	1.083460	10.102120	0.000610	0.986936	0.006226	-1.000000	-1.000000	-1.000000	-1.000000	-1.000000	-1.000000	-1.000000	146.758621	0.000000	-1.000000	-1.000000	638890.000000	1772311938.158797
-24338.520000	-34287.075000	-33567.840000	-18804.600000	0.000000	0.000000	0.000000	0.000000	7.253362	12.782590	19.575824	19.437570	-0.000000	0.000000	0.000000	0.000000	7.156940	1.083460	10.102120	0.000610	0.986936	0.006226	-1.000000	-1.000000	-1.000000	-1.000000	-1.000000	-1.000000	-1.000000	146.758621	0.000000	-1.000000	-1.000000	638891.000000	1772311938.158802
-24573.915000	-34265.115000	-33803.325000	-19029.015000	0.000000	0.000000	0.000000	0.000000	36.883745	27.560181	43.935933	46.295116	-0.000000	0.000000	0.000000	0.000000	7.156940	1.083460	10.102120	0.000610	0.986936	0.006226	-1.000000	-1.000000	-1.000000	-1.000000	-1.000000	-1.000000	-1.000000	146.758621	0.000000	-1.000000	-1.000000	638892.000000	1772311938.166023
-24426.270000	-34233.390000	-33647.580000	-18900.630000	0.000000	0.000000	0.000000	0.000000	19.924554	30.529386	19.121546	27.451916	-0.000000	0.000000	0.000000	0.000000	7.156940	1.083460	10.102120	0.000610	0.986936	0.006226	-1.000000	-1.000000	-1.000000	-1.000000	-1.000000	-1.000000	-1.000000	146.758621	0.000000	-1.000000	-1.000000	638893.000000	1772311938.166028
-24267.195000	-34218.540000	-33487.920000	-18754.920000	0.000000	0.000000	0.000000	0.000000	-13.178028	20.695436	-21.729695	-11.279862	-0.000000	0.000000	0.000000	0.000000	7.156940	1.083460	10.102120	0.000610	0.986936	0.006226	-1.000000	-1.000000	-1.000000	-1.000000	-1.000000	-1.000000	-1.000000	146.758621	0.000000	-1.000000	-1.000000	638894.000000	1772311938.166861
-24330.375000	-34234.380000	-33584.940000	-18848.520000	0.000000	0.000000	0.000000	0.000000	-17.092176	2.629746	-30.928065	-26.110489	-0.000000	0.000000	0.000000	0.000000	7.156940	1.083460	10.102120	0.000610	0.986936	0.006226	-1.000000	-1.000000	-1.000000	-1.000000	-1.000000	-1.000000	-1.000000	146.758621	0.000000	-1.000000	-1.000000	638895.000000	1772311938.166866
-24465.195000	-34245.540000	-33699.420000	-18974.520000	0.000000	0.000000	0.000000	0.000000	6.250149	-17.780443	-9.854707	-14.341483	-0.000000	0.000000	0.000000	0.000000	7.156940	1.083460	10.102120	0.000610	0.986936	0.006226	-1.000000	-1.000000	-1.000000	-1.000000	-1.000000	-1.000000	-1.000000	146.758621	0.000000	-1.000000	-1.000000	638896.000000	1772311938.170854
-24420.105000	-34259.895000	-33614.505000	-18908.280000	0.000000	0.000000	0.000000	0.000000	20.987194	-34.247733	7.473189	-3.785472	-0.000000	0.000000	0.000000	0.000000	7.156940	1.083460	10.102120	0.000610	0.986936	0.006226	-1.000000	-1.000000	-1.000000	-1.000000	-1.000000	-1.000000	-1.000000	146.758621	0.000000	-1.000000	-1.000000	638897.000000	1772311938.170858
-24367.185000	-34223.310000	-33596.190000	-18849.600000	0.000000	0.000000	0.000000	0.000000	14.264066	-39.993821	9.532562	-2.497830	-0.000000	0.000000	0.000000	0.000000	-7.034860	2.212700	5.035800	0.011169	0.991819	-0.012573	-1.000000	-1.000000	-1.000000	-1.000000	-1.000000	-1.000000	-1.000000	146.758621	0.000000	-1.000000	-1.000000	638898.000000	1772311938.174899
-24482.790000	-34186.140000	-33719.760000	-18923.940000	0.000000	0.000000	0.000000	0.000000	0.693439	-30.214706	5.755109	0.908218	-0.000000	0.000000	0.000000	0.000000	-7.034860	2.212700	5.035800	0.011169	0.991819	-0.012573	-1.000000	-1.000000	-1.000000	-1.000000	-1.000000	-1.000000	-1.000000	146.758621	0.000000	-1.000000	-1.000000	638899.000000	1772311938.174902
-24400.395000	-34169.940000	-33619.815000	-18898.605000	0.000000	0.000000	0.000000	0.000000	-8.547375	-7.296452	0.654240	7.961061	-0.000000	0.000000	0.000000	0.000000	-7.034860	2.212700	5.035800	0.011169	0.991819	-0.012573	-1.000000	-1.000000	-1.000000	-1.000000	-1.000000	-1.000000	-1.000000	146.758621	0.000000	-1.000000	-1.000000	638900.000000	1772311938.178951
-24386.220000	-34142.130000	-33575.265000	-18893.745000	0.000000	0.000000	0.000000	0.000000	-9.409397	17.757515	-0.981187	12.024066	-0.000000	0.000000	0.000000	0.000000	-7.034860	2.212700	5.035800	0.011169	0.991819	-0.012573	-1.000000	-1.000000	-1.000000	-1.000000	-1.000000	-1.000000	-1.000000	146.758621	0.000000	-1.000000	-1.000000	638901.000000	1772311938.178954
-24305.940000	-34100.190000	-33462.045000	-18830.565000	0.000000	0.000000	0.000000	0.000000	0.778206	33.205423	8.840146	12.681009	-0.000000	0.000000	0.000000	0.000000	-7.034860	2.212700	5.035800	0.011169	0.991819	-0.012573	-1.000000	-1.000000	-1.000000	-1.000000	-1.000000	-1.000000	-1.000000	146.758621	0.000000	-1.000000	-1.000000	638902.000000	1772311938.182950
-24287.400000	-34078.815000	-33461.595000	-18824.580000	0.000000	0.000000	0.000000	0.000000	17.398279	34.470468	26.912633	13.314079	-0.000000	0.000000	0.000000	0.000000	-7.034860	2.212700	5.035800	0.011169	0.991819	-0.012573	-1.000000	-1.000000	-1.000000	-1.000000	-1.000000	-1.000000	-1.000000	146.758621	0.000000	-1.000000	-1.000000	638903.000000	1772311938.182953
-24338.295000	-34092.855000	-33627.285000	-18869.805000	0.000000	0.000000	0.000000	0.000000	27.481473	23.032648	33.865089	12.228380	-0.000000	0.000000	0.000000	0.000000	-7.034860	2.212700	5.035800	0.011169	0.991819	-0.012573	-1.000000	-1.000000	-1.000000	-1.000000	-1.000000	-1.000000	-1.000000	146.758621	0.000000	-1.000000	-1.000000	638904.000000	1772311938.186921
-24273.630000	-34080.345000	-33659.640000	-18858.375000	0.000000	0.000000	0.000000	0.000000	20.146147	3.245645	10.587023	3.872868	-0.000000	0.000000	0.000000	0.000000	-7.034860	2.212700	5.035800	0.011169	0.991819	-0.012573	-1.000000	-1.000000	-1.000000	-1.000000	-1.000000	-1.000000	-1.000000	146.758621	0.000000	-1.000000	-1.000000	638905.000000	1772311938.186924
-24296.625000	-34055.100000	-33649.290000	-18866.565000	0.000000	0.000000	0.000000	0.000000	-0.934578	-16.865369	-34.256080	-10.700480	-0.000000	0.000000	0.000000	0.000000	-7.034860	2.212700	5.035800	0.011169	0.991819	-0.012573	-1.000000	-1.000000	-1.000000	-1.000000	-1.000000	-1.000000	-1.000000	146.758621	0.000000	-1.000000	-1.000000	638906.000000	1772311938.190859
-24456.645000	-34030.620000	-33760.620000	-18932.535000	0.000000	0.000000	0.000000	0.000000	-25.318235	-27.680708	-68.464271	-23.932090	-0.000000	0.000000	0.000000	0.000000	-7.034860	2.212700	5.035800	0.011169	0.991819	-0.012573	-1.000000	-1.000000	-1.000000	-1.000000	-1.000000	-1.000000	-1.000000	146.758621	0.000000	-1.000000	-1.000000	638907.000000	1772311938.190862
-24499.080000	-34010.280000	-33797.700000	-18927.225000	0.000000	0.000000	0.000000	0.000000	-48.523236	-24.900552	-71.465716	-30.499565	-0.000000	0.000000	0.000000	0.000000	-17.106460	8.209880	4.837420	0.020691	0.999448	-0.023132	-1.000000	-1.000000	-1.000000	-1.000000	-1.000000	-1.000000	-1.000000	146.758621	0.000000	-1.000000	-1.000000	638908.000000	1772311938.194905
-24426.765000	-33993.900000	-33757.290000	-18935.145000	0.000000	0.000000	0.000000	0.000000	-61.144164	-12.478569	-44.574803	-27.459805	-0.000000	0.000000	0.000000	0.000000	-17.106460	8.209880	4.837420	0.020691	0.999448	-0.023132	-1.000000	-1.000000	-1.000000	-1.000000	-1.000000	-1.000000	-1.000000	146.758621	0.000000	-1.000000	-1.000000	638909.000000	1772311938.194908
-24410.115000	-33980.670000	-33717.870000	-18930.240000	0.000000	0.000000	0.000000	0.000000	-46.214809	1.390544	2.226642	-13.677655	-0.000000	0.000000	0.000000	0.000000	-17.106460	8.209880	4.837420	0.020691	0.999448	-0.023132	-1.000000	-1.000000	-1.000000	-1.000000	-1.000000	-1.000000	-1.000000	146.758621	0.000000	-1.000000	-1.000000	638910.000000	1772311938.198982
-24405.930000	-33964.110000	-33675.120000	-18873.450000	0.000000	0.000000	0.000000	0.000000	-2.900056	10.104583	53.391382	7.485531	-0.000000	0.000000	0.000000	0.000000	-17.106460	8.209880	4.837420	0.020691	0.999448	-0.023132	-1.000000	-1.000000	-1.000000	-1.000000	-1.000000	-1.000000	-1.000000	146.758621	0.000000	-1.000000	-1.000000	638911.000000	1772311938.198985
-24438.555000	-33967.980000	-33674.670000	-18854.055000	0.000000	0.000000	0.000000	0.000000	44.709444	11.411958	88.114334	29.361954	-0.000000	0.000000	0.000000	0.000000	-17.106460	8.209880	4.837420	0.020691	0.999448	-0.023132	-1.000000	-1.000000	-1.000000	-1.000000	-1.000000	-1.000000	-1.000000	146.758621	0.000000	-1.000000	-1.000000	638912.000000	1772311938.202932
-24464.385000	-33967.665000	-33696.855000	-18887.040000	0.000000	0.000000	0.000000	0.000000	68.524411	6.544112	89.558416	42.442134	-0.000000	0.000000	0.000000	0.000000	-17.106460	8.209880	4.837420	0.020691	0.999448	-0.023132	-1.000000	-1.000000	-1.000000	-1.000000	-1.000000	-1.000000	-1.000000	146.758621	0.000000	-1.000000	-1.000000	638913.000000	1772311938.202935
-24370.290000	-33936.795000	-33682.905000	-18885.195000	0.000000	0.000000	0.000000	0.000000	60.442877	-0.589348	56.275171	37.619746	-0.000000	0.000000	0.000000	0.000000	-17.106460	8.209880	4.837420	0.020691	0.999448	-0.023132	-1.000000	-1.000000	-1.000000	-1.000000	-1.000000	-1.000000	-1.000000	146.758621	0.000000	-1.000000	-1.000000	638914.000000	1772311938.207063
-24323.265000	-33937.605000	-33677.865000	-18870.165000	0.000000	0.000000	0.000000	0.000000	36.040259	-4.879225	5.326101	16.136790	-0.000000	0.000000	0.000000	0.000000	-17.106460	8.209880	4.837420	0.020691	0.999448	-0.023132	-1.000000	-1.000000	-1.000000	-1.000000	-1.000000	-1.000000	-1.000000	146.758621	0.000000	-1.000000	-1.000000	638915.000000	1772311938.207066
-24322.590000	-33946.740000	-33629.040000	-18845.460000	0.000000	0.000000	0.000000	0.000000	13.731982	-4.649144	-38.267098	-8.853761	-0.000000	0.000000	0.000000	0.000000	-17.106460	8.209880	4.837420	0.020691	0.999448	-0.023132	-1.000000	-1.000000	-1.000000	-1.000000	-1.000000	-1.000000	-1.000000	146.758621	0.000000	-1.000000	-1.000000	638916.000000	1772311938.210975
-24403.635000	-33979.455000	-33684.345000	-18905.355000	0.000000	0.000000	0.000000	0.000000	-4.355251	-3.291928	-58.358097	-25.119851	-0.000000	0.000000	0.000000	0.000000	-17.106460	8.209880	4.837420	0.020691	0.999448	-0.023132	-1.000000	-1.000000	-1.000000	-1.000000	-1.000000	-1.000000	-1.000000	146.758621	0.000000	-1.000000	-1.000000	638917.000000	1772311938.210978
-24413.265000	-34030.170000	-33701.580000	-18908.010000	0.000000	0.000000	0.000000	0.000000	-25.113967	-5.093104	-56.457620	-30.901744	-0.000000	0.000000	0.000000	0.000000	3.158820	4.547480	6.958560	0.014404	0.994504	0.020508	-1.000000	-1.000000	-1.000000	-1.000000	-1.000000	-1.000000	-1.000000	146.758621	0.000000	-1.000000	-1.000000	638918.000000	1772311938.215002
-24274.080000	-34047.360000	-33584.895000	-18798.030000	0.000000	0.000000	0.000000	0.000000	-43.461652	-10.332034	-41.061522	-27.072029	-0.000000	0.000000	0.000000	0.000000	3.158820	4.547480	6.958560	0.014404	0.994504	0.020508	-1.000000	-1.000000	-1.000000	-1.000000	-1.000000	-1.000000	-1.000000	146.758621	0.000000	-1.000000	-1.000000	638919.000000	1772311938.215005
-24265.710000	-34059.870000	-33538.095000	-18748.665000	0.000000	0.000000	0.000000	0.000000	-42.550564	-13.782130	-14.773948	-10.299200	-0.000000	0.000000	0.000000	0.000000	3.158820	4.547480	6.958560	0.014404	0.994504	0.020508	-1.000000	-1.000000	-1.000000	-1.000000	-1.000000	-1.000000	-1.000000	146.758621	0.000000	-1.000000	-1.000000	638920.000000	1772311938.218987
-24305.355000	-34060.455000	-33611.580000	-18829.170000	0.000000	0.000000	0.000000	0.000000	-20.332719	-9.328309	15.430263	13.875234	-0.000000	0.000000	0.000000	0.000000	3.158820	4.547480	6.958560	0.014404	0.994504	0.020508	-1.000000	-1.000000	-1.000000	-1.000000	-1.000000	-1.000000	-1.000000	146.758621	0.000000	-1.000000	-1.000000	638921.000000	1772311938.218989
-24247.125000	-34038.990000	-33580.215000	-18852.750000	0.000000	0.000000	0.000000	0.000000	4.388253	3.986996	31.887374	25.940793	-0.000000	0.000000	0.000000	0.000000	3.158820	4.547480	6.958560	0.014404	0.994504	0.020508	-1.000000	-1.000000	-1.000000	-1.000000	-1.000000	-1.000000	-1.000000	146.758621	0.000000	-1.000000	-1.000000	638922.000000	1772311938.223095
-24395.580000	-34011.090000	-33698.070000	-18956.790000	0.000000	0.000000	0.000000	0.000000	14.081386	21.425685	23.811984	13.005456	-0.000000	0.000000	0.000000	0.000000	3.158820	4.547480	6.958560	0.014404	0.994504	0.020508	-1.000000	-1.000000	-1.000000	-1.000000	-1.000000	-1.000000	-1.000000	146.758621	0.000000	-1.000000	-1.000000	638923.000000	1772311938.223100
-24464.070000	-34024.860000	-33764.085000	-18987.840000	0.000000	0.000000	0.000000	0.000000	2.600570	34.856110	-3.675646	-16.975263	-0.000000	0.000000	0.000000	0.000000	3.158820	4.547480	6.958560	0.014404	0.994504	0.020508	-1.000000	-1.000000	-1.000000	-1.000000	-1.000000	-1.000000	-1.000000	146.758621	0.000000	-1.000000	-1.000000	638924.000000	1772311938.227021
-24454.845000	-34020.315000	-33751.305000	-18942.795000	0.000000	0.000000	0.000000	0.000000	-21.566496	36.102633	-33.748782	-41.230470	-0.000000	0.000000	0.000000	0.000000	3.158820	4.547480	6.958560	0.014404	0.994504	0.020508	-1.000000	-1.000000	-1.000000	-1.000000	-1.000000	-1.000000	-1.000000	146.758621	0.000000	-1.000000	-1.000000	638925.000000	1772311938.227024
-24434.055000	-34016.490000	-33757.290000	-18898.020000	0.000000	0.000000	0.000000	0.000000	-35.357499	23.100092	-44.747090	-37.887963	-0.000000	0.000000	0.000000	0.000000	3.158820	4.547480	6.958560	0.014404	0.994504	0.020508	-1.000000	-1.000000	-1.000000	-1.000000	-1.000000	-1.000000	-1.000000	146.758621	0.000000	-1.000000	-1.000000	638926.000000	1772311938.231042
-24448.095000	-33993.495000	-33763.860000	-18867.150000	0.000000	0.000000	0.000000	0.000000	-22.172674	2.714695	-26.852051	-4.486856	-0.000000	0.000000	0.000000	0.000000	3.158820	4.547480	6.958560	0.014404	0.994504	0.020508	-1.000000	-1.000000	-1.000000	-1.000000	-1.000000	-1.000000	-1.000000	146.758621	0.000000	-1.000000	-1.000000	638927.000000	1772311938.231044
-24480.495000	-33969.240000	-33738.615000	-18849.870000	0.000000	0.000000	0.000000	0.000000	10.179374	-14.388610	9.233673	38.369925	-0.000000	0.000000	0.000000	0.000000	17.671080	-0.869820	7.767340	-0.006714	0.969785	0.048584	-1.000000	-1.000000	-1.000000	-1.000000	-1.000000	-1.000000	-1.000000	146.758621	0.000000	-1.000000	-1.000000	638928.000000	1772311938.237840
-24519.690000	-33944.625000	-33758.415000	-18849.690000	0.000000	0.000000	0.000000	0.000000	38.755879	-21.239389	43.145550	63.948399	-0.000000	0.000000	0.000000	0.000000	17.671080	-0.869820	7.767340	-0.006714	0.969785	0.048584	-1.000000	-1.000000	-1.000000	-1.000000	-1.000000	-1.000000	-1.000000	146.758621	0.000000	-1.000000	-1.000000	638929.000000	1772311938.237844
-24414.075000	-33927.705000	-33684.705000	-18813.105000	0.000000	0.000000	0.000000	0.000000	48.946499	-18.099166	59.487034	58.993322	-0.000000	0.000000	0.000000	0.000000	17.671080	-0.869820	7.767340	-0.006714	0.969785	0.048584	-1.000000	-1.000000	-1.000000	-1.000000	-1.000000	-1.000000	-1.000000	146.758621	0.000000	-1.000000	-1.000000	638930.000000	1772311938.238976
-24521.940000	-33945.615000	-33703.065000	-18886.680000	0.000000	0.000000	0.000000	0.000000	42.709808	-11.016208	54.926194	28.611324	-0.000000	0.000000	0.000000	0.000000	17.671080	-0.869820	7.767340	-0.006714	0.969785	0.048584	-1.000000	-1.000000	-1.000000	-1.000000	-1.000000	-1.000000	-1.000000	146.758621	0.000000	-1.000000	-1.000000	638931.000000	1772311938.238979
-24477.210000	-33996.825000	-33561.630000	-18796.455000	0.000000	0.000000	0.000000	0.000000	25.773636	-7.851370	36.488994	-11.019077	-0.000000	0.000000	0.000000	0.000000	17.671080	-0.869820	7.767340	-0.006714	0.969785	0.048584	-1.000000	-1.000000	-1.000000	-1.000000	-1.000000	-1.000000	-1.000000	146.758621	0.000000	-1.000000	-1.000000	638932.000000	1772311938.243262
-24362.640000	-34018.650000	-33506.730000	-18751.590000	0.000000	0.000000	0.000000	0.000000	5.919681	-12.468221	16.280939	-39.111557	-0.000000	0.000000	0.000000	0.000000	17.671080	-0.869820	7.767340	-0.006714	0.969785	0.048584	-1.000000	-1.000000	-1.000000	-1.000000	-1.000000	-1.000000	-1.000000	146.758621	0.000000	-1.000000	-1.000000	638933.000000	1772311938.243266
-24399.855000	-34007.625000	-33623.640000	-18883.575000	0.000000	0.000000	0.000000	0.000000	-5.292441	-19.707257	-1.078503	-44.868463	-0.000000	0.000000	0.000000	0.000000	17.671080	-0.869820	7.767340	-0.006714	0.969785	0.048584	-1.000000	-1.000000	-1.000000	-1.000000	-1.000000	-1.000000	-1.000000	146.758621	0.000000	-1.000000	-1.000000	638934.000000	1772311938.247096
-24379.110000	-34033.185000	-33652.890000	-18928.215000	0.000000	0.000000	0.000000	0.000000	-7.373630	-19.750963	-24.263675	-39.172015	-0.000000	0.000000	0.000000	0.000000	17.671080	-0.869820	7.767340	-0.006714	0.969785	0.048584	-1.000000	-1.000000	-1.000000	-1.000000	-1.000000	-1.000000	-1.000000	146.758621	0.000000	-1.000000	-1.000000	638935.000000	1772311938.247099
-24357.690000	-34056.135000	-33635.970000	-18895.185000	0.000000	0.000000	0.000000	0.000000	-9.682705	-9.418383	-54.262011	-34.325674	-0.000000	0.000000	0.000000	0.000000	17.671080	-0.869820	7.767340	-0.006714	0.969785	0.048584	-1.000000	-1.000000	-1.000000	-1.000000	-1.000000	-1.000000	-1.000000	146.758621	0.000000	-1.000000	-1.000000	638936.000000	1772311938.251168
-24384.915000	-34050.735000	-33687.945000	-18921.240000	0.000000	0.000000	0.000000	0.000000	-16.140944	5.767463	-73.893198	-25.896104	-0.000000	0.000000	0.000000	0.000000	17.671080	-0.869820	7.767340	-0.006714	0.969785	0.048584	-1.000000	-1.000000	-1.000000	-1.000000	-1.000000	-1.000000	-1.000000	146.758621	0.000000	-1.000000	-1.000000	638937.000000	1772311938.251171
-24429.465000	-34081.065000	-33706.170000	-18920.520000	0.000000	0.000000	0.000000	0.000000	-25.236988	18.729889	-68.802825	-7.459805	-0.000000	0.000000	0.000000	0.000000	2.365300	11.536560	17.045420	0.051697	1.005674	-0.039856	-1.000000	-1.000000	-1.000000	-1.000000	-1.000000	-1.000000	-1.000000	146.758621	0.000000	-1.000000	-1.000000	638938.000000	1772311938.255081
-24414.210000	-34106.220000	-33699.195000	-18883.665000	0.000000	0.000000	0.000000	0.000000	-33.298037	24.400229	-40.575641	16.982761	-0.000000	0.000000	0.000000	0.000000	2.365300	11.536560	17.045420	0.051697	1.005674	-0.039856	-1.000000	-1.000000	-1.000000	-1.000000	-1.000000	-1.000000	-1.000000	146.758621	0.000000	-1.000000	-1.000000	638939.000000	1772311938.255084
-24464.655000	-34116.030000	-33718.905000	-18886.365000	0.000000	0.000000	0.000000	0.000000	-34.248569	21.109998	-0.795791	38.514645	-0.000000	0.000000	0.000000	0.000000	2.365300	11.536560	17.045420	0.051697	1.005674	-0.039856	-1.000000	-1.000000	-1.000000	-1.000000	-1.000000	-1.000000	-1.000000	146.758621	0.000000	-1.000000	-1.000000	638940.000000	1772311938.259083
-24329.385000	-34148.475000	-33678.540000	-18851.670000	0.000000	0.000000	0.000000	0.000000	-22.520958	11.897530	36.248241	48.955270	-0.000000	0.000000	0.000000	0.000000	2.365300	11.536560	17.045420	0.051697	1.005674	-0.039856	-1.000000	-1.000000	-1.000000	-1.000000	-1.000000	-1.000000	-1.000000	146.758621	0.000000	-1.000000	-1.000000	638941.000000	1772311938.259086
-24266.205000	-34175.970000	-33650.865000	-18821.115000	0.000000	0.000000	0.000000	0.000000	4.422000	1.504648	60.043664	44.871725	-0.000000	0.000000	0.000000	0.000000	2.365300	11.536560	17.045420	0.051697	1.005674	-0.039856	-1.000000	-1.000000	-1.000000	-1.000000	-1.000000	-1.000000	-1.000000	146.758621	0.000000	-1.000000	-1.000000	638942.000000	1772311938.263167
-24351.930000	-34162.740000	-33663.735000	-18816.390000	0.000000	0.000000	0.000000	0.000000	36.953338	-5.980749	65.829283	29.105428	-0.000000	0.000000	0.000000	0.000000	2.365300	11.536560	17.045420	0.051697	1.005674	-0.039856	-1.000000	-1.000000	-1.000000	-1.000000	-1.000000	-1.000000	-1.000000	146.758621	0.000000	-1.000000	-1.000000	638943.000000	1772311938.263171
-24627.015000	-34193.880000	-33756.165000	-18885.780000	0.000000	0.000000	0.000000	0.000000	46.674630	-7.543187	50.712452	5.696937	-0.000000	0.000000	0.000000	0.000000	2.365300	11.536560	17.045420	0.051697	1.005674	-0.039856	-1.000000	-1.000000	-1.000000	-1.000000	-1.000000	-1.000000	-1.000000	146.758621	0.000000	-1.000000	-1.000000	638944.000000	1772311938.268712
-24549.075000	-34242.030000	-33671.520000	-18861.705000	0.000000	0.000000	0.000000	0.000000	14.776664	-4.660513	18.067567	-21.217166	-0.000000	0.000000	0.000000	0.000000	2.365300	11.536560	17.045420	0.051697	1.005674	-0.039856	-1.000000	-1.000000	-1.000000	-1.000000	-1.000000	-1.000000	-1.000000	146.758621	0.000000	-1.000000	-1.000000	638945.000000	1772311938.268715
-24359.805000	-34265.115000	-33552.270000	-18811.530000	0.000000	0.000000	0.000000	0.000000	-29.971418	-2.628557	-13.062524	-41.202197	-0.000000	0.000000	0.000000	0.000000	2.365300	11.536560	17.045420	0.051697	1.005674	-0.039856	-1.000000	-1.000000	-1.000000	-1.000000	-1.000000	-1.000000	-1.000000	146.758621	0.000000	-1.000000	-1.000000	638946.000000	1772311938.271235
-24385.770000	-34259.805000	-33615.135000	-18865.215000	0.000000	0.000000	0.000000	0.000000	-37.876539	-2.972984	-23.012766	-43.133445	-0.000000	0.000000	0.000000	0.000000	2.365300	11.536560	17.045420	0.051697	1.005674	-0.039856	-1.000000	-1.000000	-1.000000	-1.000000	-1.000000	-1.000000	-1.000000	146.758621	0.000000	-1.000000	-1.000000	638947.000000	1772311938.271239
-24405.750000	-34239.105000	-33675.840000	-18905.490000	0.000000	0.000000	0.000000	0.000000	-3.053669	-1.348288	-17.569853	-30.022827	-0.000000	0.000000	0.000000	0.000000	18.205180	14.786940	24.385480	0.096985	1.083737	-0.052490	-1.000000	-1.000000	-1.000000	-1.000000	-1.000000	-1.000000	-1.000000	146.758621	0.000000	-1.000000	-1.000000	638948.000000	1772311938.280616
-24444.315000	-34241.625000	-33651.270000	-18874.980000	0.000000	0.000000	0.000000	0.000000	35.305044	5.410672	-16.216523	-13.859235	-0.000000	0.000000	0.000000	0.000000	18.205180	14.786940	24.385480	0.096985	1.083737	-0.052490	-1.000000	-1.000000	-1.000000	-1.000000	-1.000000	-1.000000	-1.000000	146.758621	0.000000	-1.000000	-1.000000	638949.000000	1772311938.280619
-24388.380000	-34262.100000	-33582.015000	-18834.570000	0.000000	0.000000	0.000000	0.000000	45.203854	13.436939	-21.190125	1.059680	-0.000000	0.000000	0.000000	0.000000	18.205180	14.786940	24.385480	0.096985	1.083737	-0.052490	-1.000000	-1.000000	-1.000000	-1.000000	-1.000000	-1.000000	-1.000000	146.758621	0.000000	-1.000000	-1.000000	638950.000000	1772311938.280623
-24428.070000	-34250.535000	-33486.480000	-18805.995000	0.000000	0.000000	0.000000	0.000000	27.104772	15.679925	-18.058768	16.854307	-0.000000	0.000000	0.000000	0.000000	18.205180	14.786940	24.385480	0.096985	1.083737	-0.052490	-1.000000	-1.000000	-1.000000	-1.000000	-1.000000	-1.000000	-1.000000	146.758621	0.000000	-1.000000	-1.000000	638951.000000	1772311938.280626
-24516.090000	-34228.620000	-33558.525000	-18895.005000	0.000000	0.000000	0.000000	0.000000	-3.157706	10.558187	-1.353828	29.186707	-0.000000	0.000000	0.000000	0.000000	18.205180	14.786940	24.385480	0.096985	1.083737	-0.052490	-1.000000	-1.000000	-1.000000	-1.000000	-1.000000	-1.000000	-1.000000	146.758621	0.000000	-1.000000	-1.000000	638952.000000	1772311938.283276
-24358.815000	-34241.805000	-33663.375000	-18968.490000	0.000000	0.000000	0.000000	0.000000	-29.473068	2.386466	12.489645	26.239688	-0.000000	0.000000	0.000000	0.000000	18.205180	14.786940	24.385480	0.096985	1.083737	-0.052490	-1.000000	-1.000000	-1.000000	-1.000000	-1.000000	-1.000000	-1.000000	146.758621	0.000000	-1.000000	-1.000000	638953.000000	1772311938.283279
-24284.520000	-34248.780000	-33713.280000	-18958.950000	0.000000	0.000000	0.000000	0.000000	-33.854553	-5.419307	4.518371	5.037636	-0.000000	0.000000	0.000000	0.000000	18.205180	14.786940	24.385480	0.096985	1.083737	-0.052490	-1.000000	-1.000000	-1.000000	-1.000000	-1.000000	-1.000000	-1.000000	146.758621	0.000000	-1.000000	-1.000000	638954.000000	1772311938.287337
-24362.145000	-34256.205000	-33697.890000	-18885.195000	0.000000	0.000000	0.000000	0.000000	-12.234845	-12.026115	-19.789262	-17.383673	-0.000000	0.000000	0.000000	0.000000	18.205180	14.786940	24.385480	0.096985	1.083737	-0.052490	-1.000000	-1.000000	-1.000000	-1.000000	-1.000000	-1.000000	-1.000000	146.758621	0.000000	-1.000000	-1.000000	638955.000000	1772311938.287348
-24539.085000	-34244.640000	-33721.515000	-18801.810000	0.000000	0.000000	0.000000	0.000000	9.372065	-15.971586	-35.703724	-18.576509	-0.000000	0.000000	0.000000	0.000000	18.205180	14.786940	24.385480	0.096985	1.083737	-0.052490	-1.000000	-1.000000	-1.000000	-1.000000	-1.000000	-1.000000	-1.000000	146.758621	0.000000	-1.000000	-1.000000	638956.000000	1772311938.294171
-24565.860000	-34252.020000	-33770.205000	-18828.720000	0.000000	0.000000	0.000000	0.000000	2.595497	-15.164373	-28.123994	4.143987	-0.000000	0.000000	0.000000	0.000000	18.205180	14.786940	24.385480	0.096985	1.083737	-0.052490	-1.000000	-1.000000	-1.000000	-1.000000	-1.000000	-1.000000	-1.000000	146.758621	0.000000	-1.000000	-1.000000	638957.000000	1772311938.294176
-24508.080000	-34267.410000	-33727.680000	-18826.875000	0.000000	0.000000	0.000000	0.000000	-24.662483	-10.069584	-2.786808	29.232598	-0.000000	0.000000	0.000000	0.000000	9.674840	-1.846460	14.878500	0.017090	1.122190	0.023376	-1.000000	-1.000000	-1.000000	-1.000000	-1.000000	-1.000000	-1.000000	146.758621	0.000000	-1.000000	-1.000000	638958.000000	1772311938.297304
-24532.605000	-34274.250000	-33534.810000	-18625.095000	0.000000	0.000000	0.000000	0.000000	-38.510670	-4.002381	30.046472	37.595257	-0.000000	0.000000	0.000000	0.000000	9.674840	-1.846460	14.878500	0.017090	1.122190	0.023376	-1.000000	-1.000000	-1.000000	-1.000000	-1.000000	-1.000000	-1.000000	146.758621	0.000000	-1.000000	-1.000000	638959.000000	1772311938.297308
-24538.095000	-34268.670000	-33468.750000	-18557.280000	0.000000	0.000000	0.000000	0.000000	-21.825181	0.636702	64.733614	33.278857	-0.000000	0.000000	0.000000	0.000000	9.674840	-1.846460	14.878500	0.017090	1.122190	0.023376	-1.000000	-1.000000	-1.000000	-1.000000	-1.000000	-1.000000	-1.000000	146.758621	0.000000	-1.000000	-1.000000	638960.000000	1772311938.299270
-24361.740000	-34271.640000	-33408.540000	-18459.270000	0.000000	0.000000	0.000000	0.000000	15.498054	4.056680	88.299628	26.429634	-0.000000	0.000000	0.000000	0.000000	9.674840	-1.846460	14.878500	0.017090	1.122190	0.023376	-1.000000	-1.000000	-1.000000	-1.000000	-1.000000	-1.000000	-1.000000	146.758621	0.000000	-1.000000	-1.000000	638961.000000	1772311938.299272
-24255.900000	-34253.910000	-33535.035000	-18796.995000	0.000000	0.000000	0.000000	0.000000	57.720473	7.097623	78.693591	8.780042	-0.000000	0.000000	0.000000	0.000000	9.674840	-1.846460	14.878500	0.017090	1.122190	0.023376	-1.000000	-1.000000	-1.000000	-1.000000	-1.000000	-1.000000	-1.000000	146.758621	0.000000	-1.000000	-1.000000	638962.000000	1772311938.303202
-24441.345000	-34233.705000	-33673.905000	-19249.785000	0.000000	0.000000	0.000000	0.000000	84.121074	10.042828	23.276398	-44.170957	-0.000000	0.000000	0.000000	0.000000	9.674840	-1.846460	14.878500	0.017090	1.122190	0.023376	-1.000000	-1.000000	-1.000000	-1.000000	-1.000000	-1.000000	-1.000000	146.758621	0.000000	-1.000000	-1.000000	638963.000000	1772311938.303206
-24619.140000	-34253.910000	-33628.770000	-19040.040000	0.000000	0.000000	0.000000	0.000000	64.996697	11.774394	-59.888860	-127.088753	-0.000000	0.000000	0.000000	0.000000	9.674840	-1.846460	14.878500	0.017090	1.122190	0.023376	-1.000000	-1.000000	-1.000000	-1.000000	-1.000000	-1.000000	-1.000000	146.758621	0.000000	-1.000000	-1.000000	638964.000000	1772311938.307521
-24445.080000	-34281.405000	-33590.340000	-18915.480000	0.000000	0.000000	0.000000	0.000000	-1.833115	8.957875	-122.284798	-170.217338	-0.000000	0.000000	0.000000	0.000000	9.674840	-1.846460	14.878500	0.017090	1.122190	0.023376	-1.000000	-1.000000	-1.000000	-1.000000	-1.000000	-1.000000	-1.000000	146.758621	0.000000	-1.000000	-1.000000	638965.000000	1772311938.307532
-24557.310000	-34296.975000	-33738.795000	-18990.630000	0.000000	0.000000	0.000000	0.000000	-70.109663	-0.286743	-126.106640	-111.190417	-0.000000	0.000000	0.000000	0.000000	9.674840	-1.846460	14.878500	0.017090	1.122190	0.023376	-1.000000	-1.000000	-1.000000	-1.000000	-1.000000	-1.000000	-1.000000	146.758621	0.000000	-1.000000	-1.000000	638966.000000	1772311938.311351
-24688.890000	-34322.670000	-33878.385000	-19089.180000	0.000000	0.000000	0.000000	0.000000	-97.142939	-12.240041	-81.840842	18.338012	-0.000000	0.000000	0.000000	0.000000	9.674840	-1.846460	14.878500	0.017090	1.122190	0.023376	-1.000000	-1.000000	-1.000000	-1.000000	-1.000000	-1.000000	-1.000000	146.758621	0.000000	-1.000000	-1.000000	638967.000000	1772311938.311355
-24566.580000	-34306.650000	-33782.850000	-18992.115000	0.000000	0.000000	0.000000	0.000000	-80.578177	-19.629274	-24.413858	131.880964	-0.000000	0.000000	0.000000	0.000000	0.274680	-9.781660	26.582920	-0.030090	1.050901	0.056335	-1.000000	-1.000000	-1.000000	-1.000000	-1.000000	-1.000000	-1.000000	146.758621	0.000000	-1.000000	-1.000000	638968.000000	1772311938.315283
-24432.210000	-34296.705000	-33660.765000	-18863.550000	0.000000	0.000000	0.000000	0.000000	-31.167071	-16.721035	31.186116	179.120404	-0.000000	0.000000	0.000000	0.000000	0.274680	-9.781660	26.582920	-0.030090	1.050901	0.056335	-1.000000	-1.000000	-1.000000	-1.000000	-1.000000	-1.000000	-1.000000	146.758621	0.000000	-1.000000	-1.000000	638969.000000	1772311938.315287
-24471.450000	-34317.585000	-33592.500000	-18814.995000	0.000000	0.000000	0.000000	0.000000	36.363385	-4.328349	85.189065	164.515629	-0.000000	0.000000	0.000000	0.000000	0.274680	-9.781660	26.582920	-0.030090	1.050901	0.056335	-1.000000	-1.000000	-1.000000	-1.000000	-1.000000	-1.000000	-1.000000	146.758621	0.000000	-1.000000	-1.000000	638970.000000	1772311938.319239
-24667.785000	-34351.380000	-33715.215000	-18912.465000	0.000000	0.000000	0.000000	0.000000	85.612295	8.950130	121.675576	108.026100	-0.000000	0.000000	0.000000	0.000000	0.274680	-9.781660	26.582920	-0.030090	1.050901	0.056335	-1.000000	-1.000000	-1.000000	-1.000000	-1.000000	-1.000000	-1.000000	146.758621	0.000000	-1.000000	-1.000000	638971.000000	1772311938.319244
-24614.055000	-34385.985000	-33848.280000	-19025.820000	0.000000	0.000000	0.000000	0.000000	81.330796	13.671574	110.656827	22.843235	-0.000000	0.000000	0.000000	0.000000	0.274680	-9.781660	26.582920	-0.030090	1.050901	0.056335	-1.000000	-1.000000	-1.000000	-1.000000	-1.000000	-1.000000	-1.000000	146.758621	0.000000	-1.000000	-1.000000	638972.000000	1772311938.325135
-24535.845000	-34415.685000	-33864.795000	-19054.305000	0.000000	0.000000	0.000000	0.000000	33.752558	7.845665	45.204064	-71.490930	-0.000000	0.000000	0.000000	0.000000	0.274680	-9.781660	26.582920	-0.030090	1.050901	0.056335	-1.000000	-1.000000	-1.000000	-1.000000	-1.000000	-1.000000	-1.000000	146.758621	0.000000	-1.000000	-1.000000	638973.000000	1772311938.325138
-24269.445000	-34421.940000	-33778.215000	-18943.065000	0.000000	0.000000	0.000000	0.000000	-7.907225	-2.227594	-36.989081	-137.595838	-0.000000	0.000000	0.000000	0.000000	0.274680	-9.781660	26.582920	-0.030090	1.050901	0.056335	-1.000000	-1.000000	-1.000000	-1.000000	-1.000000	-1.000000	-1.000000	146.758621	0.000000	-1.000000	-1.000000	638974.000000	1772311938.327352
-23959.845000	-34393.050000	-33614.910000	-18790.740000	0.000000	0.000000	0.000000	0.000000	-3.400985	-7.143050	-80.508302	-138.521994	-0.000000	0.000000	0.000000	0.000000	0.274680	-9.781660	26.582920	-0.030090	1.050901	0.056335	-1.000000	-1.000000	-1.000000	-1.000000	-1.000000	-1.000000	-1.000000	146.758621	0.000000	-1.000000	-1.000000	638975.000000	1772311938.327355
