Channel1	Channel2	Channel3	Channel4	Channel5	Channel6	Channel7	Channel8	FilteredChannel1	FilteredChannel2	FilteredChannel3	FilteredChannel4	FilteredChannel5	FilteredChannel6	FilteredChannel7	FilteredChannel8	GyroX	GyroY	GyroZ	AccX	AccY	AccZ	PPG1	PPG2	rawPPG1	rawPPG2	rawPPG3	Hr	Hrv	Battery	Trigger	PhysicalTrigger	AutoTrigger	NumMeasurements	Timestamp
-23926.635000	-34018.875000	-32942.925000	-18893.790000	0.000000	0.000000	0.000000	0.000000	-1.803731	0.079541	-3.324463	-3.153164	-0.000000	0.000000	-0.000000	-0.000000	-1.617560	-0.671440	-0.061040	-0.000977	0.985044	0.017944	-1.000000	-1.000000	-1.000000	-1.000000	-1.000000	-1.000000	-1.000000	146.620690	0.000000	-1.000000	-1.000000	630879.000000	1772311922.084297
-23927.490000	-33987.960000	-32944.500000	-18894.240000	0.000000	0.000000	0.000000	0.000000	-0.447329	13.065808	-1.796174	-1.182246	-0.000000	0.000000	-0.000000	-0.000000	-1.617560	-0.671440	-0.061040	-0.000977	0.985044	0.017944	-1.000000	-1.000000	-1.000000	-1.000000	-1.000000	-1.000000	-1.000000	146.620690	0.000000	-1.000000	-1.000000	630880.000000	1772311922.084300
-23940.855000	-33920.730000	-32958.765000	-18907.740000	0.000000	0.000000	0.000000	0.000000	1.507538	27.985416	0.877338	1.493515	-0.000000	0.000000	-0.000000	-0.000000	-1.617560	-0.671440	-0.061040	-0.000977	0.985044	0.017944	-1.000000	-1.000000	-1.000000	-1.000000	-1.000000	-1.000000	-1.000000	146.620690	0.000000	-1.000000	-1.000000	630881.000000	1772311922.088437
-23937.030000	-33923.880000	-32953.905000	-18904.095000	0.000000	0.000000	0.000000	0.000000	1.837189	38.518419	1.942369	2.432261	-0.000000	0.000000	-0.000000	-0.000000	-1.617560	-0.671440	-0.061040	-0.000977	0.985044	0.017944	-1.000000	-1.000000	-1.000000	-1.000000	-1.000000	-1.000000	-1.000000	146.620690	0.000000	-1.000000	-1.000000	630882.000000	1772311922.088439
-23936.895000	-33934.365000	-32954.625000	-18903.915000	0.000000	0.000000	0.000000	0.000000	0.473815	36.503568	1.036127	1.395547	-0.000000	0.000000	-0.000000	-0.000000	3.937080	-0.152600	0.289940	0.004700	0.974119	0.020691	-1.000000	-1.000000	-1.000000	-1.000000	-1.000000	-1.000000	-1.000000	146.620690	0.000000	-1.000000	-1.000000	630883.000000	1772311922.092553
-23936.310000	-33930.135000	-32955.120000	-18905.175000	0.000000	0.000000	0.000000	0.000000	-0.818976	17.775614	-0.150977	0.061784	-0.000000	0.000000	-0.000000	-0.000000	3.937080	-0.152600	0.289940	0.004700	0.974119	0.020691	-1.000000	-1.000000	-1.000000	-1.000000	-1.000000	-1.000000	-1.000000	146.620690	0.000000	-1.000000	-1.000000	630884.000000	1772311922.092556
-23937.705000	-33914.745000	-32957.145000	-18907.695000	0.000000	0.000000	0.000000	0.000000	-0.911578	-10.479881	-0.473437	-0.428476	-0.000000	0.000000	-0.000000	-0.000000	3.937080	-0.152600	0.289940	0.004700	0.974119	0.020691	-1.000000	-1.000000	-1.000000	-1.000000	-1.000000	-1.000000	-1.000000	146.620690	0.000000	-1.000000	-1.000000	630885.000000	1772311922.096489
-23936.400000	-33927.165000	-32954.490000	-18904.365000	0.000000	0.000000	0.000000	0.000000	-0.086073	-34.188209	-0.020781	-0.141789	-0.000000	0.000000	-0.000000	-0.000000	3.937080	-0.152600	0.289940	0.004700	0.974119	0.020691	-1.000000	-1.000000	-1.000000	-1.000000	-1.000000	-1.000000	-1.000000	146.620690	0.000000	-1.000000	-1.000000	630886.000000	1772311922.096493
-23924.655000	-33943.860000	-32944.095000	-18891.945000	0.000000	0.000000	0.000000	0.000000	1.073368	-44.109079	0.912842	0.752352	-0.000000	0.000000	-0.000000	-0.000000	3.937080	-0.152600	0.289940	0.004700	0.974119	0.020691	-1.000000	-1.000000	-1.000000	-1.000000	-1.000000	-1.000000	-1.000000	146.620690	0.000000	-1.000000	-1.000000	630887.000000	1772311922.101042
-23930.955000	-33929.595000	-32952.870000	-18899.325000	0.000000	0.000000	0.000000	0.000000	2.195657	-39.579587	1.992015	2.054463	-0.000000	0.000000	-0.000000	-0.000000	3.937080	-0.152600	0.289940	0.004700	0.974119	0.020691	-1.000000	-1.000000	-1.000000	-1.000000	-1.000000	-1.000000	-1.000000	146.620690	0.000000	-1.000000	-1.000000	630888.000000	1772311922.101045
-23934.780000	-33938.370000	-32955.795000	-18902.430000	0.000000	0.000000	0.000000	0.000000	2.405157	-24.489982	2.158978	2.594388	-0.000000	0.000000	-0.000000	-0.000000	3.937080	-0.152600	0.289940	0.004700	0.974119	0.020691	-1.000000	-1.000000	-1.000000	-1.000000	-1.000000	-1.000000	-1.000000	146.620690	0.000000	-1.000000	-1.000000	630889.000000	1772311922.105361
-23939.550000	-33943.455000	-32958.945000	-18903.960000	0.000000	0.000000	0.000000	0.000000	0.813311	-5.111199	0.571329	1.203232	-0.000000	0.000000	-0.000000	-0.000000	3.937080	-0.152600	0.289940	0.004700	0.974119	0.020691	-1.000000	-1.000000	-1.000000	-1.000000	-1.000000	-1.000000	-1.000000	146.620690	0.000000	-1.000000	-1.000000	630890.000000	1772311922.105364
-23933.115000	-33951.195000	-32952.870000	-18898.065000	0.000000	0.000000	0.000000	0.000000	-1.848550	11.287318	-1.832442	-1.371114	-0.000000	0.000000	-0.000000	-0.000000	3.937080	-0.152600	0.289940	0.004700	0.974119	0.020691	-1.000000	-1.000000	-1.000000	-1.000000	-1.000000	-1.000000	-1.000000	146.620690	0.000000	-1.000000	-1.000000	630891.000000	1772311922.108525
-23929.335000	-33959.385000	-32948.325000	-18893.025000	0.000000	0.000000	0.000000	0.000000	-3.463354	19.919377	-3.018177	-3.016016	0.000000	0.000000	-0.000000	-0.000000	3.937080	-0.152600	0.289940	0.004700	0.974119	0.020691	-1.000000	-1.000000	-1.000000	-1.000000	-1.000000	-1.000000	-1.000000	146.620690	0.000000	-1.000000	-1.000000	630892.000000	1772311922.108528
-23931.945000	-33944.535000	-32956.065000	-18900.495000	0.000000	0.000000	0.000000	0.000000	-2.783586	20.632442	-2.147671	-2.670921	0.000000	0.000000	-0.000000	-0.000000	9.461200	-0.701960	0.350980	0.002563	0.978208	0.016357	-1.000000	-1.000000	-1.000000	-1.000000	-1.000000	-1.000000	-1.000000	146.620690	0.000000	-1.000000	-1.000000	630893.000000	1772311922.113325
-23927.175000	-33973.785000	-32950.980000	-18895.590000	0.000000	0.000000	0.000000	0.000000	-0.633871	16.306428	-0.388657	-1.269627	0.000000	0.000000	-0.000000	-0.000000	9.461200	-0.701960	0.350980	0.002563	0.978208	0.016357	-1.000000	-1.000000	-1.000000	-1.000000	-1.000000	-1.000000	-1.000000	146.620690	0.000000	-1.000000	-1.000000	630894.000000	1772311922.113328
-23923.845000	-33979.635000	-32946.615000	-18892.800000	0.000000	0.000000	0.000000	0.000000	1.452108	9.296733	0.966454	-0.011861	0.000000	0.000000	-0.000000	-0.000000	9.461200	-0.701960	0.350980	0.002563	0.978208	0.016357	-1.000000	-1.000000	-1.000000	-1.000000	-1.000000	-1.000000	-1.000000	146.620690	0.000000	-1.000000	-1.000000	630895.000000	1772311922.117644
-23924.250000	-33958.170000	-32948.055000	-18891.765000	0.000000	0.000000	0.000000	0.000000	2.558307	1.876120	1.679429	0.845138	0.000000	0.000000	-0.000000	-0.000000	9.461200	-0.701960	0.350980	0.002563	0.978208	0.016357	-1.000000	-1.000000	-1.000000	-1.000000	-1.000000	-1.000000	-1.000000	146.620690	0.000000	-1.000000	-1.000000	630896.000000	1772311922.117647
-23929.425000	-33925.140000	-32952.825000	-18895.365000	0.000000	0.000000	0.000000	0.000000	2.222791	-1.714975	1.595763	1.197675	0.000000	0.000000	-0.000000	-0.000000	9.461200	-0.701960	0.350980	0.002563	0.978208	0.016357	-1.000000	-1.000000	-1.000000	-1.000000	-1.000000	-1.000000	-1.000000	146.620690	0.000000	-1.000000	-1.000000	630897.000000	1772311922.120497
-23942.340000	-33902.325000	-32966.190000	-18908.145000	0.000000	0.000000	0.000000	0.000000	0.243723	1.168061	0.244143	0.544117	0.000000	0.000000	-0.000000	-0.000000	9.461200	-0.701960	0.350980	0.002563	0.978208	0.016357	-1.000000	-1.000000	-1.000000	-1.000000	-1.000000	-1.000000	-1.000000	146.620690	0.000000	-1.000000	-1.000000	630898.000000	1772311922.120500
-23946.615000	-33890.040000	-32967.720000	-18911.565000	0.000000	0.000000	0.000000	0.000000	-2.844827	7.377237	-2.224459	-1.329578	0.000000	0.000000	-0.000000	-0.000000	9.461200	-0.701960	0.350980	0.002563	0.978208	0.016357	-1.000000	-1.000000	-1.000000	-1.000000	-1.000000	-1.000000	-1.000000	146.620690	0.000000	-1.000000	-1.000000	630899.000000	1772311922.124214
-23939.415000	-33869.115000	-32961.960000	-18905.940000	0.000000	0.000000	0.000000	0.000000	-5.168748	10.555947	-4.164563	-3.221349	0.000000	0.000000	-0.000000	-0.000000	9.461200	-0.701960	0.350980	0.002563	0.978208	0.016357	-1.000000	-1.000000	-1.000000	-1.000000	-1.000000	-1.000000	-1.000000	146.620690	0.000000	-1.000000	-1.000000	630900.000000	1772311922.124216
-23941.845000	-33843.915000	-32966.685000	-18910.035000	0.000000	0.000000	0.000000	0.000000	-4.559132	7.402823	-3.615874	-3.179801	0.000000	0.000000	-0.000000	-0.000000	9.461200	-0.701960	0.350980	0.002563	0.978208	0.016357	-1.000000	-1.000000	-1.000000	-1.000000	-1.000000	-1.000000	-1.000000	146.620690	0.000000	-1.000000	-1.000000	630901.000000	1772311922.128499
-23943.060000	-33838.830000	-32968.575000	-18910.620000	0.000000	0.000000	0.000000	0.000000	-1.010132	-0.403636	-0.703018	-0.857144	0.000000	0.000000	-0.000000	-0.000000	9.461200	-0.701960	0.350980	0.002563	0.978208	0.016357	-1.000000	-1.000000	-1.000000	-1.000000	-1.000000	-1.000000	-1.000000	146.620690	0.000000	-1.000000	-1.000000	630902.000000	1772311922.128502
-23944.905000	-33802.695000	-32969.925000	-18910.530000	0.000000	0.000000	0.000000	0.000000	3.118472	-8.887597	2.524670	2.171305	0.000000	0.000000	-0.000000	-0.000000	9.384900	-1.220800	1.556520	0.003296	0.978818	0.006958	-1.000000	-1.000000	-1.000000	-1.000000	-1.000000	-1.000000	-1.000000	146.620690	0.000000	-1.000000	-1.000000	630903.000000	1772311922.133873
-23945.805000	-33771.465000	-32972.760000	-18915.660000	0.000000	0.000000	0.000000	0.000000	5.453867	-13.780283	4.277391	4.133013	0.000000	0.000000	-0.000000	-0.000000	9.384900	-1.220800	1.556520	0.003296	0.978818	0.006958	-1.000000	-1.000000	-1.000000	-1.000000	-1.000000	-1.000000	-1.000000	146.620690	0.000000	-1.000000	-1.000000	630904.000000	1772311922.133876
-23944.680000	-33752.835000	-32971.230000	-18916.785000	0.000000	0.000000	0.000000	0.000000	5.268857	-12.812919	4.112947	4.132503	0.000000	0.000000	-0.000000	-0.000000	9.384900	-1.220800	1.556520	0.003296	0.978818	0.006958	-1.000000	-1.000000	-1.000000	-1.000000	-1.000000	-1.000000	-1.000000	146.620690	0.000000	-1.000000	-1.000000	630905.000000	1772311922.137411
-23944.590000	-33736.995000	-32967.045000	-18909.630000	0.000000	0.000000	0.000000	0.000000	3.356480	-7.989210	2.792618	2.620914	0.000000	0.000000	-0.000000	-0.000000	9.384900	-1.220800	1.556520	0.003296	0.978818	0.006958	-1.000000	-1.000000	-1.000000	-1.000000	-1.000000	-1.000000	-1.000000	146.620690	0.000000	-1.000000	-1.000000	630906.000000	1772311922.137414
-23948.505000	-33744.780000	-32973.660000	-18915.435000	0.000000	0.000000	0.000000	0.000000	0.920498	-3.852777	1.315056	0.928787	0.000000	0.000000	-0.000000	-0.000000	9.384900	-1.220800	1.556520	0.003296	0.978818	0.006958	-1.000000	-1.000000	-1.000000	-1.000000	-1.000000	-1.000000	-1.000000	146.620690	0.000000	-1.000000	-1.000000	630907.000000	1772311922.140503
-23952.150000	-33758.865000	-32978.520000	-18921.555000	0.000000	0.000000	0.000000	0.000000	-1.310074	-3.880049	-0.164198	-0.380169	0.000000	0.000000	-0.000000	-0.000000	9.384900	-1.220800	1.556520	0.003296	0.978818	0.006958	-1.000000	-1.000000	-1.000000	-1.000000	-1.000000	-1.000000	-1.000000	146.620690	0.000000	-1.000000	-1.000000	630908.000000	1772311922.140505
-23944.770000	-33769.845000	-32970.105000	-18914.220000	0.000000	0.000000	0.000000	0.000000	-2.796644	-8.020629	-1.657616	-1.500467	0.000000	0.000000	-0.000000	-0.000000	9.384900	-1.220800	1.556520	0.003296	0.978818	0.006958	-1.000000	-1.000000	-1.000000	-1.000000	-1.000000	-1.000000	-1.000000	146.620690	0.000000	-1.000000	-1.000000	630909.000000	1772311922.145648
-23913.270000	-33772.230000	-32938.740000	-18881.550000	0.000000	0.000000	0.000000	0.000000	-2.290377	-12.341082	-1.776378	-1.433655	0.000000	0.000000	-0.000000	-0.000000	9.384900	-1.220800	1.556520	0.003296	0.978818	0.006958	-1.000000	-1.000000	-1.000000	-1.000000	-1.000000	-1.000000	-1.000000	146.620690	0.000000	-1.000000	-1.000000	630910.000000	1772311922.145651
-23898.870000	-33768.945000	-32926.770000	-18868.365000	0.000000	0.000000	0.000000	0.000000	1.313955	-11.864209	1.097469	1.425930	0.000000	0.000000	-0.000000	-0.000000	9.384900	-1.220800	1.556520	0.003296	0.978818	0.006958	-1.000000	-1.000000	-1.000000	-1.000000	-1.000000	-1.000000	-1.000000	146.620690	0.000000	-1.000000	-1.000000	630911.000000	1772311922.148562
-23933.385000	-33782.490000	-32962.725000	-18904.005000	0.000000	0.000000	0.000000	0.000000	5.546383	-4.915932	4.762425	5.089909	0.000000	0.000000	-0.000000	-0.000000	9.384900	-1.220800	1.556520	0.003296	0.978818	0.006958	-1.000000	-1.000000	-1.000000	-1.000000	-1.000000	-1.000000	-1.000000	146.620690	0.000000	-1.000000	-1.000000	630912.000000	1772311922.148565
-23967.495000	-33783.795000	-32994.540000	-18933.075000	0.000000	0.000000	0.000000	0.000000	4.323267	5.289134	3.275129	3.689152	0.000000	0.000000	-0.000000	-0.000000	4.288060	-0.412020	0.579880	0.005371	0.984739	0.000061	-1.000000	-1.000000	-1.000000	-1.000000	-1.000000	-1.000000	-1.000000	146.620690	0.000000	-1.000000	-1.000000	630913.000000	1772311922.154114
-23955.570000	-33796.395000	-32981.625000	-18921.870000	0.000000	0.000000	0.000000	0.000000	-4.329913	13.632045	-5.102792	-4.621406	0.000000	0.000000	-0.000000	-0.000000	4.288060	-0.412020	0.579880	0.005371	0.984739	0.000061	-1.000000	-1.000000	-1.000000	-1.000000	-1.000000	-1.000000	-1.000000	146.620690	0.000000	-1.000000	-1.000000	630914.000000	1772311922.154118
-23944.455000	-33812.640000	-32971.005000	-18912.600000	0.000000	0.000000	0.000000	0.000000	-13.280590	16.618428	-13.262429	-12.974527	0.000000	0.000000	-0.000000	-0.000000	4.288060	-0.412020	0.579880	0.005371	0.984739	0.000061	-1.000000	-1.000000	-1.000000	-1.000000	-1.000000	-1.000000	-1.000000	146.620690	0.000000	-1.000000	-1.000000	630915.000000	1772311922.156585
-23944.680000	-33785.595000	-32972.445000	-18913.365000	0.000000	0.000000	0.000000	0.000000	-13.881396	14.348708	-13.083610	-13.362566	0.000000	0.000000	-0.000000	-0.000000	4.288060	-0.412020	0.579880	0.005371	0.984739	0.000061	-1.000000	-1.000000	-1.000000	-1.000000	-1.000000	-1.000000	-1.000000	146.620690	0.000000	-1.000000	-1.000000	630916.000000	1772311922.156588
-23944.140000	-33777.990000	-32972.130000	-18912.195000	0.000000	0.000000	0.000000	0.000000	-5.501919	10.573654	-4.494302	-5.378667	0.000000	0.000000	-0.000000	-0.000000	4.288060	-0.412020	0.579880	0.005371	0.984739	0.000061	-1.000000	-1.000000	-1.000000	-1.000000	-1.000000	-1.000000	-1.000000	146.620690	0.000000	-1.000000	-1.000000	630917.000000	1772311922.160663
-23946.750000	-33783.750000	-32975.100000	-18914.040000	0.000000	0.000000	0.000000	0.000000	5.428884	8.177159	6.020854	4.987775	0.000000	0.000000	-0.000000	-0.000000	4.288060	-0.412020	0.579880	0.005371	0.984739	0.000061	-1.000000	-1.000000	-1.000000	-1.000000	-1.000000	-1.000000	-1.000000	146.620690	0.000000	-1.000000	-1.000000	630918.000000	1772311922.160666
-23944.545000	-33771.195000	-32974.065000	-18912.690000	0.000000	0.000000	0.000000	0.000000	12.330576	6.064268	12.251181	11.651194	0.000000	0.000000	-0.000000	-0.000000	4.288060	-0.412020	0.579880	0.005371	0.984739	0.000061	-1.000000	-1.000000	-1.000000	-1.000000	-1.000000	-1.000000	-1.000000	146.620690	0.000000	-1.000000	-1.000000	630919.000000	1772311922.164785
-23939.460000	-33769.620000	-32969.880000	-18911.250000	0.000000	0.000000	0.000000	0.000000	12.845996	2.547650	12.222027	12.259087	0.000000	0.000000	-0.000000	-0.000000	4.288060	-0.412020	0.579880	0.005371	0.984739	0.000061	-1.000000	-1.000000	-1.000000	-1.000000	-1.000000	-1.000000	-1.000000	146.620690	0.000000	-1.000000	-1.000000	630920.000000	1772311922.164789
-23940.225000	-33758.775000	-32972.130000	-18915.615000	0.000000	0.000000	0.000000	0.000000	8.627863	-1.934982	7.768279	8.076809	0.000000	0.000000	-0.000000	-0.000000	4.288060	-0.412020	0.579880	0.005371	0.984739	0.000061	-1.000000	-1.000000	-1.000000	-1.000000	-1.000000	-1.000000	-1.000000	146.620690	0.000000	-1.000000	-1.000000	630921.000000	1772311922.169612
-23948.820000	-33745.770000	-32982.165000	-18924.345000	0.000000	0.000000	0.000000	0.000000	2.488804	-5.677022	1.699315	1.750845	0.000000	0.000000	-0.000000	-0.000000	4.288060	-0.412020	0.579880	0.005371	0.984739	0.000061	-1.000000	-1.000000	-1.000000	-1.000000	-1.000000	-1.000000	-1.000000	146.620690	0.000000	-1.000000	-1.000000	630922.000000	1772311922.169616
-23950.755000	-33742.755000	-32983.830000	-18924.615000	0.000000	0.000000	0.000000	0.000000	-3.462017	-7.278869	-3.951784	-4.205729	0.000000	0.000000	-0.000000	-0.000000	-1.846460	0.152600	-0.808780	0.007751	0.990903	0.000427	-1.000000	-1.000000	-1.000000	-1.000000	-1.000000	-1.000000	-1.000000	146.620690	0.000000	-1.000000	-1.000000	630923.000000	1772311922.173035
-23931.720000	-33743.430000	-32962.770000	-18902.700000	0.000000	0.000000	0.000000	0.000000	-7.188819	-7.008121	-7.160346	-7.237215	0.000000	0.000000	-0.000000	-0.000000	-1.846460	0.152600	-0.808780	0.007751	0.990903	0.000427	-1.000000	-1.000000	-1.000000	-1.000000	-1.000000	-1.000000	-1.000000	146.620690	0.000000	-1.000000	-1.000000	630924.000000	1772311922.173038
-23932.035000	-33742.395000	-32963.040000	-18900.405000	0.000000	0.000000	0.000000	0.000000	-6.829713	-6.270713	-6.098425	-5.526811	0.000000	0.000000	-0.000000	-0.000000	-1.846460	0.152600	-0.808780	0.007751	0.990903	0.000427	-1.000000	-1.000000	-1.000000	-1.000000	-1.000000	-1.000000	-1.000000	146.620690	0.000000	-1.000000	-1.000000	630925.000000	1772311922.176771
-23931.630000	-33738.525000	-32964.615000	-18903.465000	0.000000	0.000000	0.000000	0.000000	-3.063456	-5.691998	-1.764877	-0.547230	0.000000	0.000000	-0.000000	-0.000000	-1.846460	0.152600	-0.808780	0.007751	0.990903	0.000427	-1.000000	-1.000000	-1.000000	-1.000000	-1.000000	-1.000000	-1.000000	146.620690	0.000000	-1.000000	-1.000000	630926.000000	1772311922.176774
-23935.905000	-33712.290000	-32972.265000	-18911.205000	0.000000	0.000000	0.000000	0.000000	0.808175	-4.268642	2.026098	3.329905	0.000000	0.000000	-0.000000	-0.000000	-1.846460	0.152600	-0.808780	0.007751	0.990903	0.000427	-1.000000	-1.000000	-1.000000	-1.000000	-1.000000	-1.000000	-1.000000	146.620690	0.000000	-1.000000	-1.000000	630927.000000	1772311922.180794
-23936.805000	-33699.015000	-32973.840000	-18911.340000	0.000000	0.000000	0.000000	0.000000	2.105541	-0.575007	2.446732	3.115295	0.000000	0.000000	-0.000000	-0.000000	-1.846460	0.152600	-0.808780	0.007751	0.990903	0.000427	-1.000000	-1.000000	-1.000000	-1.000000	-1.000000	-1.000000	-1.000000	146.620690	0.000000	-1.000000	-1.000000	630928.000000	1772311922.180797
-23931.045000	-33707.025000	-32964.795000	-18904.770000	0.000000	0.000000	0.000000	0.000000	0.912602	4.348635	0.188753	-0.118074	0.000000	0.000000	-0.000000	-0.000000	-1.846460	0.152600	-0.808780	0.007751	0.990903	0.000427	-1.000000	-1.000000	-1.000000	-1.000000	-1.000000	-1.000000	-1.000000	146.620690	0.000000	-1.000000	-1.000000	630929.000000	1772311922.184605
-23935.230000	-33693.930000	-32972.220000	-18912.825000	0.000000	0.000000	0.000000	0.000000	-0.843487	6.931980	-1.981629	-3.145831	0.000000	0.000000	-0.000000	-0.000000	-1.846460	0.152600	-0.808780	0.007751	0.990903	0.000427	-1.000000	-1.000000	-1.000000	-1.000000	-1.000000	-1.000000	-1.000000	146.620690	0.000000	-1.000000	-1.000000	630930.000000	1772311922.184608
-23937.615000	-33654.555000	-32977.485000	-18918.585000	0.000000	0.000000	0.000000	0.000000	-1.762013	5.999772	-2.592387	-4.218320	0.000000	0.000000	-0.000000	-0.000000	-1.846460	0.152600	-0.808780	0.007751	0.990903	0.000427	-1.000000	-1.000000	-1.000000	-1.000000	-1.000000	-1.000000	-1.000000	146.620690	0.000000	-1.000000	-1.000000	630931.000000	1772311922.188771
-23941.980000	-33625.170000	-32977.305000	-18913.635000	0.000000	0.000000	0.000000	0.000000	-1.831350	4.618482	-2.135976	-3.566119	0.000000	0.000000	-0.000000	-0.000000	-1.846460	0.152600	-0.808780	0.007751	0.990903	0.000427	-1.000000	-1.000000	-1.000000	-1.000000	-1.000000	-1.000000	-1.000000	146.620690	0.000000	-1.000000	-1.000000	630932.000000	1772311922.188774
-23945.670000	-33588.225000	-32981.715000	-18917.955000	0.000000	0.000000	0.000000	0.000000	-1.499780	5.341804	-1.231818	-1.688449	0.000000	0.000000	-0.000000	-0.000000	-5.341000	0.320460	-0.335720	0.006165	0.989011	0.006653	-1.000000	-1.000000	-1.000000	-1.000000	-1.000000	-1.000000	-1.000000	146.620690	0.000000	-1.000000	-1.000000	630933.000000	1772311922.194232
-23948.820000	-33568.875000	-32986.035000	-18922.680000	0.000000	0.000000	0.000000	0.000000	-0.980683	6.866312	-0.153420	0.684927	0.000000	0.000000	-0.000000	-0.000000	-5.341000	0.320460	-0.335720	0.006165	0.989011	0.006653	-1.000000	-1.000000	-1.000000	-1.000000	-1.000000	-1.000000	-1.000000	146.620690	0.000000	-1.000000	-1.000000	630934.000000	1772311922.194236
-23946.300000	-33558.885000	-32984.505000	-18920.745000	0.000000	0.000000	0.000000	0.000000	-0.158499	5.686631	0.845850	2.452870	0.000000	0.000000	-0.000000	-0.000000	-5.341000	0.320460	-0.335720	0.006165	0.989011	0.006653	-1.000000	-1.000000	-1.000000	-1.000000	-1.000000	-1.000000	-1.000000	146.620690	0.000000	-1.000000	-1.000000	630935.000000	1772311922.196957
-23944.320000	-33535.035000	-32985.135000	-18921.870000	0.000000	0.000000	0.000000	0.000000	1.194840	-0.088950	1.751224	3.164610	0.000000	0.000000	-0.000000	-0.000000	-5.341000	0.320460	-0.335720	0.006165	0.989011	0.006653	-1.000000	-1.000000	-1.000000	-1.000000	-1.000000	-1.000000	-1.000000	146.620690	0.000000	-1.000000	-1.000000	630936.000000	1772311922.196960
-23936.985000	-33524.730000	-32976.945000	-18914.220000	0.000000	0.000000	0.000000	0.000000	2.988406	-8.313523	2.709486	3.213428	0.000000	0.000000	-0.000000	-0.000000	-5.341000	0.320460	-0.335720	0.006165	0.989011	0.006653	-1.000000	-1.000000	-1.000000	-1.000000	-1.000000	-1.000000	-1.000000	146.620690	0.000000	-1.000000	-1.000000	630937.000000	1772311922.200704
-23925.780000	-33521.580000	-32965.290000	-18902.835000	0.000000	0.000000	0.000000	0.000000	4.763360	-14.957285	3.846558	3.295687	0.000000	0.000000	-0.000000	-0.000000	-5.341000	0.320460	-0.335720	0.006165	0.989011	0.006653	-1.000000	-1.000000	-1.000000	-1.000000	-1.000000	-1.000000	-1.000000	146.620690	0.000000	-1.000000	-1.000000	630938.000000	1772311922.200707
-23926.815000	-33536.925000	-32962.590000	-18901.575000	0.000000	0.000000	0.000000	0.000000	5.751713	-17.939476	4.916310	3.666825	0.000000	0.000000	-0.000000	-0.000000	-5.341000	0.320460	-0.335720	0.006165	0.989011	0.006653	-1.000000	-1.000000	-1.000000	-1.000000	-1.000000	-1.000000	-1.000000	146.620690	0.000000	-1.000000	-1.000000	630939.000000	1772311922.204740
-23951.790000	-33547.005000	-32992.110000	-18929.520000	0.000000	0.000000	0.000000	0.000000	4.400384	-17.627034	4.302267	2.951293	0.000000	0.000000	-0.000000	-0.000000	-5.341000	0.320460	-0.335720	0.006165	0.989011	0.006653	-1.000000	-1.000000	-1.000000	-1.000000	-1.000000	-1.000000	-1.000000	146.620690	0.000000	-1.000000	-1.000000	630940.000000	1772311922.204743
-23942.115000	-33552.000000	-32981.085000	-18920.160000	0.000000	0.000000	0.000000	0.000000	-0.289489	-14.589480	0.302104	-0.579145	0.000000	0.000000	-0.000000	-0.000000	-5.341000	0.320460	-0.335720	0.006165	0.989011	0.006653	-1.000000	-1.000000	-1.000000	-1.000000	-1.000000	-1.000000	-1.000000	146.620690	0.000000	-1.000000	-1.000000	630941.000000	1772311922.208782
-23927.085000	-33579.090000	-32968.620000	-18908.100000	0.000000	0.000000	0.000000	0.000000	-5.685107	-8.947547	-5.044023	-5.184560	0.000000	0.000000	-0.000000	-0.000000	-5.341000	0.320460	-0.335720	0.006165	0.989011	0.006653	-1.000000	-1.000000	-1.000000	-1.000000	-1.000000	-1.000000	-1.000000	146.620690	0.000000	-1.000000	-1.000000	630942.000000	1772311922.208785
-23938.740000	-33569.955000	-32980.050000	-18916.920000	0.000000	0.000000	0.000000	0.000000	-7.505827	-1.451454	-7.385034	-6.864513	0.000000	0.000000	-0.000000	-0.000000	-2.121140	0.106820	-0.595140	0.006714	0.981931	0.015808	-1.000000	-1.000000	-1.000000	-1.000000	-1.000000	-1.000000	-1.000000	146.620690	0.000000	-1.000000	-1.000000	630943.000000	1772311922.212781
-23955.030000	-33556.005000	-32998.590000	-18934.740000	0.000000	0.000000	0.000000	0.000000	-5.552844	7.271949	-6.071546	-5.062879	0.000000	0.000000	-0.000000	-0.000000	-2.121140	0.106820	-0.595140	0.006714	0.981931	0.015808	-1.000000	-1.000000	-1.000000	-1.000000	-1.000000	-1.000000	-1.000000	146.620690	0.000000	-1.000000	-1.000000	630944.000000	1772311922.212783
-23934.960000	-33565.230000	-32978.115000	-18912.465000	0.000000	0.000000	0.000000	0.000000	-2.722902	16.275882	-3.594231	-2.273647	0.000000	0.000000	-0.000000	-0.000000	-2.121140	0.106820	-0.595140	0.006714	0.981931	0.015808	-1.000000	-1.000000	-1.000000	-1.000000	-1.000000	-1.000000	-1.000000	146.620690	0.000000	-1.000000	-1.000000	630945.000000	1772311922.216784
-23926.590000	-33578.505000	-32970.555000	-18906.435000	0.000000	0.000000	0.000000	0.000000	0.206319	21.959553	-0.545209	0.753428	0.000000	0.000000	-0.000000	-0.000000	-2.121140	0.106820	-0.595140	0.006714	0.981931	0.015808	-1.000000	-1.000000	-1.000000	-1.000000	-1.000000	-1.000000	-1.000000	146.620690	0.000000	-1.000000	-1.000000	630946.000000	1772311922.216787
-23933.880000	-33588.585000	-32975.910000	-18910.845000	0.000000	0.000000	0.000000	0.000000	3.629449	20.329415	3.428394	4.209400	0.000000	0.000000	-0.000000	-0.000000	-2.121140	0.106820	-0.595140	0.006714	0.981931	0.015808	-1.000000	-1.000000	-1.000000	-1.000000	-1.000000	-1.000000	-1.000000	146.620690	0.000000	-1.000000	-1.000000	630947.000000	1772311922.220851
-23931.360000	-33591.690000	-32971.320000	-18907.290000	0.000000	0.000000	0.000000	0.000000	5.916617	11.759316	6.515040	6.401901	0.000000	0.000000	-0.000000	-0.000000	-2.121140	0.106820	-0.595140	0.006714	0.981931	0.015808	-1.000000	-1.000000	-1.000000	-1.000000	-1.000000	-1.000000	-1.000000	146.620690	0.000000	-1.000000	-1.000000	630948.000000	1772311922.220854
-23937.480000	-33576.390000	-32978.610000	-18914.985000	0.000000	0.000000	0.000000	0.000000	5.200027	1.399078	6.522796	5.518288	0.000000	0.000000	-0.000000	-0.000000	-2.121140	0.106820	-0.595140	0.006714	0.981931	0.015808	-1.000000	-1.000000	-1.000000	-1.000000	-1.000000	-1.000000	-1.000000	146.620690	0.000000	-1.000000	-1.000000	630949.000000	1772311922.224850
-23942.880000	-33564.645000	-32984.505000	-18921.240000	0.000000	0.000000	0.000000	0.000000	1.726372	-4.803804	3.233100	1.705212	0.000000	0.000000	-0.000000	-0.000000	-2.121140	0.106820	-0.595140	0.006714	0.981931	0.015808	-1.000000	-1.000000	-1.000000	-1.000000	-1.000000	-1.000000	-1.000000	146.620690	0.000000	-1.000000	-1.000000	630950.000000	1772311922.224853
-23941.395000	-33530.220000	-32982.210000	-18918.945000	0.000000	0.000000	0.000000	0.000000	-2.545608	-4.246893	-1.612165	-3.107253	0.000000	0.000000	-0.000000	-0.000000	-2.121140	0.106820	-0.595140	0.006714	0.981931	0.015808	-1.000000	-1.000000	-1.000000	-1.000000	-1.000000	-1.000000	-1.000000	146.620690	0.000000	-1.000000	-1.000000	630951.000000	1772311922.228921
-23936.670000	-33498.135000	-32977.350000	-18913.275000	0.000000	0.000000	0.000000	0.000000	-5.089931	1.512394	-5.139944	-6.073263	0.000000	0.000000	-0.000000	-0.000000	-2.121140	0.106820	-0.595140	0.006714	0.981931	0.015808	-1.000000	-1.000000	-1.000000	-1.000000	-1.000000	-1.000000	-1.000000	146.620690	0.000000	-1.000000	-1.000000	630952.000000	1772311922.228924
-23939.505000	-33469.335000	-32985.585000	-18919.620000	0.000000	0.000000	0.000000	0.000000	-4.485524	8.278811	-5.458701	-5.497239	0.000000	0.000000	-0.000000	-0.000000	4.913720	0.289940	-0.473060	0.006470	0.975217	0.020996	-1.000000	-1.000000	-1.000000	-1.000000	-1.000000	-1.000000	-1.000000	146.620690	0.000000	-1.000000	-1.000000	630953.000000	1772311922.232827
-23943.645000	-33440.580000	-32989.500000	-18922.905000	0.000000	0.000000	0.000000	0.000000	-1.697511	11.355417	-3.361564	-2.471060	0.000000	0.000000	-0.000000	-0.000000	4.913720	0.289940	-0.473060	0.006470	0.975217	0.020996	-1.000000	-1.000000	-1.000000	-1.000000	-1.000000	-1.000000	-1.000000	146.620690	0.000000	-1.000000	-1.000000	630954.000000	1772311922.232830
-23939.145000	-33419.880000	-32983.290000	-18920.565000	0.000000	0.000000	0.000000	0.000000	1.108239	8.189046	-0.783947	0.622693	0.000000	0.000000	-0.000000	-0.000000	4.913720	0.289940	-0.473060	0.006470	0.975217	0.020996	-1.000000	-1.000000	-1.000000	-1.000000	-1.000000	-1.000000	-1.000000	146.620690	0.000000	-1.000000	-1.000000	630955.000000	1772311922.236865
-23940.315000	-33420.015000	-32982.480000	-18919.980000	0.000000	0.000000	0.000000	0.000000	2.705879	-0.653555	1.442341	2.542353	0.000000	0.000000	-0.000000	-0.000000	4.913720	0.289940	-0.473060	0.006470	0.975217	0.020996	-1.000000	-1.000000	-1.000000	-1.000000	-1.000000	-1.000000	-1.000000	146.620690	0.000000	-1.000000	-1.000000	630956.000000	1772311922.236867
-23945.040000	-33416.055000	-32988.195000	-18922.770000	0.000000	0.000000	0.000000	0.000000	2.932994	-12.394040	3.051361	3.238447	0.000000	0.000000	-0.000000	-0.000000	4.913720	0.289940	-0.473060	0.006470	0.975217	0.020996	-1.000000	-1.000000	-1.000000	-1.000000	-1.000000	-1.000000	-1.000000	146.620690	0.000000	-1.000000	-1.000000	630957.000000	1772311922.240888
-23952.510000	-33389.865000	-32997.105000	-18929.340000	0.000000	0.000000	0.000000	0.000000	1.797535	-22.241801	3.224224	2.744311	0.000000	0.000000	-0.000000	-0.000000	4.913720	0.289940	-0.473060	0.006470	0.975217	0.020996	-1.000000	-1.000000	-1.000000	-1.000000	-1.000000	-1.000000	-1.000000	146.620690	0.000000	-1.000000	-1.000000	630958.000000	1772311922.240890
-23952.195000	-33381.045000	-32995.665000	-18927.810000	0.000000	0.000000	0.000000	0.000000	-0.273986	-24.845733	1.586634	1.220964	0.000000	0.000000	-0.000000	-0.000000	4.913720	0.289940	-0.473060	0.006470	0.975217	0.020996	-1.000000	-1.000000	-1.000000	-1.000000	-1.000000	-1.000000	-1.000000	146.620690	0.000000	-1.000000	-1.000000	630959.000000	1772311922.244888
-23940.810000	-33414.030000	-32984.955000	-18916.740000	0.000000	0.000000	0.000000	0.000000	-1.808918	-19.393522	-0.444069	-0.253118	0.000000	0.000000	-0.000000	-0.000000	4.913720	0.289940	-0.473060	0.006470	0.975217	0.020996	-1.000000	-1.000000	-1.000000	-1.000000	-1.000000	-1.000000	-1.000000	146.620690	0.000000	-1.000000	-1.000000	630960.000000	1772311922.244891
-23923.530000	-33444.090000	-32970.465000	-18901.305000	0.000000	0.000000	0.000000	0.000000	-0.961305	-11.463456	-0.567858	-0.034611	0.000000	0.000000	-0.000000	-0.000000	4.913720	0.289940	-0.473060	0.006470	0.975217	0.020996	-1.000000	-1.000000	-1.000000	-1.000000	-1.000000	-1.000000	-1.000000	146.620690	0.000000	-1.000000	-1.000000	630961.000000	1772311922.251425
-23923.260000	-33451.650000	-32969.745000	-18898.695000	0.000000	0.000000	0.000000	0.000000	2.357516	-6.297755	1.751390	2.166264	0.000000	0.000000	-0.000000	-0.000000	4.913720	0.289940	-0.473060	0.006470	0.975217	0.020996	-1.000000	-1.000000	-1.000000	-1.000000	-1.000000	-1.000000	-1.000000	146.620690	0.000000	-1.000000	-1.000000	630962.000000	1772311922.251428
-23938.380000	-33448.905000	-32985.315000	-18914.265000	0.000000	0.000000	0.000000	0.000000	5.158107	-2.772288	3.929904	3.964141	0.000000	0.000000	-0.000000	-0.000000	9.964780	-0.106820	-1.190280	0.006714	0.976133	0.017578	-1.000000	-1.000000	-1.000000	-1.000000	-1.000000	-1.000000	-1.000000	146.620690	0.000000	-1.000000	-1.000000	630963.000000	1772311922.255934
-23936.310000	-33436.305000	-32982.930000	-18913.995000	0.000000	0.000000	0.000000	0.000000	3.961771	3.474234	2.770232	2.359601	0.000000	0.000000	-0.000000	-0.000000	9.964780	-0.106820	-1.190280	0.006714	0.976133	0.017578	-1.000000	-1.000000	-1.000000	-1.000000	-1.000000	-1.000000	-1.000000	146.620690	0.000000	-1.000000	-1.000000	630964.000000	1772311922.255938
-23935.005000	-33440.175000	-32980.050000	-18911.025000	0.000000	0.000000	0.000000	0.000000	-0.915091	13.335570	-1.464598	-2.342309	0.000000	0.000000	-0.000000	-0.000000	9.964780	-0.106820	-1.190280	0.006714	0.976133	0.017578	-1.000000	-1.000000	-1.000000	-1.000000	-1.000000	-1.000000	-1.000000	146.620690	0.000000	-1.000000	-1.000000	630965.000000	1772311922.258226
-23934.690000	-33444.270000	-32981.400000	-18913.860000	0.000000	0.000000	0.000000	0.000000	-5.687502	22.297495	-5.358232	-6.597708	0.000000	0.000000	-0.000000	-0.000000	9.964780	-0.106820	-1.190280	0.006714	0.976133	0.017578	-1.000000	-1.000000	-1.000000	-1.000000	-1.000000	-1.000000	-1.000000	146.620690	0.000000	-1.000000	-1.000000	630966.000000	1772311922.258229
-23929.155000	-33442.695000	-32974.515000	-18906.930000	0.000000	0.000000	0.000000	0.000000	-7.161636	24.751338	-6.211189	-7.475964	0.000000	0.000000	-0.000000	-0.000000	9.964780	-0.106820	-1.190280	0.006714	0.976133	0.017578	-1.000000	-1.000000	-1.000000	-1.000000	-1.000000	-1.000000	-1.000000	146.620690	0.000000	-1.000000	-1.000000	630967.000000	1772311922.263875
-23930.505000	-33437.385000	-32976.720000	-18905.805000	0.000000	0.000000	0.000000	0.000000	-4.926404	19.291571	-3.896296	-4.672536	0.000000	0.000000	-0.000000	-0.000000	9.964780	-0.106820	-1.190280	0.006714	0.976133	0.017578	-1.000000	-1.000000	-1.000000	-1.000000	-1.000000	-1.000000	-1.000000	146.620690	0.000000	-1.000000	-1.000000	630968.000000	1772311922.263878
-23921.055000	-33422.175000	-32968.665000	-18897.345000	0.000000	0.000000	0.000000	0.000000	-0.730138	9.400581	-0.116597	0.108608	0.000000	0.000000	-0.000000	-0.000000	9.964780	-0.106820	-1.190280	0.006714	0.976133	0.017578	-1.000000	-1.000000	-1.000000	-1.000000	-1.000000	-1.000000	-1.000000	146.620690	0.000000	-1.000000	-1.000000	630969.000000	1772311922.266245
-23908.140000	-33417.360000	-32957.505000	-18886.320000	0.000000	0.000000	0.000000	0.000000	3.422932	0.020099	3.317326	4.643698	0.000000	0.000000	-0.000000	-0.000000	9.964780	-0.106820	-1.190280	0.006714	0.976133	0.017578	-1.000000	-1.000000	-1.000000	-1.000000	-1.000000	-1.000000	-1.000000	146.620690	0.000000	-1.000000	-1.000000	630970.000000	1772311922.266248
-23924.295000	-33438.465000	-32973.435000	-18902.295000	0.000000	0.000000	0.000000	0.000000	5.927797	-6.547180	5.108853	6.968000	0.000000	0.000000	-0.000000	-0.000000	9.964780	-0.106820	-1.190280	0.006714	0.976133	0.017578	-1.000000	-1.000000	-1.000000	-1.000000	-1.000000	-1.000000	-1.000000	146.620690	0.000000	-1.000000	-1.000000	630971.000000	1772311922.270192
-23954.490000	-33430.455000	-33002.820000	-18932.265000	0.000000	0.000000	0.000000	0.000000	4.617887	-11.027862	3.501164	4.998693	0.000000	0.000000	-0.000000	-0.000000	9.964780	-0.106820	-1.190280	0.006714	0.976133	0.017578	-1.000000	-1.000000	-1.000000	-1.000000	-1.000000	-1.000000	-1.000000	146.620690	0.000000	-1.000000	-1.000000	630972.000000	1772311922.270195
-23947.965000	-33388.425000	-32996.655000	-18927.180000	0.000000	0.000000	0.000000	0.000000	-1.173734	-12.762624	-1.951907	-1.474592	0.000000	0.000000	-0.000000	-0.000000	8.743980	-0.457800	-0.854560	0.006104	0.980466	0.007996	-1.000000	-1.000000	-1.000000	-1.000000	-1.000000	-1.000000	-1.000000	146.620690	0.000000	-1.000000	-1.000000	630973.000000	1772311922.273015
-23940.405000	-33379.875000	-32987.700000	-18918.765000	0.000000	0.000000	0.000000	0.000000	-7.307768	-9.068646	-7.312133	-7.976763	-0.000000	0.000000	-0.000000	-0.000000	8.743980	-0.457800	-0.854560	0.006104	0.980466	0.007996	-1.000000	-1.000000	-1.000000	-1.000000	-1.000000	-1.000000	-1.000000	146.620690	0.000000	-1.000000	-1.000000	630974.000000	1772311922.273017
-23948.415000	-33376.770000	-32996.790000	-18925.155000	0.000000	0.000000	0.000000	0.000000	-8.333229	-1.126795	-7.584987	-8.934628	-0.000000	0.000000	-0.000000	-0.000000	8.743980	-0.457800	-0.854560	0.006104	0.980466	0.007996	-1.000000	-1.000000	-1.000000	-1.000000	-1.000000	-1.000000	-1.000000	146.620690	0.000000	-1.000000	-1.000000	630975.000000	1772311922.277009
-23945.580000	-33392.790000	-32994.720000	-18922.320000	0.000000	0.000000	0.000000	0.000000	-3.668548	4.827104	-2.613974	-3.809962	-0.000000	0.000000	-0.000000	-0.000000	8.743980	-0.457800	-0.854560	0.006104	0.980466	0.007996	-1.000000	-1.000000	-1.000000	-1.000000	-1.000000	-1.000000	-1.000000	146.620690	0.000000	-1.000000	-1.000000	630976.000000	1772311922.277012
-23938.200000	-33397.830000	-32988.555000	-18915.930000	0.000000	0.000000	0.000000	0.000000	3.103595	3.870777	3.847239	3.494669	-0.000000	0.000000	-0.000000	-0.000000	8.743980	-0.457800	-0.854560	0.006104	0.980466	0.007996	-1.000000	-1.000000	-1.000000	-1.000000	-1.000000	-1.000000	-1.000000	146.620690	0.000000	-1.000000	-1.000000	630977.000000	1772311922.281008
-23936.670000	-33401.070000	-32987.160000	-18914.490000	0.000000	0.000000	0.000000	0.000000	8.418262	-2.758191	8.452048	8.995595	-0.000000	0.000000	-0.000000	-0.000000	8.743980	-0.457800	-0.854560	0.006104	0.980466	0.007996	-1.000000	-1.000000	-1.000000	-1.000000	-1.000000	-1.000000	-1.000000	146.620690	0.000000	-1.000000	-1.000000	630978.000000	1772311922.281010
-23940.090000	-33401.700000	-32989.770000	-18916.605000	0.000000	0.000000	0.000000	0.000000	10.112212	-9.309616	9.518878	10.449099	-0.000000	0.000000	-0.000000	-0.000000	8.743980	-0.457800	-0.854560	0.006104	0.980466	0.007996	-1.000000	-1.000000	-1.000000	-1.000000	-1.000000	-1.000000	-1.000000	146.620690	0.000000	-1.000000	-1.000000	630979.000000	1772311922.286103
-23938.515000	-33406.155000	-32987.790000	-18916.740000	0.000000	0.000000	0.000000	0.000000	7.609195	-10.883581	6.873675	7.549856	-0.000000	0.000000	-0.000000	-0.000000	8.743980	-0.457800	-0.854560	0.006104	0.980466	0.007996	-1.000000	-1.000000	-1.000000	-1.000000	-1.000000	-1.000000	-1.000000	146.620690	0.000000	-1.000000	-1.000000	630980.000000	1772311922.286106
-23938.740000	-33404.895000	-32986.530000	-18919.125000	0.000000	0.000000	0.000000	0.000000	2.368918	-6.738679	2.021724	1.945909	-0.000000	0.000000	-0.000000	-0.000000	8.743980	-0.457800	-0.854560	0.006104	0.980466	0.007996	-1.000000	-1.000000	-1.000000	-1.000000	-1.000000	-1.000000	-1.000000	146.620690	0.000000	-1.000000	-1.000000	630981.000000	1772311922.290477
-23935.185000	-33386.535000	-32981.445000	-18916.425000	0.000000	0.000000	0.000000	0.000000	-2.888568	0.843321	-2.586030	-3.635572	-0.000000	0.000000	-0.000000	-0.000000	8.743980	-0.457800	-0.854560	0.006104	0.980466	0.007996	-1.000000	-1.000000	-1.000000	-1.000000	-1.000000	-1.000000	-1.000000	146.620690	0.000000	-1.000000	-1.000000	630982.000000	1772311922.290479
-23934.555000	-33345.540000	-32984.280000	-18916.245000	0.000000	0.000000	0.000000	0.000000	-5.928100	9.531152	-5.155413	-6.846503	-0.000000	0.000000	-0.000000	-0.000000	2.548420	-0.061040	-0.824040	0.005920	0.986081	0.001648	-1.000000	-1.000000	-1.000000	-1.000000	-1.000000	-1.000000	-1.000000	146.620690	0.000000	-1.000000	-1.000000	630983.000000	1772311922.292999
-23938.245000	-33326.010000	-32988.600000	-18916.290000	0.000000	0.000000	0.000000	0.000000	-6.212377	17.445903	-5.590802	-6.874407	-0.000000	0.000000	-0.000000	-0.000000	2.548420	-0.061040	-0.824040	0.005920	0.986081	0.001648	-1.000000	-1.000000	-1.000000	-1.000000	-1.000000	-1.000000	-1.000000	146.620690	0.000000	-1.000000	-1.000000	630984.000000	1772311922.293003
-23942.520000	-33337.440000	-32994.315000	-18920.115000	0.000000	0.000000	0.000000	0.000000	-4.812811	20.870133	-4.971734	-4.650087	-0.000000	0.000000	-0.000000	-0.000000	2.548420	-0.061040	-0.824040	0.005920	0.986081	0.001648	-1.000000	-1.000000	-1.000000	-1.000000	-1.000000	-1.000000	-1.000000	146.620690	0.000000	-1.000000	-1.000000	630985.000000	1772311922.298228
-23937.705000	-33339.690000	-32990.985000	-18917.595000	0.000000	0.000000	0.000000	0.000000	-2.980972	15.326942	-4.022034	-1.825159	-0.000000	0.000000	-0.000000	-0.000000	2.548420	-0.061040	-0.824040	0.005920	0.986081	0.001648	-1.000000	-1.000000	-1.000000	-1.000000	-1.000000	-1.000000	-1.000000	146.620690	0.000000	-1.000000	-1.000000	630986.000000	1772311922.298231
-23931.315000	-33348.600000	-32982.255000	-18909.720000	0.000000	0.000000	0.000000	0.000000	-0.928156	1.128454	-2.332774	0.648964	-0.000000	0.000000	-0.000000	-0.000000	2.548420	-0.061040	-0.824040	0.005920	0.986081	0.001648	-1.000000	-1.000000	-1.000000	-1.000000	-1.000000	-1.000000	-1.000000	146.620690	0.000000	-1.000000	-1.000000	630987.000000	1772311922.300918
-23932.620000	-33354.495000	-32985.405000	-18915.390000	0.000000	0.000000	0.000000	0.000000	1.463327	-15.120328	0.505032	2.554213	-0.000000	0.000000	-0.000000	-0.000000	2.548420	-0.061040	-0.824040	0.005920	0.986081	0.001648	-1.000000	-1.000000	-1.000000	-1.000000	-1.000000	-1.000000	-1.000000	146.620690	0.000000	-1.000000	-1.000000	630988.000000	1772311922.300920
-23930.415000	-33354.090000	-32982.210000	-18912.870000	0.000000	0.000000	0.000000	0.000000	3.440275	-25.322780	3.468599	3.410060	-0.000000	0.000000	-0.000000	-0.000000	2.548420	-0.061040	-0.824040	0.005920	0.986081	0.001648	-1.000000	-1.000000	-1.000000	-1.000000	-1.000000	-1.000000	-1.000000	146.620690	0.000000	-1.000000	-1.000000	630989.000000	1772311922.305120
-23929.650000	-33360.705000	-32981.535000	-18910.890000	0.000000	0.000000	0.000000	0.000000	3.968072	-25.057683	4.932224	2.861700	-0.000000	0.000000	-0.000000	-0.000000	2.548420	-0.061040	-0.824040	0.005920	0.986081	0.001648	-1.000000	-1.000000	-1.000000	-1.000000	-1.000000	-1.000000	-1.000000	146.620690	0.000000	-1.000000	-1.000000	630990.000000	1772311922.305123
-23941.890000	-33341.400000	-32993.010000	-18921.150000	0.000000	0.000000	0.000000	0.000000	2.651788	-15.245840	4.087513	1.261633	-0.000000	0.000000	-0.000000	-0.000000	2.548420	-0.061040	-0.824040	0.005920	0.986081	0.001648	-1.000000	-1.000000	-1.000000	-1.000000	-1.000000	-1.000000	-1.000000	146.620690	0.000000	-1.000000	-1.000000	630991.000000	1772311922.309130
-23943.015000	-33342.570000	-32994.540000	-18922.905000	0.000000	0.000000	0.000000	0.000000	-0.204277	-0.522547	1.140391	-0.915255	-0.000000	0.000000	-0.000000	-0.000000	2.548420	-0.061040	-0.824040	0.005920	0.986081	0.001648	-1.000000	-1.000000	-1.000000	-1.000000	-1.000000	-1.000000	-1.000000	146.620690	0.000000	-1.000000	-1.000000	630992.000000	1772311922.309133
-23941.530000	-33352.470000	-32994.900000	-18925.875000	0.000000	0.000000	0.000000	0.000000	-3.196287	12.623082	-2.423249	-2.946633	-0.000000	0.000000	-0.000000	-0.000000	-2.197440	-0.228900	-0.488320	0.005676	0.988950	0.002258	-1.000000	-1.000000	-1.000000	-1.000000	-1.000000	-1.000000	-1.000000	146.620690	0.000000	-1.000000	-1.000000	630993.000000	1772311922.314007
-23930.280000	-33361.065000	-32985.135000	-18916.560000	0.000000	0.000000	0.000000	0.000000	-4.115579	18.295686	-4.224931	-3.543833	-0.000000	0.000000	-0.000000	-0.000000	-2.197440	-0.228900	-0.488320	0.005676	0.988950	0.002258	-1.000000	-1.000000	-1.000000	-1.000000	-1.000000	-1.000000	-1.000000	146.620690	0.000000	-1.000000	-1.000000	630994.000000	1772311922.314010
-23911.740000	-33402.195000	-32967.630000	-18894.105000	0.000000	0.000000	0.000000	0.000000	-1.594961	14.384110	-2.593799	-1.453479	-0.000000	0.000000	-0.000000	-0.000000	-2.197440	-0.228900	-0.488320	0.005676	0.988950	0.002258	-1.000000	-1.000000	-1.000000	-1.000000	-1.000000	-1.000000	-1.000000	146.620690	0.000000	-1.000000	-1.000000	630995.000000	1772311922.317113
-23915.475000	-33457.950000	-32972.490000	-18896.265000	0.000000	0.000000	0.000000	0.000000	3.271562	2.707400	1.766396	3.062391	-0.000000	0.000000	-0.000000	-0.000000	-2.197440	-0.228900	-0.488320	0.005676	0.988950	0.002258	-1.000000	-1.000000	-1.000000	-1.000000	-1.000000	-1.000000	-1.000000	146.620690	0.000000	-1.000000	-1.000000	630996.000000	1772311922.317116
-23921.190000	-33470.370000	-32977.530000	-18901.170000	0.000000	0.000000	0.000000	0.000000	6.783979	-11.506916	5.411071	6.927410	-0.000000	0.000000	-0.000000	-0.000000	-2.197440	-0.228900	-0.488320	0.005676	0.988950	0.002258	-1.000000	-1.000000	-1.000000	-1.000000	-1.000000	-1.000000	-1.000000	146.620690	0.000000	-1.000000	-1.000000	630997.000000	1772311922.321053
-23924.790000	-33465.870000	-32980.005000	-18902.745000	0.000000	0.000000	0.000000	0.000000	5.621041	-19.531987	5.012107	6.519102	-0.000000	0.000000	-0.000000	-0.000000	-2.197440	-0.228900	-0.488320	0.005676	0.988950	0.002258	-1.000000	-1.000000	-1.000000	-1.000000	-1.000000	-1.000000	-1.000000	146.620690	0.000000	-1.000000	-1.000000	630998.000000	1772311922.321056
-23926.005000	-33458.670000	-32980.500000	-18903.915000	0.000000	0.000000	0.000000	0.000000	0.274379	-14.307248	0.773749	1.641603	-0.000000	0.000000	-0.000000	-0.000000	-2.197440	-0.228900	-0.488320	0.005676	0.988950	0.002258	-1.000000	-1.000000	-1.000000	-1.000000	-1.000000	-1.000000	-1.000000	146.620690	0.000000	-1.000000	-1.000000	630999.000000	1772311922.325159
-23925.915000	-33476.490000	-32983.155000	-18906.525000	0.000000	0.000000	0.000000	0.000000	-5.556908	2.066678	-4.163355	-4.478966	-0.000000	0.000000	-0.000000	-0.000000	-2.197440	-0.228900	-0.488320	0.005676	0.988950	0.002258	-1.000000	-1.000000	-1.000000	-1.000000	-1.000000	-1.000000	-1.000000	146.620690	0.000000	-1.000000	-1.000000	631000.000000	1772311922.325163
-23929.380000	-33498.405000	-32987.745000	-18910.395000	0.000000	0.000000	0.000000	0.000000	-8.378370	18.718288	-6.876463	-8.385166	-0.000000	0.000000	-0.000000	-0.000000	-2.197440	-0.228900	-0.488320	0.005676	0.988950	0.002258	-1.000000	-1.000000	-1.000000	-1.000000	-1.000000	-1.000000	-1.000000	146.620690	0.000000	-1.000000	-1.000000	631001.000000	1772311922.330802
-23932.260000	-33498.675000	-32991.255000	-18914.310000	0.000000	0.000000	0.000000	0.000000	-7.253379	25.349971	-6.496284	-8.617029	-0.000000	0.000000	-0.000000	-0.000000	-2.197440	-0.228900	-0.488320	0.005676	0.988950	0.002258	-1.000000	-1.000000	-1.000000	-1.000000	-1.000000	-1.000000	-1.000000	146.620690	0.000000	-1.000000	-1.000000	631002.000000	1772311922.330805
-23910.570000	-33521.580000	-32970.555000	-18894.780000	0.000000	0.000000	0.000000	0.000000	-3.142801	20.023085	-3.435097	-5.385263	-0.000000	0.000000	-0.000000	-0.000000	-2.823100	0.320460	-0.412020	0.005371	0.986814	0.008118	-1.000000	-1.000000	-1.000000	-1.000000	-1.000000	-1.000000	-1.000000	146.620690	0.000000	-1.000000	-1.000000	631003.000000	1772311922.333108
-23899.590000	-33515.640000	-32959.620000	-18885.420000	0.000000	0.000000	0.000000	0.000000	2.771859	7.982952	1.779625	0.508388	-0.000000	0.000000	-0.000000	-0.000000	-2.823100	0.320460	-0.412020	0.005371	0.986814	0.008118	-1.000000	-1.000000	-1.000000	-1.000000	-1.000000	-1.000000	-1.000000	146.620690	0.000000	-1.000000	-1.000000	631004.000000	1772311922.333111
-23892.345000	-33498.900000	-32952.150000	-18879.615000	0.000000	0.000000	0.000000	0.000000	8.578224	-3.128062	7.552843	7.042512	-0.000000	0.000000	-0.000000	-0.000000	-2.823100	0.320460	-0.412020	0.005371	0.986814	0.008118	-1.000000	-1.000000	-1.000000	-1.000000	-1.000000	-1.000000	-1.000000	146.620690	0.000000	-1.000000	-1.000000	631005.000000	1772311922.337242
-23910.795000	-33493.410000	-32966.685000	-18895.140000	0.000000	0.000000	0.000000	0.000000	10.870722	-7.658061	10.454707	10.534083	-0.000000	0.000000	-0.000000	-0.000000	-2.823100	0.320460	-0.412020	0.005371	0.986814	0.008118	-1.000000	-1.000000	-1.000000	-1.000000	-1.000000	-1.000000	-1.000000	146.620690	0.000000	-1.000000	-1.000000	631006.000000	1772311922.337245
-23934.690000	-33501.645000	-32988.105000	-18916.110000	0.000000	0.000000	0.000000	0.000000	6.662688	-5.862252	7.272158	7.783844	-0.000000	0.000000	-0.000000	-0.000000	-2.823100	0.320460	-0.412020	0.005371	0.986814	0.008118	-1.000000	-1.000000	-1.000000	-1.000000	-1.000000	-1.000000	-1.000000	146.620690	0.000000	-1.000000	-1.000000	631007.000000	1772311922.342577
-23927.355000	-33514.605000	-32984.460000	-18909.270000	0.000000	0.000000	0.000000	0.000000	-2.900028	-2.931664	-1.397862	-0.419354	-0.000000	0.000000	-0.000000	-0.000000	-2.823100	0.320460	-0.412020	0.005371	0.986814	0.008118	-1.000000	-1.000000	-1.000000	-1.000000	-1.000000	-1.000000	-1.000000	146.620690	0.000000	-1.000000	-1.000000	631008.000000	1772311922.342580
-23929.830000	-33530.310000	-32989.590000	-18913.005000	0.000000	0.000000	0.000000	0.000000	-11.609556	-3.402346	-10.157420	-8.559833	-0.000000	0.000000	-0.000000	-0.000000	-2.823100	0.320460	-0.412020	0.005371	0.986814	0.008118	-1.000000	-1.000000	-1.000000	-1.000000	-1.000000	-1.000000	-1.000000	146.620690	0.000000	-1.000000	-1.000000	631009.000000	1772311922.345183
-23926.455000	-33528.555000	-32988.870000	-18914.445000	0.000000	0.000000	0.000000	0.000000	-13.423119	-7.129655	-13.247655	-11.175346	-0.000000	0.000000	-0.000000	-0.000000	-2.823100	0.320460	-0.412020	0.005371	0.986814	0.008118	-1.000000	-1.000000	-1.000000	-1.000000	-1.000000	-1.000000	-1.000000	146.620690	0.000000	-1.000000	-1.000000	631010.000000	1772311922.345185
-23923.755000	-33517.080000	-32985.900000	-18911.565000	0.000000	0.000000	0.000000	0.000000	-7.686391	-9.865085	-9.246933	-7.418550	-0.000000	0.000000	-0.000000	-0.000000	-2.823100	0.320460	-0.412020	0.005371	0.986814	0.008118	-1.000000	-1.000000	-1.000000	-1.000000	-1.000000	-1.000000	-1.000000	146.620690	0.000000	-1.000000	-1.000000	631011.000000	1772311922.351037
-23925.690000	-33502.500000	-32989.950000	-18914.715000	0.000000	0.000000	0.000000	0.000000	1.482509	-7.446304	-1.087911	-0.338445	-0.000000	0.000000	-0.000000	-0.000000	-2.823100	0.320460	-0.412020	0.005371	0.986814	0.008118	-1.000000	-1.000000	-1.000000	-1.000000	-1.000000	-1.000000	-1.000000	146.620690	0.000000	-1.000000	-1.000000	631012.000000	1772311922.351040
-23921.145000	-33498.045000	-32984.640000	-18911.295000	0.000000	0.000000	0.000000	0.000000	8.900158	0.003459	6.652029	6.045141	-0.000000	0.000000	-0.000000	-0.000000	0.549360	0.259420	-1.022420	0.006104	0.981687	0.013611	-1.000000	-1.000000	-1.000000	-1.000000	-1.000000	-1.000000	-1.000000	146.620690	0.000000	-1.000000	-1.000000	631013.000000	1772311922.358137
-23912.370000	-33474.555000	-32973.795000	-18902.115000	0.000000	0.000000	0.000000	0.000000	11.688274	8.286944	10.882007	9.239966	-0.000000	0.000000	-0.000000	-0.000000	0.549360	0.259420	-1.022420	0.006104	0.981687	0.013611	-1.000000	-1.000000	-1.000000	-1.000000	-1.000000	-1.000000	-1.000000	146.620690	0.000000	-1.000000	-1.000000	631014.000000	1772311922.358140
-23892.660000	-33488.010000	-32953.455000	-18883.080000	0.000000	0.000000	0.000000	0.000000	10.417182	12.692233	11.488495	9.388765	-0.000000	0.000000	-0.000000	-0.000000	0.549360	0.259420	-1.022420	0.006104	0.981687	0.013611	-1.000000	-1.000000	-1.000000	-1.000000	-1.000000	-1.000000	-1.000000	146.620690	0.000000	-1.000000	-1.000000	631015.000000	1772311922.358143
-23904.180000	-33529.545000	-32964.795000	-18892.980000	0.000000	0.000000	0.000000	0.000000	7.001804	9.689123	9.519900	7.631995	-0.000000	0.000000	-0.000000	-0.000000	0.549360	0.259420	-1.022420	0.006104	0.981687	0.013611	-1.000000	-1.000000	-1.000000	-1.000000	-1.000000	-1.000000	-1.000000	146.620690	0.000000	-1.000000	-1.000000	631016.000000	1772311922.358146
-23941.755000	-33520.545000	-33001.830000	-18925.965000	0.000000	0.000000	0.000000	0.000000	1.441042	-0.906474	4.306095	3.371380	-0.000000	0.000000	-0.000000	-0.000000	0.549360	0.259420	-1.022420	0.006104	0.981687	0.013611	-1.000000	-1.000000	-1.000000	-1.000000	-1.000000	-1.000000	-1.000000	146.620690	0.000000	-1.000000	-1.000000	631017.000000	1772311922.361300
-23928.345000	-33482.520000	-32991.210000	-18914.445000	0.000000	0.000000	0.000000	0.000000	-6.677607	-12.050421	-4.680249	-4.088317	-0.000000	0.000000	-0.000000	-0.000000	0.549360	0.259420	-1.022420	0.006104	0.981687	0.013611	-1.000000	-1.000000	-1.000000	-1.000000	-1.000000	-1.000000	-1.000000	146.620690	0.000000	-1.000000	-1.000000	631018.000000	1772311922.361304
-23922.180000	-33471.495000	-32986.800000	-18909.315000	0.000000	0.000000	0.000000	0.000000	-13.510766	-13.998435	-13.205907	-11.190134	-0.000000	0.000000	-0.000000	-0.000000	0.549360	0.259420	-1.022420	0.006104	0.981687	0.013611	-1.000000	-1.000000	-1.000000	-1.000000	-1.000000	-1.000000	-1.000000	146.620690	0.000000	-1.000000	-1.000000	631019.000000	1772311922.366059
-23932.755000	-33473.070000	-32996.790000	-18919.125000	0.000000	0.000000	0.000000	0.000000	-13.821471	-5.408499	-15.283878	-12.777840	-0.000000	0.000000	-0.000000	-0.000000	0.549360	0.259420	-1.022420	0.006104	0.981687	0.013611	-1.000000	-1.000000	-1.000000	-1.000000	-1.000000	-1.000000	-1.000000	146.620690	0.000000	-1.000000	-1.000000	631020.000000	1772311922.366062
-23929.920000	-33486.930000	-32992.020000	-18917.370000	0.000000	0.000000	0.000000	0.000000	-7.618478	5.238235	-10.017673	-8.292861	-0.000000	0.000000	-0.000000	-0.000000	0.549360	0.259420	-1.022420	0.006104	0.981687	0.013611	-1.000000	-1.000000	-1.000000	-1.000000	-1.000000	-1.000000	-1.000000	146.620690	0.000000	-1.000000	-1.000000	631021.000000	1772311922.369145
-23925.195000	-33507.675000	-32987.070000	-18911.160000	0.000000	0.000000	0.000000	0.000000	0.890752	8.875370	-1.131895	-1.081361	-0.000000	0.000000	-0.000000	-0.000000	0.549360	0.259420	-1.022420	0.006104	0.981687	0.013611	-1.000000	-1.000000	-1.000000	-1.000000	-1.000000	-1.000000	-1.000000	146.620690	0.000000	-1.000000	-1.000000	631022.000000	1772311922.369148
-23931.225000	-33508.350000	-32994.090000	-18916.605000	0.000000	0.000000	0.000000	0.000000	7.697494	3.634549	6.963628	5.404456	-0.000000	0.000000	-0.000000	-0.000000	5.493600	0.137340	-0.244160	0.005371	0.977353	0.016296	-1.000000	-1.000000	-1.000000	-1.000000	-1.000000	-1.000000	-1.000000	146.620690	0.000000	-1.000000	-1.000000	631023.000000	1772311922.373304
-23929.290000	-33499.350000	-32992.290000	-18915.255000	0.000000	0.000000	0.000000	0.000000	10.410706	-4.654942	10.940630	8.751040	-0.000000	0.000000	-0.000000	-0.000000	5.493600	0.137340	-0.244160	0.005371	0.977353	0.016296	-1.000000	-1.000000	-1.000000	-1.000000	-1.000000	-1.000000	-1.000000	146.620690	0.000000	-1.000000	-1.000000	631024.000000	1772311922.373307
-23926.815000	-33481.845000	-32993.370000	-18918.315000	0.000000	0.000000	0.000000	0.000000	8.844943	-8.178633	9.890800	8.140649	-0.000000	0.000000	-0.000000	-0.000000	5.493600	0.137340	-0.244160	0.005371	0.977353	0.016296	-1.000000	-1.000000	-1.000000	-1.000000	-1.000000	-1.000000	-1.000000	146.620690	0.000000	-1.000000	-1.000000	631025.000000	1772311922.377380
-23921.190000	-33496.695000	-32987.340000	-18909.720000	0.000000	0.000000	0.000000	0.000000	4.951720	-4.289046	5.649419	4.832200	-0.000000	0.000000	-0.000000	-0.000000	5.493600	0.137340	-0.244160	0.005371	0.977353	0.016296	-1.000000	-1.000000	-1.000000	-1.000000	-1.000000	-1.000000	-1.000000	146.620690	0.000000	-1.000000	-1.000000	631026.000000	1772311922.377382
-23924.115000	-33512.805000	-32989.545000	-18908.190000	0.000000	0.000000	0.000000	0.000000	1.010573	2.393570	1.000287	1.199222	-0.000000	0.000000	-0.000000	-0.000000	5.493600	0.137340	-0.244160	0.005371	0.977353	0.016296	-1.000000	-1.000000	-1.000000	-1.000000	-1.000000	-1.000000	-1.000000	146.620690	0.000000	-1.000000	-1.000000	631027.000000	1772311922.381214
-23922.045000	-33506.280000	-32988.645000	-18909.495000	0.000000	0.000000	0.000000	0.000000	-1.905183	5.742280	-2.308005	-1.179845	-0.000000	0.000000	-0.000000	-0.000000	5.493600	0.137340	-0.244160	0.005371	0.977353	0.016296	-1.000000	-1.000000	-1.000000	-1.000000	-1.000000	-1.000000	-1.000000	146.620690	0.000000	-1.000000	-1.000000	631028.000000	1772311922.381217
-23923.440000	-33510.645000	-32989.095000	-18910.755000	0.000000	0.000000	0.000000	0.000000	-3.680401	4.629990	-3.937825	-2.385376	-0.000000	0.000000	-0.000000	-0.000000	5.493600	0.137340	-0.244160	0.005371	0.977353	0.016296	-1.000000	-1.000000	-1.000000	-1.000000	-1.000000	-1.000000	-1.000000	146.620690	0.000000	-1.000000	-1.000000	631029.000000	1772311922.385104
-23924.565000	-33510.375000	-32988.555000	-18908.550000	0.000000	0.000000	0.000000	0.000000	-4.408459	1.893315	-4.182814	-3.035170	-0.000000	0.000000	-0.000000	-0.000000	5.493600	0.137340	-0.244160	0.005371	0.977353	0.016296	-1.000000	-1.000000	-1.000000	-1.000000	-1.000000	-1.000000	-1.000000	146.620690	0.000000	-1.000000	-1.000000	631030.000000	1772311922.385106
-23923.620000	-33512.985000	-32988.330000	-18908.505000	0.000000	0.000000	0.000000	0.000000	-4.190975	-0.037615	-3.448681	-3.196956	-0.000000	0.000000	-0.000000	-0.000000	5.493600	0.137340	-0.244160	0.005371	0.977353	0.016296	-1.000000	-1.000000	-1.000000	-1.000000	-1.000000	-1.000000	-1.000000	146.620690	0.000000	-1.000000	-1.000000	631031.000000	1772311922.390771
-23922.540000	-33515.910000	-32986.440000	-18907.740000	0.000000	0.000000	0.000000	0.000000	-3.106570	-0.579755	-2.139987	-2.687960	-0.000000	0.000000	-0.000000	-0.000000	5.493600	0.137340	-0.244160	0.005371	0.977353	0.016296	-1.000000	-1.000000	-1.000000	-1.000000	-1.000000	-1.000000	-1.000000	146.620690	0.000000	-1.000000	-1.000000	631032.000000	1772311922.390773
-23925.105000	-33531.030000	-32988.105000	-18907.605000	0.000000	0.000000	0.000000	0.000000	-1.424304	-0.552893	-0.677558	-1.624285	-0.000000	0.000000	-0.000000	-0.000000	7.446880	-0.122080	-0.381500	0.005493	0.978208	0.013000	-1.000000	-1.000000	-1.000000	-1.000000	-1.000000	-1.000000	-1.000000	146.620690	0.000000	-1.000000	-1.000000	631033.000000	1772311922.397886
-23914.980000	-33546.870000	-32980.995000	-18900.720000	0.000000	0.000000	0.000000	0.000000	0.401990	-1.289721	0.584897	-0.282517	-0.000000	0.000000	-0.000000	-0.000000	7.446880	-0.122080	-0.381500	0.005493	0.978208	0.013000	-1.000000	-1.000000	-1.000000	-1.000000	-1.000000	-1.000000	-1.000000	146.620690	0.000000	-1.000000	-1.000000	631034.000000	1772311922.397888
-23909.175000	-33549.930000	-32975.640000	-18896.715000	0.000000	0.000000	0.000000	0.000000	2.211977	-3.022435	1.639588	1.187079	-0.000000	0.000000	-0.000000	-0.000000	7.446880	-0.122080	-0.381500	0.005493	0.978208	0.013000	-1.000000	-1.000000	-1.000000	-1.000000	-1.000000	-1.000000	-1.000000	146.620690	0.000000	-1.000000	-1.000000	631035.000000	1772311922.397892
-23920.695000	-33557.805000	-32987.655000	-18908.820000	0.000000	0.000000	0.000000	0.000000	3.523833	-4.146673	2.261684	2.213808	-0.000000	0.000000	-0.000000	-0.000000	7.446880	-0.122080	-0.381500	0.005493	0.978208	0.013000	-1.000000	-1.000000	-1.000000	-1.000000	-1.000000	-1.000000	-1.000000	146.620690	0.000000	-1.000000	-1.000000	631036.000000	1772311922.397895
-23918.940000	-33551.415000	-32987.745000	-18906.795000	0.000000	0.000000	0.000000	0.000000	3.093997	-2.843893	1.562575	1.740459	-0.000000	0.000000	-0.000000	-0.000000	7.446880	-0.122080	-0.381500	0.005493	0.978208	0.013000	-1.000000	-1.000000	-1.000000	-1.000000	-1.000000	-1.000000	-1.000000	146.620690	0.000000	-1.000000	-1.000000	631037.000000	1772311922.401364
-23891.805000	-33560.730000	-32959.530000	-18878.445000	0.000000	0.000000	0.000000	0.000000	1.220828	0.918149	-0.002095	0.359568	-0.000000	0.000000	-0.000000	-0.000000	7.446880	-0.122080	-0.381500	0.005493	0.978208	0.013000	-1.000000	-1.000000	-1.000000	-1.000000	-1.000000	-1.000000	-1.000000	146.620690	0.000000	-1.000000	-1.000000	631038.000000	1772311922.401367
-23904.630000	-33571.260000	-32970.285000	-18889.290000	0.000000	0.000000	0.000000	0.000000	0.089646	4.895862	-0.307685	0.256265	-0.000000	0.000000	-0.000000	-0.000000	7.446880	-0.122080	-0.381500	0.005493	0.978208	0.013000	-1.000000	-1.000000	-1.000000	-1.000000	-1.000000	-1.000000	-1.000000	146.620690	0.000000	-1.000000	-1.000000	631039.000000	1772311922.409808
-23942.115000	-33581.340000	-33007.545000	-18925.830000	0.000000	0.000000	0.000000	0.000000	-0.652417	6.248717	0.064817	0.692850	-0.000000	0.000000	-0.000000	-0.000000	7.446880	-0.122080	-0.381500	0.005493	0.978208	0.013000	-1.000000	-1.000000	-1.000000	-1.000000	-1.000000	-1.000000	-1.000000	146.620690	0.000000	-1.000000	-1.000000	631040.000000	1772311922.409812
-23929.920000	-33598.305000	-32995.215000	-18914.670000	0.000000	0.000000	0.000000	0.000000	-3.509177	4.027921	-1.876963	-1.442906	-0.000000	0.000000	-0.000000	-0.000000	7.446880	-0.122080	-0.381500	0.005493	0.978208	0.013000	-1.000000	-1.000000	-1.000000	-1.000000	-1.000000	-1.000000	-1.000000	146.620690	0.000000	-1.000000	-1.000000	631041.000000	1772311922.409817
-23918.265000	-33621.030000	-32983.515000	-18903.780000	0.000000	0.000000	0.000000	0.000000	-6.857163	-0.563415	-5.012164	-5.006783	-0.000000	0.000000	-0.000000	-0.000000	7.446880	-0.122080	-0.381500	0.005493	0.978208	0.013000	-1.000000	-1.000000	-1.000000	-1.000000	-1.000000	-1.000000	-1.000000	146.620690	0.000000	-1.000000	-1.000000	631042.000000	1772311922.409819
-23912.865000	-33663.825000	-32976.540000	-18896.760000	0.000000	0.000000	0.000000	0.000000	-6.009528	-5.837377	-4.722896	-5.222338	-0.000000	0.000000	-0.000000	-0.000000	5.279960	-0.045780	-0.320460	0.005615	0.982541	0.008179	-1.000000	-1.000000	-1.000000	-1.000000	-1.000000	-1.000000	-1.000000	146.620690	0.000000	-1.000000	-1.000000	631043.000000	1772311922.413519
-23913.900000	-33676.290000	-32977.980000	-18898.290000	0.000000	0.000000	0.000000	0.000000	-0.291899	-10.124042	0.052619	-0.753819	-0.000000	0.000000	-0.000000	-0.000000	5.279960	-0.045780	-0.320460	0.005615	0.982541	0.008179	-1.000000	-1.000000	-1.000000	-1.000000	-1.000000	-1.000000	-1.000000	146.620690	0.000000	-1.000000	-1.000000	631044.000000	1772311922.413522
-23921.145000	-33651.900000	-32987.700000	-18906.930000	0.000000	0.000000	0.000000	0.000000	5.964747	-10.181886	5.382394	4.677606	-0.000000	0.000000	-0.000000	-0.000000	5.279960	-0.045780	-0.320460	0.005615	0.982541	0.008179	-1.000000	-1.000000	-1.000000	-1.000000	-1.000000	-1.000000	-1.000000	146.620690	0.000000	-1.000000	-1.000000	631045.000000	1772311922.417364
-23921.280000	-33617.385000	-32984.910000	-18906.480000	0.000000	0.000000	0.000000	0.000000	8.281854	-2.145037	7.015674	6.752575	-0.000000	0.000000	-0.000000	-0.000000	5.279960	-0.045780	-0.320460	0.005615	0.982541	0.008179	-1.000000	-1.000000	-1.000000	-1.000000	-1.000000	-1.000000	-1.000000	146.620690	0.000000	-1.000000	-1.000000	631046.000000	1772311922.417368
-23924.430000	-33596.325000	-32987.565000	-18908.640000	0.000000	0.000000	0.000000	0.000000	5.815575	12.985705	4.382383	4.570329	-0.000000	0.000000	-0.000000	-0.000000	5.279960	-0.045780	-0.320460	0.005615	0.982541	0.008179	-1.000000	-1.000000	-1.000000	-1.000000	-1.000000	-1.000000	-1.000000	146.620690	0.000000	-1.000000	-1.000000	631047.000000	1772311922.422065
-23930.595000	-33593.895000	-32997.465000	-18920.340000	0.000000	0.000000	0.000000	0.000000	0.912028	26.837003	-0.117756	0.257926	-0.000000	0.000000	-0.000000	-0.000000	5.279960	-0.045780	-0.320460	0.005615	0.982541	0.008179	-1.000000	-1.000000	-1.000000	-1.000000	-1.000000	-1.000000	-1.000000	146.620690	0.000000	-1.000000	-1.000000	631048.000000	1772311922.422067
-23932.530000	-33584.895000	-32997.465000	-18920.565000	0.000000	0.000000	0.000000	0.000000	-3.525763	29.565191	-3.992511	-3.703532	-0.000000	0.000000	-0.000000	-0.000000	5.279960	-0.045780	-0.320460	0.005615	0.982541	0.008179	-1.000000	-1.000000	-1.000000	-1.000000	-1.000000	-1.000000	-1.000000	146.620690	0.000000	-1.000000	-1.000000	631049.000000	1772311922.425527
-23924.970000	-33541.470000	-32989.365000	-18912.195000	0.000000	0.000000	0.000000	0.000000	-5.418732	18.967985	-5.448124	-5.340898	-0.000000	0.000000	-0.000000	-0.000000	5.279960	-0.045780	-0.320460	0.005615	0.982541	0.008179	-1.000000	-1.000000	-1.000000	-1.000000	-1.000000	-1.000000	-1.000000	146.620690	0.000000	-1.000000	-1.000000	631050.000000	1772311922.425529
-23927.355000	-33488.460000	-32993.055000	-18912.240000	0.000000	0.000000	0.000000	0.000000	-4.028742	2.853949	-3.697997	-3.581894	-0.000000	0.000000	-0.000000	-0.000000	5.279960	-0.045780	-0.320460	0.005615	0.982541	0.008179	-1.000000	-1.000000	-1.000000	-1.000000	-1.000000	-1.000000	-1.000000	146.620690	0.000000	-1.000000	-1.000000	631051.000000	1772311922.429478
-23935.275000	-33447.240000	-33007.860000	-18925.695000	0.000000	0.000000	0.000000	0.000000	-0.740214	-8.721637	-0.293069	0.211724	-0.000000	0.000000	-0.000000	-0.000000	5.279960	-0.045780	-0.320460	0.005615	0.982541	0.008179	-1.000000	-1.000000	-1.000000	-1.000000	-1.000000	-1.000000	-1.000000	146.620690	0.000000	-1.000000	-1.000000	631052.000000	1772311922.429482
-23928.795000	-33433.245000	-33003.585000	-18922.455000	0.000000	0.000000	0.000000	0.000000	1.962913	-12.697624	1.949207	2.972983	-0.000000	0.000000	-0.000000	-0.000000	1.266580	-0.045780	-0.274680	0.004883	0.984922	0.005859	-1.000000	-1.000000	-1.000000	-1.000000	-1.000000	-1.000000	-1.000000	146.620690	0.000000	-1.000000	-1.000000	631053.000000	1772311922.434810
-23931.495000	-33426.765000	-33004.935000	-18923.895000	0.000000	0.000000	0.000000	0.000000	2.941709	-13.594249	2.164307	3.251235	0.000000	0.000000	-0.000000	-0.000000	1.266580	-0.045780	-0.274680	0.004883	0.984922	0.005859	-1.000000	-1.000000	-1.000000	-1.000000	-1.000000	-1.000000	-1.000000	146.620690	0.000000	-1.000000	-1.000000	631054.000000	1772311922.434813
-23915.880000	-33426.900000	-32987.160000	-18909.090000	0.000000	0.000000	0.000000	0.000000	2.847815	-16.515867	1.926712	2.304877	0.000000	0.000000	-0.000000	-0.000000	1.266580	-0.045780	-0.274680	0.004883	0.984922	0.005859	-1.000000	-1.000000	-1.000000	-1.000000	-1.000000	-1.000000	-1.000000	146.620690	0.000000	-1.000000	-1.000000	631055.000000	1772311922.437457
-23917.860000	-33456.915000	-32990.580000	-18911.745000	0.000000	0.000000	0.000000	0.000000	2.701543	-22.131591	2.722114	1.912321	0.000000	0.000000	-0.000000	-0.000000	1.266580	-0.045780	-0.274680	0.004883	0.984922	0.005859	-1.000000	-1.000000	-1.000000	-1.000000	-1.000000	-1.000000	-1.000000	146.620690	0.000000	-1.000000	-1.000000	631056.000000	1772311922.437460
-23934.285000	-33451.830000	-33005.835000	-18923.715000	0.000000	0.000000	0.000000	0.000000	2.162897	-27.113169	3.589504	1.892178	0.000000	0.000000	-0.000000	-0.000000	1.266580	-0.045780	-0.274680	0.004883	0.984922	0.005859	-1.000000	-1.000000	-1.000000	-1.000000	-1.000000	-1.000000	-1.000000	146.620690	0.000000	-1.000000	-1.000000	631057.000000	1772311922.441492
-23940.180000	-33406.290000	-33010.605000	-18928.125000	0.000000	0.000000	0.000000	0.000000	-0.229655	-25.397731	2.103086	0.524113	0.000000	0.000000	-0.000000	-0.000000	1.266580	-0.045780	-0.274680	0.004883	0.984922	0.005859	-1.000000	-1.000000	-1.000000	-1.000000	-1.000000	-1.000000	-1.000000	146.620690	0.000000	-1.000000	-1.000000	631058.000000	1772311922.441494
-23938.695000	-33396.525000	-33012.090000	-18931.995000	0.000000	0.000000	0.000000	0.000000	-4.102183	-12.277534	-1.870153	-2.471735	0.000000	0.000000	-0.000000	-0.000000	1.266580	-0.045780	-0.274680	0.004883	0.984922	0.005859	-1.000000	-1.000000	-1.000000	-1.000000	-1.000000	-1.000000	-1.000000	146.620690	0.000000	-1.000000	-1.000000	631059.000000	1772311922.445545
-23933.835000	-33412.410000	-33009.345000	-18929.340000	0.000000	0.000000	0.000000	0.000000	-6.519455	8.023266	-5.416454	-5.064547	0.000000	0.000000	-0.000000	-0.000000	1.266580	-0.045780	-0.274680	0.004883	0.984922	0.005859	-1.000000	-1.000000	-1.000000	-1.000000	-1.000000	-1.000000	-1.000000	146.620690	0.000000	-1.000000	-1.000000	631060.000000	1772311922.445548
-23922.810000	-33410.745000	-32999.085000	-18917.055000	0.000000	0.000000	0.000000	0.000000	-4.998599	23.722232	-5.602606	-4.894167	0.000000	0.000000	-0.000000	-0.000000	1.266580	-0.045780	-0.274680	0.004883	0.984922	0.005859	-1.000000	-1.000000	-1.000000	-1.000000	-1.000000	-1.000000	-1.000000	146.620690	0.000000	-1.000000	-1.000000	631061.000000	1772311922.452957
-23924.790000	-33408.360000	-33000.615000	-18916.830000	0.000000	0.000000	0.000000	0.000000	-0.060627	26.958530	-2.068568	-1.397312	0.000000	0.000000	-0.000000	-0.000000	1.266580	-0.045780	-0.274680	0.004883	0.984922	0.005859	-1.000000	-1.000000	-1.000000	-1.000000	-1.000000	-1.000000	-1.000000	146.620690	0.000000	-1.000000	-1.000000	631062.000000	1772311922.452960
-23901.165000	-33415.740000	-32977.035000	-18896.445000	0.000000	0.000000	0.000000	0.000000	5.423505	19.300054	3.071466	3.639202	0.000000	0.000000	-0.000000	-0.000000	-0.503580	-0.030520	-0.320460	0.005676	0.985898	0.006897	-1.000000	-1.000000	-1.000000	-1.000000	-1.000000	-1.000000	-1.000000	146.620690	0.000000	-1.000000	-1.000000	631063.000000	1772311922.453603
-23871.555000	-33420.645000	-32946.930000	-18871.380000	0.000000	0.000000	0.000000	0.000000	9.340424	7.142286	7.776349	8.005936	0.000000	0.000000	-0.000000	-0.000000	-0.503580	-0.030520	-0.320460	0.005676	0.985898	0.006897	-1.000000	-1.000000	-1.000000	-1.000000	-1.000000	-1.000000	-1.000000	146.620690	0.000000	-1.000000	-1.000000	631064.000000	1772311922.453606
-23897.430000	-33427.530000	-32970.195000	-18896.490000	0.000000	0.000000	0.000000	0.000000	10.505926	-3.561019	10.339316	9.745569	0.000000	0.000000	-0.000000	-0.000000	-0.503580	-0.030520	-0.320460	0.005676	0.985898	0.006897	-1.000000	-1.000000	-1.000000	-1.000000	-1.000000	-1.000000	-1.000000	146.620690	0.000000	-1.000000	-1.000000	631065.000000	1772311922.461540
-23953.680000	-33441.210000	-33025.815000	-18945.090000	0.000000	0.000000	0.000000	0.000000	5.712283	-9.506994	6.891650	5.522699	0.000000	0.000000	-0.000000	-0.000000	-0.503580	-0.030520	-0.320460	0.005676	0.985898	0.006897	-1.000000	-1.000000	-1.000000	-1.000000	-1.000000	-1.000000	-1.000000	146.620690	0.000000	-1.000000	-1.000000	631066.000000	1772311922.461544
-23954.940000	-33456.285000	-33029.865000	-18944.100000	0.000000	0.000000	0.000000	0.000000	-6.712197	-10.489452	-4.852536	-5.837024	0.000000	0.000000	-0.000000	-0.000000	-0.503580	-0.030520	-0.320460	0.005676	0.985898	0.006897	-1.000000	-1.000000	-1.000000	-1.000000	-1.000000	-1.000000	-1.000000	146.620690	0.000000	-1.000000	-1.000000	631067.000000	1772311922.461549
-23943.420000	-33476.130000	-33019.920000	-18936.180000	0.000000	0.000000	0.000000	0.000000	-19.829032	-8.283084	-18.376500	-17.641015	0.000000	0.000000	-0.000000	-0.000000	-0.503580	-0.030520	-0.320460	0.005676	0.985898	0.006897	-1.000000	-1.000000	-1.000000	-1.000000	-1.000000	-1.000000	-1.000000	146.620690	0.000000	-1.000000	-1.000000	631068.000000	1772311922.461551
-23934.060000	-33475.545000	-33010.875000	-18926.100000	0.000000	0.000000	0.000000	0.000000	-22.577723	-4.574184	-22.419103	-19.998404	0.000000	0.000000	-0.000000	-0.000000	-0.503580	-0.030520	-0.320460	0.005676	0.985898	0.006897	-1.000000	-1.000000	-1.000000	-1.000000	-1.000000	-1.000000	-1.000000	146.620690	0.000000	-1.000000	-1.000000	631069.000000	1772311922.466133
-23911.830000	-33462.090000	-32988.015000	-18904.455000	0.000000	0.000000	0.000000	0.000000	-11.316455	0.519734	-12.477976	-9.845832	0.000000	0.000000	-0.000000	-0.000000	-0.503580	-0.030520	-0.320460	0.005676	0.985898	0.006897	-1.000000	-1.000000	-1.000000	-1.000000	-1.000000	-1.000000	-1.000000	146.620690	0.000000	-1.000000	-1.000000	631070.000000	1772311922.466136
-23918.535000	-33432.885000	-32995.710000	-18914.130000	0.000000	0.000000	0.000000	0.000000	7.122543	7.682342	5.431516	6.629134	0.000000	0.000000	-0.000000	-0.000000	-0.503580	-0.030520	-0.320460	0.005676	0.985898	0.006897	-1.000000	-1.000000	-1.000000	-1.000000	-1.000000	-1.000000	-1.000000	146.620690	0.000000	-1.000000	-1.000000	631071.000000	1772311922.469510
-23920.830000	-33435.855000	-32995.755000	-18914.670000	0.000000	0.000000	0.000000	0.000000	21.313846	15.507044	20.065382	19.084816	0.000000	0.000000	-0.000000	-0.000000	-0.503580	-0.030520	-0.320460	0.005676	0.985898	0.006897	-1.000000	-1.000000	-1.000000	-1.000000	-1.000000	-1.000000	-1.000000	146.620690	0.000000	-1.000000	-1.000000	631072.000000	1772311922.469513
-23922.450000	-33454.395000	-32997.465000	-18916.020000	0.000000	0.000000	0.000000	0.000000	23.542995	18.960639	23.343980	20.680735	0.000000	0.000000	-0.000000	-0.000000	0.427280	0.350980	-0.228900	0.005554	0.982419	0.010742	-1.000000	-1.000000	-1.000000	-1.000000	-1.000000	-1.000000	-1.000000	146.620690	0.000000	-1.000000	-1.000000	631073.000000	1772311922.473538
-23925.240000	-33436.890000	-32999.940000	-18917.550000	0.000000	0.000000	0.000000	0.000000	14.497384	13.788725	15.351908	12.374991	0.000000	0.000000	-0.000000	-0.000000	0.427280	0.350980	-0.228900	0.005554	0.982419	0.010742	-1.000000	-1.000000	-1.000000	-1.000000	-1.000000	-1.000000	-1.000000	146.620690	0.000000	-1.000000	-1.000000	631074.000000	1772311922.473541
-23926.230000	-33415.245000	-33002.370000	-18918.270000	0.000000	0.000000	0.000000	0.000000	0.847712	2.760961	2.190429	0.325690	0.000000	0.000000	-0.000000	-0.000000	0.427280	0.350980	-0.228900	0.005554	0.982419	0.010742	-1.000000	-1.000000	-1.000000	-1.000000	-1.000000	-1.000000	-1.000000	146.620690	0.000000	-1.000000	-1.000000	631075.000000	1772311922.477631
-23925.060000	-33391.395000	-33001.470000	-18918.720000	0.000000	0.000000	0.000000	0.000000	-10.179644	-6.461886	-9.135257	-9.181012	0.000000	0.000000	-0.000000	-0.000000	0.427280	0.350980	-0.228900	0.005554	0.982419	0.010742	-1.000000	-1.000000	-1.000000	-1.000000	-1.000000	-1.000000	-1.000000	146.620690	0.000000	-1.000000	-1.000000	631076.000000	1772311922.477634
-23921.055000	-33361.560000	-32999.130000	-18916.470000	0.000000	0.000000	0.000000	0.000000	-14.427317	-8.954733	-14.223708	-12.784163	0.000000	0.000000	-0.000000	-0.000000	0.427280	0.350980	-0.228900	0.005554	0.982419	0.010742	-1.000000	-1.000000	-1.000000	-1.000000	-1.000000	-1.000000	-1.000000	146.620690	0.000000	-1.000000	-1.000000	631077.000000	1772311922.481612
-23922.855000	-33350.040000	-33004.080000	-18921.465000	0.000000	0.000000	0.000000	0.000000	-11.876353	-5.732273	-12.607501	-10.687525	0.000000	0.000000	-0.000000	-0.000000	0.427280	0.350980	-0.228900	0.005554	0.982419	0.010742	-1.000000	-1.000000	-1.000000	-1.000000	-1.000000	-1.000000	-1.000000	146.620690	0.000000	-1.000000	-1.000000	631078.000000	1772311922.481615
-23926.635000	-33304.230000	-33007.095000	-18924.120000	0.000000	0.000000	0.000000	0.000000	-5.701608	-1.038247	-7.066534	-5.596952	0.000000	0.000000	-0.000000	-0.000000	0.427280	0.350980	-0.228900	0.005554	0.982419	0.010742	-1.000000	-1.000000	-1.000000	-1.000000	-1.000000	-1.000000	-1.000000	146.620690	0.000000	-1.000000	-1.000000	631079.000000	1772311922.485566
-23933.340000	-33276.600000	-33014.745000	-18931.365000	0.000000	0.000000	0.000000	0.000000	0.079860	2.137252	-1.298273	-0.671009	0.000000	0.000000	-0.000000	-0.000000	0.427280	0.350980	-0.228900	0.005554	0.982419	0.010742	-1.000000	-1.000000	-1.000000	-1.000000	-1.000000	-1.000000	-1.000000	146.620690	0.000000	-1.000000	-1.000000	631080.000000	1772311922.485568
-23932.845000	-33286.635000	-33013.350000	-18930.600000	0.000000	0.000000	0.000000	0.000000	3.102455	2.280205	2.414113	2.307137	0.000000	0.000000	-0.000000	-0.000000	0.427280	0.350980	-0.228900	0.005554	0.982419	0.010742	-1.000000	-1.000000	-1.000000	-1.000000	-1.000000	-1.000000	-1.000000	146.620690	0.000000	-1.000000	-1.000000	631081.000000	1772311922.489594
-23928.255000	-33309.315000	-33007.230000	-18923.130000	0.000000	0.000000	0.000000	0.000000	3.650000	-2.772958	4.069861	3.563795	0.000000	0.000000	-0.000000	-0.000000	0.427280	0.350980	-0.228900	0.005554	0.982419	0.010742	-1.000000	-1.000000	-1.000000	-1.000000	-1.000000	-1.000000	-1.000000	146.620690	0.000000	-1.000000	-1.000000	631082.000000	1772311922.489597
-23926.230000	-33309.270000	-33007.815000	-18922.680000	0.000000	0.000000	0.000000	0.000000	3.421697	-12.873178	4.837116	4.309099	0.000000	0.000000	-0.000000	-0.000000	3.433500	0.076300	-0.381500	0.005554	0.980039	0.012939	-1.000000	-1.000000	-1.000000	-1.000000	-1.000000	-1.000000	-1.000000	146.620690	0.000000	-1.000000	-1.000000	631083.000000	1772311922.493591
-23924.700000	-33314.130000	-33005.835000	-18920.340000	0.000000	0.000000	0.000000	0.000000	3.426197	-22.267860	5.167177	4.910640	0.000000	0.000000	-0.000000	-0.000000	3.433500	0.076300	-0.381500	0.005554	0.980039	0.012939	-1.000000	-1.000000	-1.000000	-1.000000	-1.000000	-1.000000	-1.000000	146.620690	0.000000	-1.000000	-1.000000	631084.000000	1772311922.493594
-23925.375000	-33323.085000	-33009.570000	-18923.625000	0.000000	0.000000	0.000000	0.000000	3.334482	-23.953012	4.531397	4.604352	0.000000	0.000000	-0.000000	-0.000000	3.433500	0.076300	-0.381500	0.005554	0.980039	0.012939	-1.000000	-1.000000	-1.000000	-1.000000	-1.000000	-1.000000	-1.000000	146.620690	0.000000	-1.000000	-1.000000	631085.000000	1772311922.497643
-23917.095000	-33347.025000	-33003.675000	-18919.350000	0.000000	0.000000	0.000000	0.000000	2.583889	-16.402285	2.649096	2.836870	0.000000	0.000000	-0.000000	-0.000000	3.433500	0.076300	-0.381500	0.005554	0.980039	0.012939	-1.000000	-1.000000	-1.000000	-1.000000	-1.000000	-1.000000	-1.000000	146.620690	0.000000	-1.000000	-1.000000	631086.000000	1772311922.497645
-23917.545000	-33379.200000	-33002.325000	-18916.470000	0.000000	0.000000	0.000000	0.000000	1.308201	-4.383141	0.249544	0.241365	0.000000	0.000000	-0.000000	-0.000000	3.433500	0.076300	-0.381500	0.005554	0.980039	0.012939	-1.000000	-1.000000	-1.000000	-1.000000	-1.000000	-1.000000	-1.000000	146.620690	0.000000	-1.000000	-1.000000	631087.000000	1772311922.501677
-23922.045000	-33391.890000	-33004.800000	-18917.370000	0.000000	0.000000	0.000000	0.000000	-0.221604	6.025566	-1.668504	-1.952040	0.000000	0.000000	-0.000000	-0.000000	3.433500	0.076300	-0.381500	0.005554	0.980039	0.012939	-1.000000	-1.000000	-1.000000	-1.000000	-1.000000	-1.000000	-1.000000	146.620690	0.000000	-1.000000	-1.000000	631088.000000	1772311922.501680
-23910.705000	-33349.140000	-32993.190000	-18908.055000	0.000000	0.000000	0.000000	0.000000	-1.830667	13.367747	-2.616012	-2.969259	0.000000	0.000000	-0.000000	-0.000000	3.433500	0.076300	-0.381500	0.005554	0.980039	0.012939	-1.000000	-1.000000	-1.000000	-1.000000	-1.000000	-1.000000	-1.000000	146.620690	0.000000	-1.000000	-1.000000	631089.000000	1772311922.505620
-23919.840000	-33320.115000	-33003.180000	-18916.605000	0.000000	0.000000	0.000000	0.000000	-2.935873	20.865001	-2.543519	-2.801611	0.000000	0.000000	-0.000000	-0.000000	3.433500	0.076300	-0.381500	0.005554	0.980039	0.012939	-1.000000	-1.000000	-1.000000	-1.000000	-1.000000	-1.000000	-1.000000	146.620690	0.000000	-1.000000	-1.000000	631090.000000	1772311922.505623
-23937.840000	-33305.310000	-33020.955000	-18932.175000	0.000000	0.000000	0.000000	0.000000	-3.599807	29.150698	-2.416629	-2.520716	0.000000	0.000000	-0.000000	-0.000000	3.433500	0.076300	-0.381500	0.005554	0.980039	0.012939	-1.000000	-1.000000	-1.000000	-1.000000	-1.000000	-1.000000	-1.000000	146.620690	0.000000	-1.000000	-1.000000	631091.000000	1772311922.509782
-23921.820000	-33286.230000	-33005.520000	-18919.395000	0.000000	0.000000	0.000000	0.000000	-4.316082	32.809794	-3.186786	-3.073047	0.000000	0.000000	-0.000000	-0.000000	3.433500	0.076300	-0.381500	0.005554	0.980039	0.012939	-1.000000	-1.000000	-1.000000	-1.000000	-1.000000	-1.000000	-1.000000	146.620690	0.000000	-1.000000	-1.000000	631092.000000	1772311922.509785
-23906.115000	-33225.345000	-32989.680000	-18904.545000	0.000000	0.000000	0.000000	0.000000	-3.640279	27.320611	-3.211071	-3.004968	0.000000	0.000000	-0.000000	-0.000000	5.493600	0.000000	-0.518840	0.005859	0.979673	0.012512	-1.000000	-1.000000	-1.000000	-1.000000	-1.000000	-1.000000	-1.000000	146.620690	0.000000	-1.000000	-1.000000	631093.000000	1772311922.513757
-23907.015000	-33197.265000	-32994.855000	-18912.420000	0.000000	0.000000	0.000000	0.000000	0.059791	14.881938	-0.412987	-0.474953	0.000000	0.000000	-0.000000	-0.000000	5.493600	0.000000	-0.518840	0.005859	0.979673	0.012512	-1.000000	-1.000000	-1.000000	-1.000000	-1.000000	-1.000000	-1.000000	146.620690	0.000000	-1.000000	-1.000000	631094.000000	1772311922.513760
-23925.870000	-33197.040000	-33011.730000	-18927.495000	0.000000	0.000000	0.000000	0.000000	4.551345	-0.041847	3.337981	2.811328	0.000000	0.000000	-0.000000	-0.000000	5.493600	0.000000	-0.518840	0.005859	0.979673	0.012512	-1.000000	-1.000000	-1.000000	-1.000000	-1.000000	-1.000000	-1.000000	146.620690	0.000000	-1.000000	-1.000000	631095.000000	1772311922.519849
-23950.530000	-33196.455000	-33035.040000	-18945.945000	0.000000	0.000000	0.000000	0.000000	5.136566	-15.593128	3.732353	3.128423	0.000000	0.000000	-0.000000	-0.000000	5.493600	0.000000	-0.518840	0.005859	0.979673	0.012512	-1.000000	-1.000000	-1.000000	-1.000000	-1.000000	-1.000000	-1.000000	146.620690	0.000000	-1.000000	-1.000000	631096.000000	1772311922.519852
-23939.145000	-33193.440000	-33021.945000	-18932.580000	0.000000	0.000000	0.000000	0.000000	0.540952	-29.749277	-0.233326	-0.107834	0.000000	0.000000	-0.000000	-0.000000	5.493600	0.000000	-0.518840	0.005859	0.979673	0.012512	-1.000000	-1.000000	-1.000000	-1.000000	-1.000000	-1.000000	-1.000000	146.620690	0.000000	-1.000000	-1.000000	631097.000000	1772311922.521666
-23927.220000	-33194.565000	-33010.200000	-18923.175000	0.000000	0.000000	0.000000	0.000000	-4.527235	-37.992615	-4.147462	-2.960812	0.000000	0.000000	-0.000000	-0.000000	5.493600	0.000000	-0.518840	0.005859	0.979673	0.012512	-1.000000	-1.000000	-1.000000	-1.000000	-1.000000	-1.000000	-1.000000	146.620690	0.000000	-1.000000	-1.000000	631098.000000	1772311922.521669
-23933.790000	-33187.995000	-33015.780000	-18929.295000	0.000000	0.000000	0.000000	0.000000	-4.741940	-36.349336	-3.414351	-1.859255	0.000000	0.000000	-0.000000	-0.000000	5.493600	0.000000	-0.518840	0.005859	0.979673	0.012512	-1.000000	-1.000000	-1.000000	-1.000000	-1.000000	-1.000000	-1.000000	146.620690	0.000000	-1.000000	-1.000000	631099.000000	1772311922.527192
-23954.940000	-33190.110000	-33037.380000	-18950.130000	0.000000	0.000000	0.000000	0.000000	-0.741309	-24.801716	0.781946	1.638301	0.000000	0.000000	-0.000000	-0.000000	5.493600	0.000000	-0.518840	0.005859	0.979673	0.012512	-1.000000	-1.000000	-1.000000	-1.000000	-1.000000	-1.000000	-1.000000	146.620690	0.000000	-1.000000	-1.000000	631100.000000	1772311922.527194
-23958.765000	-33182.505000	-33043.725000	-18956.700000	0.000000	0.000000	0.000000	0.000000	2.589246	-7.594737	3.480428	3.172248	0.000000	0.000000	-0.000000	-0.000000	5.493600	0.000000	-0.518840	0.005859	0.979673	0.012512	-1.000000	-1.000000	-1.000000	-1.000000	-1.000000	-1.000000	-1.000000	146.620690	0.000000	-1.000000	-1.000000	631101.000000	1772311922.529711
-23941.890000	-33168.420000	-33026.895000	-18938.070000	0.000000	0.000000	0.000000	0.000000	3.061830	9.420721	2.806702	1.696684	0.000000	0.000000	-0.000000	-0.000000	5.493600	0.000000	-0.518840	0.005859	0.979673	0.012512	-1.000000	-1.000000	-1.000000	-1.000000	-1.000000	-1.000000	-1.000000	146.620690	0.000000	-1.000000	-1.000000	631102.000000	1772311922.529714
-23928.705000	-33183.945000	-33015.105000	-18930.600000	0.000000	0.000000	0.000000	0.000000	3.060857	21.230120	1.732124	0.504419	0.000000	0.000000	-0.000000	-0.000000	4.791640	0.076300	-0.442540	0.005615	0.981077	0.010254	-1.000000	-1.000000	-1.000000	-1.000000	-1.000000	-1.000000	-1.000000	146.620690	0.000000	-1.000000	-1.000000	631103.000000	1772311922.534127
-23933.340000	-33193.440000	-33018.570000	-18936.270000	0.000000	0.000000	0.000000	0.000000	4.582582	24.287885	2.832007	1.833221	0.000000	0.000000	-0.000000	-0.000000	4.791640	0.076300	-0.442540	0.005615	0.981077	0.010254	-1.000000	-1.000000	-1.000000	-1.000000	-1.000000	-1.000000	-1.000000	146.620690	0.000000	-1.000000	-1.000000	631104.000000	1772311922.534130
-23929.740000	-33186.690000	-33014.205000	-18929.745000	0.000000	0.000000	0.000000	0.000000	5.952936	18.559374	4.664261	3.878367	0.000000	0.000000	-0.000000	-0.000000	4.791640	0.076300	-0.442540	0.005615	0.981077	0.010254	-1.000000	-1.000000	-1.000000	-1.000000	-1.000000	-1.000000	-1.000000	146.620690	0.000000	-1.000000	-1.000000	631105.000000	1772311922.537764
-23918.670000	-33197.580000	-33001.830000	-18916.245000	0.000000	0.000000	0.000000	0.000000	4.875044	8.581933	4.703110	4.298532	0.000000	0.000000	-0.000000	-0.000000	4.791640	0.076300	-0.442540	0.005615	0.981077	0.010254	-1.000000	-1.000000	-1.000000	-1.000000	-1.000000	-1.000000	-1.000000	146.620690	0.000000	-1.000000	-1.000000	631106.000000	1772311922.537767
-23919.615000	-33197.805000	-33002.730000	-18916.650000	0.000000	0.000000	0.000000	0.000000	1.569174	-0.277138	2.589271	2.969242	0.000000	0.000000	-0.000000	-0.000000	4.791640	0.076300	-0.442540	0.005615	0.981077	0.010254	-1.000000	-1.000000	-1.000000	-1.000000	-1.000000	-1.000000	-1.000000	146.620690	0.000000	-1.000000	-1.000000	631107.000000	1772311922.543304
-23925.870000	-33172.785000	-33011.145000	-18922.635000	0.000000	0.000000	0.000000	0.000000	-2.538181	-4.669151	-0.904130	0.401525	0.000000	0.000000	-0.000000	-0.000000	4.791640	0.076300	-0.442540	0.005615	0.981077	0.010254	-1.000000	-1.000000	-1.000000	-1.000000	-1.000000	-1.000000	-1.000000	146.620690	0.000000	-1.000000	-1.000000	631108.000000	1772311922.543307
-23922.990000	-33184.620000	-33008.895000	-18921.600000	0.000000	0.000000	0.000000	0.000000	-6.328847	-3.675370	-5.015108	-3.156963	0.000000	0.000000	-0.000000	-0.000000	4.791640	0.076300	-0.442540	0.005615	0.981077	0.010254	-1.000000	-1.000000	-1.000000	-1.000000	-1.000000	-1.000000	-1.000000	146.620690	0.000000	-1.000000	-1.000000	631109.000000	1772311922.548699
-23917.995000	-33186.915000	-33004.890000	-18920.295000	0.000000	0.000000	0.000000	0.000000	-8.412014	-0.011058	-8.119814	-6.516740	0.000000	0.000000	-0.000000	-0.000000	4.791640	0.076300	-0.442540	0.005615	0.981077	0.010254	-1.000000	-1.000000	-1.000000	-1.000000	-1.000000	-1.000000	-1.000000	146.620690	0.000000	-1.000000	-1.000000	631110.000000	1772311922.548702
-23915.745000	-33168.420000	-33002.865000	-18920.475000	0.000000	0.000000	0.000000	0.000000	-7.518890	2.392276	-8.281535	-7.840540	0.000000	0.000000	-0.000000	-0.000000	4.791640	0.076300	-0.442540	0.005615	0.981077	0.010254	-1.000000	-1.000000	-1.000000	-1.000000	-1.000000	-1.000000	-1.000000	146.620690	0.000000	-1.000000	-1.000000	631111.000000	1772311922.551238
-23915.250000	-33170.625000	-32999.760000	-18916.110000	0.000000	0.000000	0.000000	0.000000	-4.013888	2.594346	-5.224540	-6.309299	0.000000	0.000000	-0.000000	-0.000000	4.791640	0.076300	-0.442540	0.005615	0.981077	0.010254	-1.000000	-1.000000	-1.000000	-1.000000	-1.000000	-1.000000	-1.000000	146.620690	0.000000	-1.000000	-1.000000	631112.000000	1772311922.551240
-23924.745000	-33156.855000	-33012.990000	-18924.615000	0.000000	0.000000	0.000000	0.000000	-0.007204	1.675689	-0.876963	-2.808095	0.000000	0.000000	-0.000000	-0.000000	2.639980	-0.122080	-0.427280	0.005127	0.985837	0.007263	-1.000000	-1.000000	-1.000000	-1.000000	-1.000000	-1.000000	-1.000000	146.620690	0.000000	-1.000000	-1.000000	631113.000000	1772311922.553871
-23912.730000	-33131.205000	-32998.365000	-18911.610000	0.000000	0.000000	0.000000	0.000000	2.500603	0.850866	2.355917	0.914598	0.000000	0.000000	-0.000000	-0.000000	2.639980	-0.122080	-0.427280	0.005127	0.985837	0.007263	-1.000000	-1.000000	-1.000000	-1.000000	-1.000000	-1.000000	-1.000000	146.620690	0.000000	-1.000000	-1.000000	631114.000000	1772311922.553874
-23918.130000	-33119.055000	-33000.570000	-18912.105000	0.000000	0.000000	0.000000	0.000000	3.314978	1.181190	3.855699	3.769027	0.000000	0.000000	-0.000000	-0.000000	2.639980	-0.122080	-0.427280	0.005127	0.985837	0.007263	-1.000000	-1.000000	-1.000000	-1.000000	-1.000000	-1.000000	-1.000000	146.620690	0.000000	-1.000000	-1.000000	631115.000000	1772311922.557792
-23937.525000	-33120.540000	-33020.955000	-18931.590000	0.000000	0.000000	0.000000	0.000000	2.800160	1.919102	3.873046	4.960970	0.000000	0.000000	-0.000000	-0.000000	2.639980	-0.122080	-0.427280	0.005127	0.985837	0.007263	-1.000000	-1.000000	-1.000000	-1.000000	-1.000000	-1.000000	-1.000000	146.620690	0.000000	-1.000000	-1.000000	631116.000000	1772311922.557795
-23931.990000	-33096.510000	-33019.110000	-18932.220000	0.000000	0.000000	0.000000	0.000000	0.840184	1.045864	2.012249	3.425346	0.000000	0.000000	-0.000000	-0.000000	2.639980	-0.122080	-0.427280	0.005127	0.985837	0.007263	-1.000000	-1.000000	-1.000000	-1.000000	-1.000000	-1.000000	-1.000000	146.620690	0.000000	-1.000000	-1.000000	631117.000000	1772311922.564274
-23931.495000	-33098.580000	-33019.245000	-18930.195000	0.000000	0.000000	0.000000	0.000000	-1.351714	-1.685618	-0.866226	-0.032598	0.000000	0.000000	-0.000000	-0.000000	2.639980	-0.122080	-0.427280	0.005127	0.985837	0.007263	-1.000000	-1.000000	-1.000000	-1.000000	-1.000000	-1.000000	-1.000000	146.620690	0.000000	-1.000000	-1.000000	631118.000000	1772311922.564277
-23932.665000	-33096.420000	-33023.070000	-18931.455000	0.000000	0.000000	0.000000	0.000000	-1.694249	-5.011927	-2.437461	-2.535798	0.000000	0.000000	-0.000000	-0.000000	2.639980	-0.122080	-0.427280	0.005127	0.985837	0.007263	-1.000000	-1.000000	-1.000000	-1.000000	-1.000000	-1.000000	-1.000000	146.620690	0.000000	-1.000000	-1.000000	631119.000000	1772311922.566054
-23926.680000	-33111.945000	-33017.175000	-18927.630000	0.000000	0.000000	0.000000	0.000000	0.186961	-8.149495	-1.566451	-2.253001	0.000000	0.000000	-0.000000	-0.000000	2.639980	-0.122080	-0.427280	0.005127	0.985837	0.007263	-1.000000	-1.000000	-1.000000	-1.000000	-1.000000	-1.000000	-1.000000	146.620690	0.000000	-1.000000	-1.000000	631120.000000	1772311922.566057
-23922.720000	-33120.540000	-33010.920000	-18922.590000	0.000000	0.000000	0.000000	0.000000	3.006715	-10.647266	1.151166	0.317075	0.000000	0.000000	-0.000000	-0.000000	2.639980	-0.122080	-0.427280	0.005127	0.985837	0.007263	-1.000000	-1.000000	-1.000000	-1.000000	-1.000000	-1.000000	-1.000000	146.620690	0.000000	-1.000000	-1.000000	631121.000000	1772311922.569836
-23925.330000	-33126.030000	-33011.730000	-18922.590000	0.000000	0.000000	0.000000	0.000000	5.047174	-11.425938	4.213613	3.375467	0.000000	0.000000	-0.000000	-0.000000	2.639980	-0.122080	-0.427280	0.005127	0.985837	0.007263	-1.000000	-1.000000	-1.000000	-1.000000	-1.000000	-1.000000	-1.000000	146.620690	0.000000	-1.000000	-1.000000	631122.000000	1772311922.569839
-23930.640000	-33136.470000	-33016.455000	-18925.020000	0.000000	0.000000	0.000000	0.000000	4.789242	-9.136398	5.615189	4.907588	0.000000	0.000000	-0.000000	-0.000000	1.526000	-3.906560	-0.228900	0.004944	0.984983	0.007263	-1.000000	-1.000000	-1.000000	-1.000000	-1.000000	-1.000000	-1.000000	146.620690	0.000000	-1.000000	-1.000000	631123.000000	1772311922.573995
-23931.540000	-33144.930000	-33016.635000	-18923.580000	0.000000	0.000000	0.000000	0.000000	1.924129	-3.797241	4.085316	3.855292	0.000000	0.000000	-0.000000	-0.000000	1.526000	-3.906560	-0.228900	0.004944	0.984983	0.007263	-1.000000	-1.000000	-1.000000	-1.000000	-1.000000	-1.000000	-1.000000	146.620690	0.000000	-1.000000	-1.000000	631124.000000	1772311922.573998
-23927.265000	-33156.855000	-33015.375000	-18922.545000	0.000000	0.000000	0.000000	0.000000	-1.938958	2.723785	0.437709	0.940280	0.000000	0.000000	-0.000000	-0.000000	1.526000	-3.906560	-0.228900	0.004944	0.984983	0.007263	-1.000000	-1.000000	-1.000000	-1.000000	-1.000000	-1.000000	-1.000000	146.620690	0.000000	-1.000000	-1.000000	631125.000000	1772311922.578254
-23923.125000	-33151.725000	-33012.000000	-18921.150000	0.000000	0.000000	0.000000	0.000000	-4.328787	8.272508	-3.015789	-2.033200	0.000000	0.000000	-0.000000	-0.000000	1.526000	-3.906560	-0.228900	0.004944	0.984983	0.007263	-1.000000	-1.000000	-1.000000	-1.000000	-1.000000	-1.000000	-1.000000	146.620690	0.000000	-1.000000	-1.000000	631126.000000	1772311922.578257
-23904.360000	-33134.355000	-32993.145000	-18905.040000	0.000000	0.000000	0.000000	0.000000	-3.696266	12.196396	-4.109396	-3.379506	0.000000	0.000000	-0.000000	-0.000000	1.526000	-3.906560	-0.228900	0.004944	0.984983	0.007263	-1.000000	-1.000000	-1.000000	-1.000000	-1.000000	-1.000000	-1.000000	146.620690	0.000000	-1.000000	-1.000000	631127.000000	1772311922.582055
-23895.630000	-33132.825000	-32985.765000	-18898.515000	0.000000	0.000000	0.000000	0.000000	-0.267061	14.777650	-2.059505	-2.255605	0.000000	0.000000	-0.000000	-0.000000	1.526000	-3.906560	-0.228900	0.004944	0.984983	0.007263	-1.000000	-1.000000	-1.000000	-1.000000	-1.000000	-1.000000	-1.000000	146.620690	0.000000	-1.000000	-1.000000	631128.000000	1772311922.582058
-23916.330000	-33145.065000	-33010.515000	-18926.505000	0.000000	0.000000	0.000000	0.000000	3.342895	14.797157	1.091911	-0.104829	0.000000	0.000000	-0.000000	-0.000000	1.526000	-3.906560	-0.228900	0.004944	0.984983	0.007263	-1.000000	-1.000000	-1.000000	-1.000000	-1.000000	-1.000000	-1.000000	146.620690	0.000000	-1.000000	-1.000000	631129.000000	1772311922.585912
-23923.215000	-33165.180000	-33020.055000	-18943.605000	0.000000	0.000000	0.000000	0.000000	3.263764	9.839644	1.304750	-0.467751	0.000000	0.000000	-0.000000	-0.000000	1.526000	-3.906560	-0.228900	0.004944	0.984983	0.007263	-1.000000	-1.000000	-1.000000	-1.000000	-1.000000	-1.000000	-1.000000	146.620690	0.000000	-1.000000	-1.000000	631130.000000	1772311922.585914
-23919.255000	-33180.615000	-33005.925000	-18927.945000	0.000000	0.000000	0.000000	0.000000	-1.230053	-0.170083	-2.326202	-4.133030	0.000000	0.000000	-0.000000	-0.000000	1.526000	-3.906560	-0.228900	0.004944	0.984983	0.007263	-1.000000	-1.000000	-1.000000	-1.000000	-1.000000	-1.000000	-1.000000	146.620690	0.000000	-1.000000	-1.000000	631131.000000	1772311922.589986
-23935.905000	-33180.255000	-33018.930000	-18931.140000	0.000000	0.000000	0.000000	0.000000	-6.495143	-10.993981	-5.905302	-6.846139	0.000000	0.000000	-0.000000	-0.000000	1.526000	-3.906560	-0.228900	0.004944	0.984983	0.007263	-1.000000	-1.000000	-1.000000	-1.000000	-1.000000	-1.000000	-1.000000	146.620690	0.000000	-1.000000	-1.000000	631132.000000	1772311922.589989
-23932.530000	-33190.200000	-33014.745000	-18916.515000	0.000000	0.000000	0.000000	0.000000	-8.791321	-16.700173	-6.023142	-4.639287	0.000000	0.000000	-0.000000	-0.000000	1.800680	0.091560	-0.183120	0.005432	0.984434	0.007935	-1.000000	-1.000000	-1.000000	-1.000000	-1.000000	-1.000000	-1.000000	146.620690	0.000000	-1.000000	-1.000000	631133.000000	1772311922.597036
-23927.265000	-33181.785000	-33006.780000	-18908.595000	0.000000	0.000000	0.000000	0.000000	-6.730615	-14.336233	-2.646613	1.890033	0.000000	0.000000	-0.000000	-0.000000	1.800680	0.091560	-0.183120	0.005432	0.984434	0.007935	-1.000000	-1.000000	-1.000000	-1.000000	-1.000000	-1.000000	-1.000000	146.620690	0.000000	-1.000000	-1.000000	631134.000000	1772311922.597039
-23912.190000	-33149.070000	-32991.795000	-18897.840000	0.000000	0.000000	0.000000	0.000000	-0.760180	-5.003109	2.740150	8.978514	0.000000	0.000000	-0.000000	-0.000000	1.800680	0.091560	-0.183120	0.005432	0.984434	0.007935	-1.000000	-1.000000	-1.000000	-1.000000	-1.000000	-1.000000	-1.000000	146.620690	0.000000	-1.000000	-1.000000	631135.000000	1772311922.597886
-23911.065000	-33121.035000	-32992.290000	-18901.305000	0.000000	0.000000	0.000000	0.000000	6.766279	7.988180	7.968138	12.490430	-0.000000	0.000000	-0.000000	-0.000000	1.800680	0.091560	-0.183120	0.005432	0.984434	0.007935	-1.000000	-1.000000	-1.000000	-1.000000	-1.000000	-1.000000	-1.000000	146.620690	0.000000	-1.000000	-1.000000	631136.000000	1772311922.597888
-23919.795000	-33107.130000	-32995.845000	-18908.280000	0.000000	0.000000	0.000000	0.000000	11.801562	19.407080	10.148194	10.023754	-0.000000	0.000000	-0.000000	-0.000000	1.800680	0.091560	-0.183120	0.005432	0.984434	0.007935	-1.000000	-1.000000	-1.000000	-1.000000	-1.000000	-1.000000	-1.000000	146.620690	0.000000	-1.000000	-1.000000	631137.000000	1772311922.601907
-23937.030000	-33105.780000	-33008.490000	-18922.905000	0.000000	0.000000	0.000000	0.000000	10.745858	23.006020	7.251508	2.154267	-0.000000	0.000000	-0.000000	-0.000000	1.800680	0.091560	-0.183120	0.005432	0.984434	0.007935	-1.000000	-1.000000	-1.000000	-1.000000	-1.000000	-1.000000	-1.000000	146.620690	0.000000	-1.000000	-1.000000	631138.000000	1772311922.601910
-23937.660000	-33099.075000	-33006.960000	-18922.770000	0.000000	0.000000	0.000000	0.000000	3.623629	15.661276	0.234373	-7.505878	-0.000000	0.000000	-0.000000	-0.000000	1.800680	0.091560	-0.183120	0.005432	0.984434	0.007935	-1.000000	-1.000000	-1.000000	-1.000000	-1.000000	-1.000000	-1.000000	146.620690	0.000000	-1.000000	-1.000000	631139.000000	1772311922.606009
-23927.445000	-33085.890000	-32996.745000	-18917.865000	0.000000	0.000000	0.000000	0.000000	-4.872976	0.752740	-6.732401	-13.773871	-0.000000	0.000000	-0.000000	-0.000000	1.800680	0.091560	-0.183120	0.005432	0.984434	0.007935	-1.000000	-1.000000	-1.000000	-1.000000	-1.000000	-1.000000	-1.000000	146.620690	0.000000	-1.000000	-1.000000	631140.000000	1772311922.606012
-23901.885000	-33082.920000	-32975.640000	-18902.205000	0.000000	0.000000	0.000000	0.000000	-8.531120	-13.957275	-8.888101	-12.859794	-0.000000	0.000000	-0.000000	-0.000000	1.800680	0.091560	-0.183120	0.005432	0.984434	0.007935	-1.000000	-1.000000	-1.000000	-1.000000	-1.000000	-1.000000	-1.000000	146.620690	0.000000	-1.000000	-1.000000	631141.000000	1772311922.610043
-23905.215000	-33072.075000	-32992.515000	-18928.080000	0.000000	0.000000	0.000000	0.000000	-4.976127	-21.985423	-5.176200	-5.662992	-0.000000	0.000000	-0.000000	-0.000000	1.800680	0.091560	-0.183120	0.005432	0.984434	0.007935	-1.000000	-1.000000	-1.000000	-1.000000	-1.000000	-1.000000	-1.000000	146.620690	0.000000	-1.000000	-1.000000	631142.000000	1772311922.610046
-23952.330000	-33062.040000	-33051.015000	-18983.790000	0.000000	0.000000	0.000000	0.000000	1.060527	-21.283078	-0.737559	1.285511	-0.000000	0.000000	-0.000000	-0.000000	1.724380	0.869820	-0.259420	0.006226	0.982419	0.007324	-1.000000	-1.000000	-1.000000	-1.000000	-1.000000	-1.000000	-1.000000	146.620690	0.000000	-1.000000	-1.000000	631143.000000	1772311922.614017
-23933.070000	-33032.205000	-33039.090000	-18957.510000	0.000000	0.000000	0.000000	0.000000	2.477401	-13.412471	-1.620075	2.182478	-0.000000	0.000000	-0.000000	-0.000000	1.724380	0.869820	-0.259420	0.006226	0.982419	0.007324	-1.000000	-1.000000	-1.000000	-1.000000	-1.000000	-1.000000	-1.000000	146.620690	0.000000	-1.000000	-1.000000	631144.000000	1772311922.614020
-23886.270000	-33011.820000	-32983.155000	-18887.040000	0.000000	0.000000	0.000000	0.000000	-0.207995	-1.768705	-4.983944	1.046915	-0.000000	0.000000	-0.000000	-0.000000	1.724380	0.869820	-0.259420	0.006226	0.982419	0.007324	-1.000000	-1.000000	-1.000000	-1.000000	-1.000000	-1.000000	-1.000000	146.620690	0.000000	-1.000000	-1.000000	631145.000000	1772311922.617936
-23860.755000	-33005.070000	-32958.630000	-18864.810000	0.000000	0.000000	0.000000	0.000000	0.315419	8.975351	-1.666582	6.789266	-0.000000	0.000000	-0.000000	-0.000000	1.724380	0.869820	-0.259420	0.006226	0.982419	0.007324	-1.000000	-1.000000	-1.000000	-1.000000	-1.000000	-1.000000	-1.000000	146.620690	0.000000	-1.000000	-1.000000	631146.000000	1772311922.617939
-23873.400000	-33012.090000	-32979.420000	-18902.250000	0.000000	0.000000	0.000000	0.000000	5.974155	13.711453	9.261337	17.650357	-0.000000	0.000000	-0.000000	-0.000000	1.724380	0.869820	-0.259420	0.006226	0.982419	0.007324	-1.000000	-1.000000	-1.000000	-1.000000	-1.000000	-1.000000	-1.000000	146.620690	0.000000	-1.000000	-1.000000	631147.000000	1772311922.625165
-23930.730000	-33041.115000	-33016.275000	-18933.615000	0.000000	0.000000	0.000000	0.000000	8.906824	9.500756	16.851920	20.533566	-0.000000	0.000000	-0.000000	-0.000000	1.724380	0.869820	-0.259420	0.006226	0.982419	0.007324	-1.000000	-1.000000	-1.000000	-1.000000	-1.000000	-1.000000	-1.000000	146.620690	0.000000	-1.000000	-1.000000	631148.000000	1772311922.625168
-23947.695000	-33063.615000	-33009.975000	-18919.485000	0.000000	0.000000	0.000000	0.000000	1.299707	-2.089350	11.828713	8.299422	-0.000000	0.000000	-0.000000	-0.000000	1.724380	0.869820	-0.259420	0.006226	0.982419	0.007324	-1.000000	-1.000000	-1.000000	-1.000000	-1.000000	-1.000000	-1.000000	146.620690	0.000000	-1.000000	-1.000000	631149.000000	1772311922.626169
-23886.855000	-33055.020000	-32962.005000	-18882.765000	0.000000	0.000000	0.000000	0.000000	-12.357218	-14.417951	-1.331303	-10.007827	-0.000000	0.000000	-0.000000	-0.000000	1.724380	0.869820	-0.259420	0.006226	0.982419	0.007324	-1.000000	-1.000000	-1.000000	-1.000000	-1.000000	-1.000000	-1.000000	146.620690	0.000000	-1.000000	-1.000000	631150.000000	1772311922.626171
-23820.120000	-33033.420000	-32919.570000	-18848.205000	0.000000	0.000000	0.000000	0.000000	-16.963762	-18.547135	-9.306059	-19.135956	-0.000000	0.000000	-0.000000	-0.000000	1.724380	0.869820	-0.259420	0.006226	0.982419	0.007324	-1.000000	-1.000000	-1.000000	-1.000000	-1.000000	-1.000000	-1.000000	146.620690	0.000000	-1.000000	-1.000000	631151.000000	1772311922.630097
-23842.395000	-33042.195000	-32956.650000	-18876.600000	0.000000	0.000000	0.000000	0.000000	-5.007610	-10.422043	-6.182245	-14.099774	-0.000000	0.000000	-0.000000	-0.000000	1.724380	0.869820	-0.259420	0.006226	0.982419	0.007324	-1.000000	-1.000000	-1.000000	-1.000000	-1.000000	-1.000000	-1.000000	146.620690	0.000000	-1.000000	-1.000000	631152.000000	1772311922.630100
-23951.250000	-33045.885000	-33060.645000	-18959.220000	0.000000	0.000000	0.000000	0.000000	10.555657	4.462558	-1.543310	-5.074086	-0.000000	0.000000	-0.000000	-0.000000	-3.158820	1.800680	0.000000	0.006653	0.985776	0.000854	-1.000000	-1.000000	-1.000000	-1.000000	-1.000000	-1.000000	-1.000000	146.620690	0.000000	-1.000000	-1.000000	631153.000000	1772311922.633992
-24015.015000	-33054.930000	-33102.000000	-18979.920000	0.000000	0.000000	0.000000	0.000000	9.455980	16.114483	-8.222300	-5.005573	-0.000000	0.000000	-0.000000	-0.000000	-3.158820	1.800680	0.000000	0.006653	0.985776	0.000854	-1.000000	-1.000000	-1.000000	-1.000000	-1.000000	-1.000000	-1.000000	146.620690	0.000000	-1.000000	-1.000000	631154.000000	1772311922.633995
-23932.845000	-33054.885000	-33036.840000	-18915.030000	0.000000	0.000000	0.000000	0.000000	-8.802542	18.681228	-22.295718	-12.126452	-0.000000	0.000000	-0.000000	-0.000000	-3.158820	1.800680	0.000000	0.006653	0.985776	0.000854	-1.000000	-1.000000	-1.000000	-1.000000	-1.000000	-1.000000	-1.000000	146.620690	0.000000	-1.000000	-1.000000	631155.000000	1772311922.639717
-23891.940000	-33059.070000	-33007.815000	-18891.180000	0.000000	0.000000	0.000000	0.000000	-21.247473	13.209842	-24.538203	-11.633888	-0.000000	0.000000	-0.000000	-0.000000	-3.158820	1.800680	0.000000	0.006653	0.985776	0.000854	-1.000000	-1.000000	-1.000000	-1.000000	-1.000000	-1.000000	-1.000000	146.620690	0.000000	-1.000000	-1.000000	631156.000000	1772311922.639720
-23904.720000	-33087.420000	-33033.960000	-18940.545000	0.000000	0.000000	0.000000	0.000000	-10.916214	4.078343	-5.848076	2.335215	-0.000000	0.000000	-0.000000	-0.000000	-3.158820	1.800680	0.000000	0.006653	0.985776	0.000854	-1.000000	-1.000000	-1.000000	-1.000000	-1.000000	-1.000000	-1.000000	146.620690	0.000000	-1.000000	-1.000000	631157.000000	1772311922.642128
-23895.315000	-33091.695000	-33013.395000	-18931.005000	0.000000	0.000000	0.000000	0.000000	13.037266	-4.910666	20.760672	18.039496	-0.000000	0.000000	-0.000000	-0.000000	-3.158820	1.800680	0.000000	0.006653	0.985776	0.000854	-1.000000	-1.000000	-1.000000	-1.000000	-1.000000	-1.000000	-1.000000	146.620690	0.000000	-1.000000	-1.000000	631158.000000	1772311922.642131
-23896.980000	-33089.580000	-33004.305000	-18906.705000	0.000000	0.000000	0.000000	0.000000	30.212317	-10.498559	37.118875	23.490125	-0.000000	0.000000	-0.000000	-0.000000	-3.158820	1.800680	0.000000	0.006653	0.985776	0.000854	-1.000000	-1.000000	-1.000000	-1.000000	-1.000000	-1.000000	-1.000000	146.620690	0.000000	-1.000000	-1.000000	631159.000000	1772311922.646161
-23874.795000	-33091.920000	-32994.360000	-18908.370000	0.000000	0.000000	0.000000	0.000000	30.216223	-10.110621	36.236356	18.832637	-0.000000	0.000000	-0.000000	-0.000000	-3.158820	1.800680	0.000000	0.006653	0.985776	0.000854	-1.000000	-1.000000	-1.000000	-1.000000	-1.000000	-1.000000	-1.000000	146.620690	0.000000	-1.000000	-1.000000	631160.000000	1772311922.646164
-23906.070000	-33085.845000	-32983.380000	-18930.465000	0.000000	0.000000	0.000000	0.000000	15.950938	-4.231848	21.921042	9.139562	-0.000000	0.000000	-0.000000	-0.000000	-3.158820	1.800680	0.000000	0.006653	0.985776	0.000854	-1.000000	-1.000000	-1.000000	-1.000000	-1.000000	-1.000000	-1.000000	146.620690	0.000000	-1.000000	-1.000000	631161.000000	1772311922.650144
-23911.740000	-33080.490000	-32939.415000	-18917.145000	0.000000	0.000000	0.000000	0.000000	-4.181738	3.693530	3.283943	-2.106160	-0.000000	0.000000	-0.000000	-0.000000	-3.158820	1.800680	0.000000	0.006653	0.985776	0.000854	-1.000000	-1.000000	-1.000000	-1.000000	-1.000000	-1.000000	-1.000000	146.620690	0.000000	-1.000000	-1.000000	631162.000000	1772311922.650147
-23848.470000	-33098.805000	-32866.920000	-18899.415000	0.000000	0.000000	0.000000	0.000000	-20.300144	9.359038	-9.524298	-10.818806	-0.000000	0.000000	-0.000000	-0.000000	-5.188400	2.975700	1.403920	0.005798	0.987485	0.002502	-1.000000	-1.000000	-1.000000	-1.000000	-1.000000	-1.000000	-1.000000	146.620690	0.000000	-1.000000	-1.000000	631163.000000	1772311922.655666
-23840.595000	-33132.915000	-32911.830000	-18903.735000	0.000000	0.000000	0.000000	0.000000	-23.324052	8.947403	-12.426163	-13.084069	-0.000000	0.000000	-0.000000	-0.000000	-5.188400	2.975700	1.403920	0.005798	0.987485	0.002502	-1.000000	-1.000000	-1.000000	-1.000000	-1.000000	-1.000000	-1.000000	146.620690	0.000000	-1.000000	-1.000000	631164.000000	1772311922.655669
-23890.725000	-33156.090000	-33075.990000	-18946.215000	0.000000	0.000000	0.000000	0.000000	-14.111993	1.478349	-14.944543	-10.323620	-0.000000	0.000000	-0.000000	-0.000000	-5.188400	2.975700	1.403920	0.005798	0.987485	0.002502	-1.000000	-1.000000	-1.000000	-1.000000	-1.000000	-1.000000	-1.000000	146.620690	0.000000	-1.000000	-1.000000	631165.000000	1772311922.658278
-23915.880000	-33182.100000	-33060.645000	-18921.780000	0.000000	0.000000	0.000000	0.000000	-4.728196	-9.073468	-28.967702	-7.485576	-0.000000	0.000000	-0.000000	-0.000000	-5.188400	2.975700	1.403920	0.005798	0.987485	0.002502	-1.000000	-1.000000	-1.000000	-1.000000	-1.000000	-1.000000	-1.000000	146.620690	0.000000	-1.000000	-1.000000	631166.000000	1772311922.658280
-23879.565000	-33238.845000	-32998.050000	-18887.895000	0.000000	0.000000	0.000000	0.000000	-2.943412	-16.799427	-44.989804	-4.888188	-0.000000	0.000000	-0.000000	-0.000000	-5.188400	2.975700	1.403920	0.005798	0.987485	0.002502	-1.000000	-1.000000	-1.000000	-1.000000	-1.000000	-1.000000	-1.000000	146.620690	0.000000	-1.000000	-1.000000	631167.000000	1772311922.667472
-23867.235000	-33260.580000	-32985.945000	-18894.780000	0.000000	0.000000	0.000000	0.000000	-3.606973	-18.511903	-39.528156	0.747595	-0.000000	0.000000	-0.000000	-0.000000	-5.188400	2.975700	1.403920	0.005798	0.987485	0.002502	-1.000000	-1.000000	-1.000000	-1.000000	-1.000000	-1.000000	-1.000000	146.620690	0.000000	-1.000000	-1.000000	631168.000000	1772311922.667475
-23882.580000	-33257.565000	-33001.740000	-18891.450000	0.000000	0.000000	0.000000	0.000000	0.095725	-13.030926	-8.018095	7.919452	-0.000000	0.000000	-0.000000	-0.000000	-5.188400	2.975700	1.403920	0.005798	0.987485	0.002502	-1.000000	-1.000000	-1.000000	-1.000000	-1.000000	-1.000000	-1.000000	146.620690	0.000000	-1.000000	-1.000000	631169.000000	1772311922.667479
-23915.475000	-33273.630000	-33037.290000	-18919.440000	0.000000	0.000000	0.000000	0.000000	5.864212	-0.407789	28.426933	10.751834	-0.000000	0.000000	-0.000000	-0.000000	-5.188400	2.975700	1.403920	0.005798	0.987485	0.002502	-1.000000	-1.000000	-1.000000	-1.000000	-1.000000	-1.000000	-1.000000	146.620690	0.000000	-1.000000	-1.000000	631170.000000	1772311922.667481
-23937.615000	-33289.830000	-33064.650000	-18943.965000	0.000000	0.000000	0.000000	0.000000	7.021198	14.952164	46.122690	5.698514	-0.000000	0.000000	-0.000000	-0.000000	-5.188400	2.975700	1.403920	0.005798	0.987485	0.002502	-1.000000	-1.000000	-1.000000	-1.000000	-1.000000	-1.000000	-1.000000	146.620690	0.000000	-1.000000	-1.000000	631171.000000	1772311922.670201
-23919.030000	-33290.865000	-33045.345000	-18932.355000	0.000000	0.000000	0.000000	0.000000	2.610126	25.629174	38.996399	-4.491755	-0.000000	0.000000	-0.000000	-0.000000	-5.188400	2.975700	1.403920	0.005798	0.987485	0.002502	-1.000000	-1.000000	-1.000000	-1.000000	-1.000000	-1.000000	-1.000000	146.620690	0.000000	-1.000000	-1.000000	631172.000000	1772311922.670204
-23898.330000	-33270.390000	-33025.320000	-18918.855000	0.000000	0.000000	0.000000	0.000000	-0.999525	27.725333	19.301832	-11.751993	-0.000000	0.000000	-0.000000	-0.000000	3.769220	1.052940	1.876980	0.003662	0.979307	0.022766	-1.000000	-1.000000	-1.000000	-1.000000	-1.000000	-1.000000	-1.000000	146.620690	0.000000	-1.000000	-1.000000	631173.000000	1772311922.674177
-23886.405000	-33246.585000	-33019.830000	-18920.205000	0.000000	0.000000	0.000000	0.000000	1.811982	23.214716	2.854897	-9.949754	-0.000000	0.000000	-0.000000	-0.000000	3.769220	1.052940	1.876980	0.003662	0.979307	0.022766	-1.000000	-1.000000	-1.000000	-1.000000	-1.000000	-1.000000	-1.000000	146.620690	0.000000	-1.000000	-1.000000	631174.000000	1772311922.674179
-23900.670000	-33255.450000	-33029.505000	-18934.065000	0.000000	0.000000	0.000000	0.000000	8.798834	15.473083	-4.428151	-1.255575	-0.000000	0.000000	-0.000000	-0.000000	3.769220	1.052940	1.876980	0.003662	0.979307	0.022766	-1.000000	-1.000000	-1.000000	-1.000000	-1.000000	-1.000000	-1.000000	146.620690	0.000000	-1.000000	-1.000000	631175.000000	1772311922.678261
-23947.245000	-33257.115000	-33065.595000	-18959.085000	0.000000	0.000000	0.000000	0.000000	11.742423	5.242005	-6.867436	6.491888	-0.000000	0.000000	-0.000000	-0.000000	3.769220	1.052940	1.876980	0.003662	0.979307	0.022766	-1.000000	-1.000000	-1.000000	-1.000000	-1.000000	-1.000000	-1.000000	146.620690	0.000000	-1.000000	-1.000000	631176.000000	1772311922.678264
-23879.520000	-33245.730000	-33000.435000	-18889.920000	0.000000	0.000000	0.000000	0.000000	6.353800	-6.932395	-9.127157	8.960400	-0.000000	0.000000	-0.000000	-0.000000	3.769220	1.052940	1.876980	0.003662	0.979307	0.022766	-1.000000	-1.000000	-1.000000	-1.000000	-1.000000	-1.000000	-1.000000	146.620690	0.000000	-1.000000	-1.000000	631177.000000	1772311922.682252
-23887.395000	-33234.840000	-33008.040000	-18903.105000	0.000000	0.000000	0.000000	0.000000	-1.469290	-17.381722	-9.356791	9.182970	-0.000000	0.000000	-0.000000	-0.000000	3.769220	1.052940	1.876980	0.003662	0.979307	0.022766	-1.000000	-1.000000	-1.000000	-1.000000	-1.000000	-1.000000	-1.000000	146.620690	0.000000	-1.000000	-1.000000	631178.000000	1772311922.682255
-23914.485000	-33229.845000	-33033.465000	-18929.520000	0.000000	0.000000	0.000000	0.000000	-5.195130	-21.869923	-5.976159	9.033276	-0.000000	0.000000	-0.000000	-0.000000	3.769220	1.052940	1.876980	0.003662	0.979307	0.022766	-1.000000	-1.000000	-1.000000	-1.000000	-1.000000	-1.000000	-1.000000	146.620690	0.000000	-1.000000	-1.000000	631179.000000	1772311922.686427
-23929.605000	-33221.160000	-33045.300000	-18940.590000	0.000000	0.000000	0.000000	0.000000	-6.622512	-19.525772	-3.443194	4.869752	-0.000000	0.000000	-0.000000	-0.000000	3.769220	1.052940	1.876980	0.003662	0.979307	0.022766	-1.000000	-1.000000	-1.000000	-1.000000	-1.000000	-1.000000	-1.000000	146.620690	0.000000	-1.000000	-1.000000	631180.000000	1772311922.686429
-23918.895000	-33209.280000	-33032.070000	-18933.030000	0.000000	0.000000	0.000000	0.000000	-8.737522	-12.652792	-4.678840	-3.952021	-0.000000	0.000000	-0.000000	-0.000000	3.769220	1.052940	1.876980	0.003662	0.979307	0.022766	-1.000000	-1.000000	-1.000000	-1.000000	-1.000000	-1.000000	-1.000000	146.620690	0.000000	-1.000000	-1.000000	631181.000000	1772311922.690443
-23885.595000	-33221.205000	-32997.600000	-18900.540000	0.000000	0.000000	0.000000	0.000000	-8.860709	-4.817206	-5.740715	-11.086353	-0.000000	0.000000	-0.000000	-0.000000	3.769220	1.052940	1.876980	0.003662	0.979307	0.022766	-1.000000	-1.000000	-1.000000	-1.000000	-1.000000	-1.000000	-1.000000	146.620690	0.000000	-1.000000	-1.000000	631182.000000	1772311922.690445
-23865.705000	-33236.865000	-32982.165000	-18891.180000	0.000000	0.000000	0.000000	0.000000	-3.039681	0.205753	-1.604393	-10.145045	-0.000000	0.000000	-0.000000	-0.000000	10.865120	-3.250380	4.440660	-0.001526	0.975034	0.030517	-1.000000	-1.000000	-1.000000	-1.000000	-1.000000	-1.000000	-1.000000	146.620690	0.000000	-1.000000	-1.000000	631183.000000	1772311922.698787
-23874.435000	-33237.540000	-32990.310000	-18897.795000	0.000000	0.000000	0.000000	0.000000	6.799804	0.644239	6.363735	-2.220392	-0.000000	0.000000	-0.000000	-0.000000	10.865120	-3.250380	4.440660	-0.001526	0.975034	0.030517	-1.000000	-1.000000	-1.000000	-1.000000	-1.000000	-1.000000	-1.000000	146.620690	0.000000	-1.000000	-1.000000	631184.000000	1772311922.698790
-23892.210000	-33234.615000	-33003.630000	-18906.390000	0.000000	0.000000	0.000000	0.000000	12.869885	-1.234625	11.022414	5.132825	-0.000000	0.000000	-0.000000	-0.000000	10.865120	-3.250380	4.440660	-0.001526	0.975034	0.030517	-1.000000	-1.000000	-1.000000	-1.000000	-1.000000	-1.000000	-1.000000	146.620690	0.000000	-1.000000	-1.000000	631185.000000	1772311922.698794
-23881.320000	-33227.505000	-32990.220000	-18892.215000	0.000000	0.000000	0.000000	0.000000	9.711185	-1.367076	7.723960	6.267046	-0.000000	0.000000	-0.000000	-0.000000	10.865120	-3.250380	4.440660	-0.001526	0.975034	0.030517	-1.000000	-1.000000	-1.000000	-1.000000	-1.000000	-1.000000	-1.000000	146.620690	0.000000	-1.000000	-1.000000	631186.000000	1772311922.698796
-23874.705000	-33230.880000	-32983.290000	-18890.190000	0.000000	0.000000	0.000000	0.000000	0.329199	1.833645	-0.468344	2.363583	-0.000000	0.000000	-0.000000	-0.000000	10.865120	-3.250380	4.440660	-0.001526	0.975034	0.030517	-1.000000	-1.000000	-1.000000	-1.000000	-1.000000	-1.000000	-1.000000	146.620690	0.000000	-1.000000	-1.000000	631187.000000	1772311922.702307
-23929.470000	-33214.860000	-33033.240000	-18931.770000	0.000000	0.000000	0.000000	0.000000	-8.797405	6.563775	-7.975974	-2.890921	-0.000000	0.000000	-0.000000	-0.000000	10.865120	-3.250380	4.440660	-0.001526	0.975034	0.030517	-1.000000	-1.000000	-1.000000	-1.000000	-1.000000	-1.000000	-1.000000	146.620690	0.000000	-1.000000	-1.000000	631188.000000	1772311922.702310
-23933.790000	-33206.220000	-33037.065000	-18932.355000	0.000000	0.000000	0.000000	0.000000	-14.963045	10.248497	-13.041339	-8.023345	-0.000000	0.000000	-0.000000	-0.000000	10.865120	-3.250380	4.440660	-0.001526	0.975034	0.030517	-1.000000	-1.000000	-1.000000	-1.000000	-1.000000	-1.000000	-1.000000	146.620690	0.000000	-1.000000	-1.000000	631189.000000	1772311922.706326
-23939.370000	-33211.170000	-33039.090000	-18935.370000	0.000000	0.000000	0.000000	0.000000	-16.970925	11.068184	-14.894064	-11.335848	-0.000000	0.000000	-0.000000	-0.000000	10.865120	-3.250380	4.440660	-0.001526	0.975034	0.030517	-1.000000	-1.000000	-1.000000	-1.000000	-1.000000	-1.000000	-1.000000	146.620690	0.000000	-1.000000	-1.000000	631190.000000	1772311922.706329
-23913.630000	-33214.680000	-33010.515000	-18907.245000	0.000000	0.000000	0.000000	0.000000	-12.041705	7.822408	-10.638744	-9.270764	-0.000000	0.000000	-0.000000	-0.000000	10.865120	-3.250380	4.440660	-0.001526	0.975034	0.030517	-1.000000	-1.000000	-1.000000	-1.000000	-1.000000	-1.000000	-1.000000	146.620690	0.000000	-1.000000	-1.000000	631191.000000	1772311922.710291
-23912.640000	-33235.650000	-33011.820000	-18913.995000	0.000000	0.000000	0.000000	0.000000	0.265681	0.745534	0.560859	-0.660067	-0.000000	0.000000	-0.000000	-0.000000	10.865120	-3.250380	4.440660	-0.001526	0.975034	0.030517	-1.000000	-1.000000	-1.000000	-1.000000	-1.000000	-1.000000	-1.000000	146.620690	0.000000	-1.000000	-1.000000	631192.000000	1772311922.710294
-23928.795000	-33226.245000	-33030.270000	-18937.710000	0.000000	0.000000	0.000000	0.000000	14.303398	-7.532399	13.296872	9.575004	-0.000000	0.000000	-0.000000	-0.000000	7.523180	-2.044840	0.946120	0.010315	0.979062	0.015808	-1.000000	-1.000000	-1.000000	-1.000000	-1.000000	-1.000000	-1.000000	146.620690	0.000000	-1.000000	-1.000000	631193.000000	1772311922.714623
-23952.690000	-33206.715000	-33054.615000	-18960.165000	0.000000	0.000000	0.000000	0.000000	21.205077	-12.239325	18.925435	13.607239	-0.000000	0.000000	-0.000000	-0.000000	7.523180	-2.044840	0.946120	0.010315	0.979062	0.015808	-1.000000	-1.000000	-1.000000	-1.000000	-1.000000	-1.000000	-1.000000	146.620690	0.000000	-1.000000	-1.000000	631194.000000	1772311922.714626
-23872.770000	-33193.530000	-32972.310000	-18886.950000	0.000000	0.000000	0.000000	0.000000	18.130477	-9.584558	15.196308	9.999090	-0.000000	0.000000	-0.000000	-0.000000	7.523180	-2.044840	0.946120	0.010315	0.979062	0.015808	-1.000000	-1.000000	-1.000000	-1.000000	-1.000000	-1.000000	-1.000000	146.620690	0.000000	-1.000000	-1.000000	631195.000000	1772311922.718306
-23863.905000	-33189.120000	-32965.830000	-18878.085000	0.000000	0.000000	0.000000	0.000000	11.882300	-1.038426	9.453092	6.089716	-0.000000	0.000000	-0.000000	-0.000000	7.523180	-2.044840	0.946120	0.010315	0.979062	0.015808	-1.000000	-1.000000	-1.000000	-1.000000	-1.000000	-1.000000	-1.000000	146.620690	0.000000	-1.000000	-1.000000	631196.000000	1772311922.718308
-23905.125000	-33183.360000	-33005.430000	-18905.220000	0.000000	0.000000	0.000000	0.000000	7.384256	7.409748	6.426469	6.134930	-0.000000	0.000000	-0.000000	-0.000000	7.523180	-2.044840	0.946120	0.010315	0.979062	0.015808	-1.000000	-1.000000	-1.000000	-1.000000	-1.000000	-1.000000	-1.000000	146.620690	0.000000	-1.000000	-1.000000	631197.000000	1772311922.722427
-23937.795000	-33184.125000	-33036.120000	-18932.895000	0.000000	0.000000	0.000000	0.000000	0.191601	10.479290	0.974394	4.547309	-0.000000	0.000000	-0.000000	-0.000000	7.523180	-2.044840	0.946120	0.010315	0.979062	0.015808	-1.000000	-1.000000	-1.000000	-1.000000	-1.000000	-1.000000	-1.000000	146.620690	0.000000	-1.000000	-1.000000	631198.000000	1772311922.722431
-23983.515000	-33202.215000	-33083.685000	-18984.915000	0.000000	0.000000	0.000000	0.000000	-13.501929	6.751328	-11.364215	-4.582045	-0.000000	0.000000	-0.000000	-0.000000	7.523180	-2.044840	0.946120	0.010315	0.979062	0.015808	-1.000000	-1.000000	-1.000000	-1.000000	-1.000000	-1.000000	-1.000000	146.620690	0.000000	-1.000000	-1.000000	631199.000000	1772311922.726410
-23958.090000	-33194.700000	-33054.345000	-18957.690000	0.000000	0.000000	0.000000	0.000000	-27.690423	-1.400150	-25.025880	-17.903262	-0.000000	0.000000	-0.000000	-0.000000	7.523180	-2.044840	0.946120	0.010315	0.979062	0.015808	-1.000000	-1.000000	-1.000000	-1.000000	-1.000000	-1.000000	-1.000000	146.620690	0.000000	-1.000000	-1.000000	631200.000000	1772311922.726413
-23928.840000	-33175.080000	-33019.245000	-18918.540000	0.000000	0.000000	0.000000	0.000000	-30.352227	-8.553224	-27.902645	-23.846093	-0.000000	0.000000	-0.000000	-0.000000	7.523180	-2.044840	0.946120	0.010315	0.979062	0.015808	-1.000000	-1.000000	-1.000000	-1.000000	-1.000000	-1.000000	-1.000000	146.620690	0.000000	-1.000000	-1.000000	631201.000000	1772311922.730413
-23929.380000	-33159.330000	-33018.120000	-18925.245000	0.000000	0.000000	0.000000	0.000000	-15.668564	-9.376243	-13.685806	-14.249923	-0.000000	0.000000	-0.000000	-0.000000	7.523180	-2.044840	0.946120	0.010315	0.979062	0.015808	-1.000000	-1.000000	-1.000000	-1.000000	-1.000000	-1.000000	-1.000000	146.620690	0.000000	-1.000000	-1.000000	631202.000000	1772311922.730418
-23919.615000	-33152.220000	-33008.175000	-18923.805000	0.000000	0.000000	0.000000	0.000000	8.312778	-3.470490	9.684358	5.071488	-0.000000	0.000000	-0.000000	-0.000000	-0.137340	-1.663340	-1.358140	0.012878	0.985715	0.002441	-1.000000	-1.000000	-1.000000	-1.000000	-1.000000	-1.000000	-1.000000	146.620690	0.000000	-1.000000	-1.000000	631203.000000	1772311922.734344
-23903.280000	-33182.505000	-32991.030000	-18912.645000	0.000000	0.000000	0.000000	0.000000	27.265317	3.627413	27.592263	20.568790	-0.000000	0.000000	-0.000000	-0.000000	-0.137340	-1.663340	-1.358140	0.012878	0.985715	0.002441	-1.000000	-1.000000	-1.000000	-1.000000	-1.000000	-1.000000	-1.000000	146.620690	0.000000	-1.000000	-1.000000	631204.000000	1772311922.734347
