Channel1	Channel2	Channel3	Channel4	Channel5	Channel6	Channel7	Channel8	FilteredChannel1	FilteredChannel2	FilteredChannel3	FilteredChannel4	FilteredChannel5	FilteredChannel6	FilteredChannel7	FilteredChannel8	GyroX	GyroY	GyroZ	AccX	AccY	AccZ	PPG1	PPG2	rawPPG1	rawPPG2	rawPPG3	Hr	Hrv	Battery	Trigger	PhysicalTrigger	AutoTrigger	NumMeasurements	Timestamp
-22404.330000	-31192.560000	-31623.120000	-16019.055000	0.000000	0.000000	0.000000	0.000000	3.474539	-24.476987	1.599808	0.331311	-0.000000	0.000000	-0.000000	-0.000000	-0.213640	0.457800	0.335720	0.017639	0.984006	-0.032226	-1.000000	-1.000000	-1.000000	-1.000000	-1.000000	-1.000000	-1.000000	146.758621	0.000000	-1.000000	-1.000000	590527.000000	1772311841.131096
-22407.840000	-31198.455000	-31627.350000	-16021.665000	0.000000	0.000000	0.000000	0.000000	5.539093	-40.246561	5.270030	3.855833	-0.000000	0.000000	-0.000000	-0.000000	-0.213640	0.457800	0.335720	0.017639	0.984006	-0.032226	-1.000000	-1.000000	-1.000000	-1.000000	-1.000000	-1.000000	-1.000000	146.758621	0.000000	-1.000000	-1.000000	590528.000000	1772311841.131099
-22409.415000	-31191.705000	-31628.880000	-16021.350000	0.000000	0.000000	0.000000	0.000000	4.098560	-44.132780	5.312354	4.638091	-0.000000	0.000000	-0.000000	-0.000000	-0.213640	0.457800	0.335720	0.017639	0.984006	-0.032226	-1.000000	-1.000000	-1.000000	-1.000000	-1.000000	-1.000000	-1.000000	146.758621	0.000000	-1.000000	-1.000000	590529.000000	1772311841.135063
-22418.235000	-31181.895000	-31636.665000	-16026.930000	0.000000	0.000000	0.000000	0.000000	0.564060	-35.493187	2.472201	2.800474	-0.000000	0.000000	-0.000000	-0.000000	-0.213640	0.457800	0.335720	0.017639	0.984006	-0.032226	-1.000000	-1.000000	-1.000000	-1.000000	-1.000000	-1.000000	-1.000000	146.758621	0.000000	-1.000000	-1.000000	590530.000000	1772311841.135066
-22414.050000	-31173.300000	-31632.975000	-16021.890000	0.000000	0.000000	0.000000	0.000000	-2.744726	-17.782522	-1.028982	-0.050712	0.000000	0.000000	-0.000000	-0.000000	-0.213640	0.457800	0.335720	0.017639	0.984006	-0.032226	-1.000000	-1.000000	-1.000000	-1.000000	-1.000000	-1.000000	-1.000000	146.758621	0.000000	-1.000000	-1.000000	590531.000000	1772311841.139194
-22407.300000	-31190.085000	-31629.285000	-16022.070000	0.000000	0.000000	0.000000	0.000000	-3.793982	1.808396	-2.905418	-2.019903	0.000000	0.000000	-0.000000	-0.000000	-0.213640	0.457800	0.335720	0.017639	0.984006	-0.032226	-1.000000	-1.000000	-1.000000	-1.000000	-1.000000	-1.000000	-1.000000	146.758621	0.000000	-1.000000	-1.000000	590532.000000	1772311841.139197
-22391.595000	-31206.015000	-31617.045000	-16024.905000	0.000000	0.000000	0.000000	0.000000	-1.589274	15.075718	-1.897182	-2.205125	0.000000	0.000000	-0.000000	-0.000000	-0.213640	0.457800	0.335720	0.017639	0.984006	-0.032226	-1.000000	-1.000000	-1.000000	-1.000000	-1.000000	-1.000000	-1.000000	146.758621	0.000000	-1.000000	-1.000000	590533.000000	1772311841.143136
-22394.160000	-31218.300000	-31617.045000	-16020.855000	0.000000	0.000000	0.000000	0.000000	2.772156	17.766355	1.334146	-1.135639	0.000000	0.000000	-0.000000	-0.000000	-0.213640	0.457800	0.335720	0.017639	0.984006	-0.032226	-1.000000	-1.000000	-1.000000	-1.000000	-1.000000	-1.000000	-1.000000	146.758621	0.000000	-1.000000	-1.000000	590534.000000	1772311841.143139
-22404.195000	-31207.590000	-31626.045000	-16023.330000	0.000000	0.000000	0.000000	0.000000	5.964670	12.583207	4.176316	0.219340	0.000000	0.000000	-0.000000	-0.000000	-0.213640	0.457800	0.335720	0.017639	0.984006	-0.032226	-1.000000	-1.000000	-1.000000	-1.000000	-1.000000	-1.000000	-1.000000	146.758621	0.000000	-1.000000	-1.000000	590535.000000	1772311841.147189
-22420.575000	-31193.145000	-31636.080000	-16022.745000	0.000000	0.000000	0.000000	0.000000	4.700991	6.576761	3.797426	1.142103	0.000000	0.000000	-0.000000	-0.000000	-0.213640	0.457800	0.335720	0.017639	0.984006	-0.032226	-1.000000	-1.000000	-1.000000	-1.000000	-1.000000	-1.000000	-1.000000	146.758621	0.000000	-1.000000	-1.000000	590536.000000	1772311841.147192
-22426.110000	-31166.190000	-31640.265000	-16023.915000	0.000000	0.000000	0.000000	0.000000	-1.021840	5.248802	-0.144525	1.269022	0.000000	0.000000	-0.000000	-0.000000	0.213640	0.442540	0.778260	0.016724	0.983274	-0.028442	-1.000000	-1.000000	-1.000000	-1.000000	-1.000000	-1.000000	-1.000000	146.620690	0.000000	-1.000000	-1.000000	590537.000000	1772311841.151229
-22412.430000	-31144.680000	-31629.915000	-16013.070000	0.000000	0.000000	0.000000	0.000000	-7.073378	8.856461	-4.674332	0.922251	0.000000	0.000000	-0.000000	-0.000000	0.213640	0.442540	0.778260	0.016724	0.983274	-0.028442	-1.000000	-1.000000	-1.000000	-1.000000	-1.000000	-1.000000	-1.000000	146.620690	0.000000	-1.000000	-1.000000	590538.000000	1772311841.151232
-22396.140000	-31142.115000	-31622.490000	-16019.865000	0.000000	0.000000	0.000000	0.000000	-8.163856	12.939084	-5.897039	0.742483	0.000000	0.000000	-0.000000	-0.000000	0.213640	0.442540	0.778260	0.016724	0.983274	-0.028442	-1.000000	-1.000000	-1.000000	-1.000000	-1.000000	-1.000000	-1.000000	146.620690	0.000000	-1.000000	-1.000000	590539.000000	1772311841.155156
-22409.640000	-31141.575000	-31639.005000	-16040.205000	0.000000	0.000000	0.000000	0.000000	-3.047862	11.867158	-2.978932	0.230573	0.000000	0.000000	-0.000000	-0.000000	0.213640	0.442540	0.778260	0.016724	0.983274	-0.028442	-1.000000	-1.000000	-1.000000	-1.000000	-1.000000	-1.000000	-1.000000	146.620690	0.000000	-1.000000	-1.000000	590540.000000	1772311841.155160
-22409.775000	-31138.740000	-31643.235000	-16052.220000	0.000000	0.000000	0.000000	0.000000	3.744829	3.637282	0.848216	-1.959398	0.000000	0.000000	-0.000000	-0.000000	0.213640	0.442540	0.778260	0.016724	0.983274	-0.028442	-1.000000	-1.000000	-1.000000	-1.000000	-1.000000	-1.000000	-1.000000	146.620690	0.000000	-1.000000	-1.000000	590541.000000	1772311841.159207
-22405.365000	-31169.430000	-31635.270000	-16044.390000	0.000000	0.000000	0.000000	0.000000	7.050998	-8.754768	2.545666	-5.072939	0.000000	0.000000	-0.000000	-0.000000	0.213640	0.442540	0.778260	0.016724	0.983274	-0.028442	-1.000000	-1.000000	-1.000000	-1.000000	-1.000000	-1.000000	-1.000000	146.620690	0.000000	-1.000000	-1.000000	590542.000000	1772311841.159210
-22373.370000	-31178.070000	-31595.445000	-15990.390000	0.000000	0.000000	0.000000	0.000000	6.503572	-20.323653	3.177105	-4.907769	0.000000	0.000000	-0.000000	-0.000000	0.213640	0.442540	0.778260	0.016724	0.983274	-0.028442	-1.000000	-1.000000	-1.000000	-1.000000	-1.000000	-1.000000	-1.000000	146.620690	0.000000	-1.000000	-1.000000	590543.000000	1772311841.163285
-22382.685000	-31212.855000	-31599.810000	-15989.625000	0.000000	0.000000	0.000000	0.000000	4.927815	-26.645655	5.330918	1.848722	0.000000	0.000000	-0.000000	-0.000000	0.213640	0.442540	0.778260	0.016724	0.983274	-0.028442	-1.000000	-1.000000	-1.000000	-1.000000	-1.000000	-1.000000	-1.000000	146.620690	0.000000	-1.000000	-1.000000	590544.000000	1772311841.163287
-22413.015000	-31200.255000	-31634.280000	-16032.690000	0.000000	0.000000	0.000000	0.000000	2.604163	-24.823839	7.149744	10.593513	0.000000	0.000000	-0.000000	-0.000000	0.213640	0.442540	0.778260	0.016724	0.983274	-0.028442	-1.000000	-1.000000	-1.000000	-1.000000	-1.000000	-1.000000	-1.000000	146.620690	0.000000	-1.000000	-1.000000	590545.000000	1772311841.169591
-22411.890000	-31162.005000	-31635.000000	-16032.105000	0.000000	0.000000	0.000000	0.000000	-2.555854	-13.417041	3.725096	11.699239	0.000000	0.000000	-0.000000	-0.000000	0.213640	0.442540	0.778260	0.016724	0.983274	-0.028442	-1.000000	-1.000000	-1.000000	-1.000000	-1.000000	-1.000000	-1.000000	146.620690	0.000000	-1.000000	-1.000000	590546.000000	1772311841.169594
-22404.690000	-31158.990000	-31629.960000	-16027.110000	0.000000	0.000000	0.000000	0.000000	-8.960667	5.834647	-4.543237	3.036299	0.000000	0.000000	-0.000000	-0.000000	0.671440	0.213640	1.388660	0.015747	0.981321	-0.026245	-1.000000	-1.000000	-1.000000	-1.000000	-1.000000	-1.000000	-1.000000	146.620690	0.000000	-1.000000	-1.000000	590547.000000	1772311841.171302
-22421.655000	-31159.440000	-31646.565000	-16041.375000	0.000000	0.000000	0.000000	0.000000	-11.793265	24.799466	-11.462943	-7.840506	0.000000	0.000000	-0.000000	-0.000000	0.671440	0.213640	1.388660	0.015747	0.981321	-0.026245	-1.000000	-1.000000	-1.000000	-1.000000	-1.000000	-1.000000	-1.000000	146.620690	0.000000	-1.000000	-1.000000	590548.000000	1772311841.171304
-22424.715000	-31157.550000	-31648.230000	-16036.740000	0.000000	0.000000	0.000000	0.000000	-9.305800	33.081195	-12.679903	-13.433816	0.000000	0.000000	-0.000000	-0.000000	0.671440	0.213640	1.388660	0.015747	0.981321	-0.026245	-1.000000	-1.000000	-1.000000	-1.000000	-1.000000	-1.000000	-1.000000	146.620690	0.000000	-1.000000	-1.000000	590549.000000	1772311841.175217
-22421.070000	-31169.880000	-31645.305000	-16034.445000	0.000000	0.000000	0.000000	0.000000	-3.505007	26.622919	-8.330931	-11.541305	0.000000	0.000000	-0.000000	-0.000000	0.671440	0.213640	1.388660	0.015747	0.981321	-0.026245	-1.000000	-1.000000	-1.000000	-1.000000	-1.000000	-1.000000	-1.000000	146.620690	0.000000	-1.000000	-1.000000	590550.000000	1772311841.175220
-22412.520000	-31186.170000	-31638.915000	-16031.430000	0.000000	0.000000	0.000000	0.000000	3.285744	9.547571	-0.635382	-4.152220	0.000000	0.000000	-0.000000	-0.000000	0.671440	0.213640	1.388660	0.015747	0.981321	-0.026245	-1.000000	-1.000000	-1.000000	-1.000000	-1.000000	-1.000000	-1.000000	146.620690	0.000000	-1.000000	-1.000000	590551.000000	1772311841.180046
-22422.690000	-31183.245000	-31649.580000	-16043.535000	0.000000	0.000000	0.000000	0.000000	8.992890	-9.527209	7.136671	4.209362	0.000000	0.000000	-0.000000	-0.000000	0.671440	0.213640	1.388660	0.015747	0.981321	-0.026245	-1.000000	-1.000000	-1.000000	-1.000000	-1.000000	-1.000000	-1.000000	146.620690	0.000000	-1.000000	-1.000000	590552.000000	1772311841.180049
-22420.395000	-31175.190000	-31644.630000	-16036.245000	0.000000	0.000000	0.000000	0.000000	11.284603	-21.581625	11.458222	9.104711	0.000000	0.000000	-0.000000	-0.000000	0.671440	0.213640	1.388660	0.015747	0.981321	-0.026245	-1.000000	-1.000000	-1.000000	-1.000000	-1.000000	-1.000000	-1.000000	146.620690	0.000000	-1.000000	-1.000000	590553.000000	1772311841.183217
-22409.145000	-31154.130000	-31636.080000	-16025.940000	0.000000	0.000000	0.000000	0.000000	9.454900	-21.459028	11.056139	9.407103	0.000000	0.000000	-0.000000	-0.000000	0.671440	0.213640	1.388660	0.015747	0.981321	-0.026245	-1.000000	-1.000000	-1.000000	-1.000000	-1.000000	-1.000000	-1.000000	146.620690	0.000000	-1.000000	-1.000000	590554.000000	1772311841.183220
-22411.125000	-31144.005000	-31638.465000	-16030.575000	0.000000	0.000000	0.000000	0.000000	5.356585	-10.689605	7.525074	6.995176	0.000000	0.000000	-0.000000	-0.000000	0.671440	0.213640	1.388660	0.015747	0.981321	-0.026245	-1.000000	-1.000000	-1.000000	-1.000000	-1.000000	-1.000000	-1.000000	146.620690	0.000000	-1.000000	-1.000000	590555.000000	1772311841.188364
-22398.705000	-31160.340000	-31626.945000	-16018.830000	0.000000	0.000000	0.000000	0.000000	1.238978	3.159942	3.069163	3.721779	0.000000	0.000000	-0.000000	-0.000000	0.671440	0.213640	1.388660	0.015747	0.981321	-0.026245	-1.000000	-1.000000	-1.000000	-1.000000	-1.000000	-1.000000	-1.000000	146.620690	0.000000	-1.000000	-1.000000	590556.000000	1772311841.188367
-22382.325000	-31172.175000	-31611.870000	-16003.845000	0.000000	0.000000	0.000000	0.000000	-1.445466	11.026939	-0.520736	0.838954	0.000000	0.000000	-0.000000	-0.000000	1.739640	0.076300	1.602300	0.016602	0.980710	-0.022766	-1.000000	-1.000000	-1.000000	-1.000000	-1.000000	-1.000000	-1.000000	146.620690	0.000000	-1.000000	-1.000000	590557.000000	1772311841.191320
-22406.130000	-31136.265000	-31635.495000	-16026.930000	0.000000	0.000000	0.000000	0.000000	-2.611703	9.768353	-2.635381	-1.161686	0.000000	0.000000	-0.000000	-0.000000	1.739640	0.076300	1.602300	0.016602	0.980710	-0.022766	-1.000000	-1.000000	-1.000000	-1.000000	-1.000000	-1.000000	-1.000000	146.620690	0.000000	-1.000000	-1.000000	590558.000000	1772311841.191323
-22424.040000	-31108.230000	-31654.980000	-16048.845000	0.000000	0.000000	0.000000	0.000000	-4.452628	4.857900	-5.065502	-3.899346	0.000000	0.000000	-0.000000	-0.000000	1.739640	0.076300	1.602300	0.016602	0.980710	-0.022766	-1.000000	-1.000000	-1.000000	-1.000000	-1.000000	-1.000000	-1.000000	146.620690	0.000000	-1.000000	-1.000000	590559.000000	1772311841.198862
-22424.355000	-31102.470000	-31652.730000	-16048.800000	0.000000	0.000000	0.000000	0.000000	-8.343007	2.739512	-9.024397	-8.461021	0.000000	0.000000	-0.000000	-0.000000	1.739640	0.076300	1.602300	0.016602	0.980710	-0.022766	-1.000000	-1.000000	-1.000000	-1.000000	-1.000000	-1.000000	-1.000000	146.620690	0.000000	-1.000000	-1.000000	590560.000000	1772311841.198864
-22414.230000	-31134.690000	-31638.420000	-16033.185000	0.000000	0.000000	0.000000	0.000000	-11.313097	2.577370	-11.509437	-11.662003	0.000000	0.000000	-0.000000	-0.000000	1.739640	0.076300	1.602300	0.016602	0.980710	-0.022766	-1.000000	-1.000000	-1.000000	-1.000000	-1.000000	-1.000000	-1.000000	146.620690	0.000000	-1.000000	-1.000000	590561.000000	1772311841.199311
-22389.480000	-31181.175000	-31612.545000	-16001.505000	0.000000	0.000000	0.000000	0.000000	-8.769223	-1.639891	-8.063751	-8.533709	0.000000	0.000000	-0.000000	-0.000000	1.739640	0.076300	1.602300	0.016602	0.980710	-0.022766	-1.000000	-1.000000	-1.000000	-1.000000	-1.000000	-1.000000	-1.000000	146.620690	0.000000	-1.000000	-1.000000	590562.000000	1772311841.199314
-22386.870000	-31216.275000	-31615.020000	-16002.405000	0.000000	0.000000	0.000000	0.000000	-0.003332	-12.381494	1.370838	1.448466	0.000000	0.000000	-0.000000	-0.000000	1.739640	0.076300	1.602300	0.016602	0.980710	-0.022766	-1.000000	-1.000000	-1.000000	-1.000000	-1.000000	-1.000000	-1.000000	146.620690	0.000000	-1.000000	-1.000000	590563.000000	1772311841.203324
-22404.150000	-31193.910000	-31630.410000	-16017.885000	0.000000	0.000000	0.000000	0.000000	9.674714	-23.182143	10.696850	11.824469	0.000000	0.000000	-0.000000	-0.000000	1.739640	0.076300	1.602300	0.016602	0.980710	-0.022766	-1.000000	-1.000000	-1.000000	-1.000000	-1.000000	-1.000000	-1.000000	146.620690	0.000000	-1.000000	-1.000000	590564.000000	1772311841.203327
-22411.215000	-31187.205000	-31638.330000	-16025.895000	0.000000	0.000000	0.000000	0.000000	13.040375	-23.134945	12.793586	14.450834	0.000000	0.000000	-0.000000	-0.000000	1.739640	0.076300	1.602300	0.016602	0.980710	-0.022766	-1.000000	-1.000000	-1.000000	-1.000000	-1.000000	-1.000000	-1.000000	146.620690	0.000000	-1.000000	-1.000000	590565.000000	1772311841.207398
-22409.820000	-31180.005000	-31639.770000	-16028.595000	0.000000	0.000000	0.000000	0.000000	8.069293	-8.364922	6.521670	7.562273	0.000000	0.000000	-0.000000	-0.000000	1.739640	0.076300	1.602300	0.016602	0.980710	-0.022766	-1.000000	-1.000000	-1.000000	-1.000000	-1.000000	-1.000000	-1.000000	146.620690	0.000000	-1.000000	-1.000000	590566.000000	1772311841.207401
-22408.380000	-31153.590000	-31638.195000	-16026.975000	0.000000	0.000000	0.000000	0.000000	-0.512249	13.615824	-2.712623	-3.133575	0.000000	0.000000	-0.000000	-0.000000	3.052000	0.183120	1.266580	0.018372	0.980039	-0.020935	-1.000000	-1.000000	-1.000000	-1.000000	-1.000000	-1.000000	-1.000000	146.620690	0.000000	-1.000000	-1.000000	590567.000000	1772311841.211627
-22389.570000	-31172.400000	-31621.995000	-16021.305000	0.000000	0.000000	0.000000	0.000000	-6.225408	30.686008	-8.245349	-10.274136	0.000000	0.000000	-0.000000	-0.000000	3.052000	0.183120	1.266580	0.018372	0.980039	-0.020935	-1.000000	-1.000000	-1.000000	-1.000000	-1.000000	-1.000000	-1.000000	146.620690	0.000000	-1.000000	-1.000000	590568.000000	1772311841.211630
-22391.595000	-31209.480000	-31622.805000	-16020.270000	0.000000	0.000000	0.000000	0.000000	-5.920399	33.144668	-7.073951	-10.323757	0.000000	0.000000	-0.000000	-0.000000	3.052000	0.183120	1.266580	0.018372	0.980039	-0.020935	-1.000000	-1.000000	-1.000000	-1.000000	-1.000000	-1.000000	-1.000000	146.620690	0.000000	-1.000000	-1.000000	590569.000000	1772311841.215357
-22410.405000	-31229.910000	-31637.700000	-16028.550000	0.000000	0.000000	0.000000	0.000000	-1.873557	18.678319	-1.726443	-5.049477	0.000000	0.000000	-0.000000	-0.000000	3.052000	0.183120	1.266580	0.018372	0.980039	-0.020935	-1.000000	-1.000000	-1.000000	-1.000000	-1.000000	-1.000000	-1.000000	146.620690	0.000000	-1.000000	-1.000000	590570.000000	1772311841.215360
-22411.935000	-31253.625000	-31638.465000	-16028.145000	0.000000	0.000000	0.000000	0.000000	0.866057	-4.762094	2.475772	0.972529	0.000000	0.000000	-0.000000	-0.000000	3.052000	0.183120	1.266580	0.018372	0.980039	-0.020935	-1.000000	-1.000000	-1.000000	-1.000000	-1.000000	-1.000000	-1.000000	146.620690	0.000000	-1.000000	-1.000000	590571.000000	1772311841.219302
-22401.450000	-31264.785000	-31629.780000	-16021.440000	0.000000	0.000000	0.000000	0.000000	0.398282	-23.968641	3.048665	4.561808	0.000000	0.000000	-0.000000	-0.000000	3.052000	0.183120	1.266580	0.018372	0.980039	-0.020935	-1.000000	-1.000000	-1.000000	-1.000000	-1.000000	-1.000000	-1.000000	146.620690	0.000000	-1.000000	-1.000000	590572.000000	1772311841.219305
-22394.970000	-31266.855000	-31626.045000	-16019.730000	0.000000	0.000000	0.000000	0.000000	-0.691679	-29.414415	1.829495	5.557541	0.000000	0.000000	-0.000000	-0.000000	3.052000	0.183120	1.266580	0.018372	0.980039	-0.020935	-1.000000	-1.000000	-1.000000	-1.000000	-1.000000	-1.000000	-1.000000	146.620690	0.000000	-1.000000	-1.000000	590573.000000	1772311841.223474
-22392.315000	-31270.950000	-31622.805000	-16017.075000	0.000000	0.000000	0.000000	0.000000	0.109540	-19.995289	1.221094	4.992910	0.000000	0.000000	-0.000000	-0.000000	3.052000	0.183120	1.266580	0.018372	0.980039	-0.020935	-1.000000	-1.000000	-1.000000	-1.000000	-1.000000	-1.000000	-1.000000	146.620690	0.000000	-1.000000	-1.000000	590574.000000	1772311841.223477
-22394.565000	-31260.375000	-31625.010000	-16018.965000	0.000000	0.000000	0.000000	0.000000	2.182894	-2.047772	1.459867	3.449488	0.000000	0.000000	-0.000000	-0.000000	3.052000	0.183120	1.266580	0.018372	0.980039	-0.020935	-1.000000	-1.000000	-1.000000	-1.000000	-1.000000	-1.000000	-1.000000	146.620690	0.000000	-1.000000	-1.000000	590575.000000	1772311841.227359
-22402.440000	-31251.780000	-31631.760000	-16024.635000	0.000000	0.000000	0.000000	0.000000	3.133063	15.490117	1.264590	1.066534	0.000000	0.000000	-0.000000	-0.000000	3.052000	0.183120	1.266580	0.018372	0.980039	-0.020935	-1.000000	-1.000000	-1.000000	-1.000000	-1.000000	-1.000000	-1.000000	146.620690	0.000000	-1.000000	-1.000000	590576.000000	1772311841.227362
-22395.780000	-31265.190000	-31623.075000	-16017.750000	0.000000	0.000000	0.000000	0.000000	1.702351	25.317988	-0.098939	-1.682884	0.000000	0.000000	-0.000000	-0.000000	2.624720	0.152600	0.152600	0.020874	0.979368	-0.022766	-1.000000	-1.000000	-1.000000	-1.000000	-1.000000	-1.000000	-1.000000	146.620690	0.000000	-1.000000	-1.000000	590577.000000	1772311841.231383
-22397.715000	-31274.685000	-31624.920000	-16020.810000	0.000000	0.000000	0.000000	0.000000	-0.911320	23.661154	-1.702007	-3.603151	0.000000	0.000000	-0.000000	-0.000000	2.624720	0.152600	0.152600	0.020874	0.979368	-0.022766	-1.000000	-1.000000	-1.000000	-1.000000	-1.000000	-1.000000	-1.000000	146.620690	0.000000	-1.000000	-1.000000	590578.000000	1772311841.231386
-22391.505000	-31264.965000	-31621.995000	-16021.395000	0.000000	0.000000	0.000000	0.000000	-2.594220	12.301331	-2.266648	-3.859449	0.000000	0.000000	-0.000000	-0.000000	2.624720	0.152600	0.152600	0.020874	0.979368	-0.022766	-1.000000	-1.000000	-1.000000	-1.000000	-1.000000	-1.000000	-1.000000	146.620690	0.000000	-1.000000	-1.000000	590579.000000	1772311841.235411
-22379.445000	-31237.920000	-31610.430000	-16009.470000	0.000000	0.000000	0.000000	0.000000	-2.162714	-1.255106	-1.441053	-2.576183	0.000000	0.000000	-0.000000	-0.000000	2.624720	0.152600	0.152600	0.020874	0.979368	-0.022766	-1.000000	-1.000000	-1.000000	-1.000000	-1.000000	-1.000000	-1.000000	146.620690	0.000000	-1.000000	-1.000000	590580.000000	1772311841.235413
-22407.840000	-31174.920000	-31638.330000	-16030.620000	0.000000	0.000000	0.000000	0.000000	-0.385414	-8.173822	-0.088909	-0.581057	0.000000	0.000000	-0.000000	-0.000000	2.624720	0.152600	0.152600	0.020874	0.979368	-0.022766	-1.000000	-1.000000	-1.000000	-1.000000	-1.000000	-1.000000	-1.000000	146.620690	0.000000	-1.000000	-1.000000	590581.000000	1772311841.239493
-22425.795000	-31137.255000	-31656.015000	-16041.105000	0.000000	0.000000	0.000000	0.000000	-0.166108	-4.548212	-0.473808	0.297954	0.000000	0.000000	-0.000000	-0.000000	2.624720	0.152600	0.152600	0.020874	0.979368	-0.022766	-1.000000	-1.000000	-1.000000	-1.000000	-1.000000	-1.000000	-1.000000	146.620690	0.000000	-1.000000	-1.000000	590582.000000	1772311841.239496
-22402.485000	-31130.820000	-31631.175000	-16016.850000	0.000000	0.000000	0.000000	0.000000	-2.578299	4.565695	-3.043791	-0.542839	0.000000	0.000000	-0.000000	-0.000000	2.624720	0.152600	0.152600	0.020874	0.979368	-0.022766	-1.000000	-1.000000	-1.000000	-1.000000	-1.000000	-1.000000	-1.000000	146.620690	0.000000	-1.000000	-1.000000	590583.000000	1772311841.244157
-22402.530000	-31113.810000	-31630.905000	-16018.245000	0.000000	0.000000	0.000000	0.000000	-4.014295	8.841614	-4.081124	-0.638913	0.000000	0.000000	-0.000000	-0.000000	2.624720	0.152600	0.152600	0.020874	0.979368	-0.022766	-1.000000	-1.000000	-1.000000	-1.000000	-1.000000	-1.000000	-1.000000	146.620690	0.000000	-1.000000	-1.000000	590584.000000	1772311841.244160
-22432.140000	-31108.860000	-31658.940000	-16045.065000	0.000000	0.000000	0.000000	0.000000	-1.946773	2.643422	-1.389999	1.087025	0.000000	0.000000	-0.000000	-0.000000	2.624720	0.152600	0.152600	0.020874	0.979368	-0.022766	-1.000000	-1.000000	-1.000000	-1.000000	-1.000000	-1.000000	-1.000000	146.620690	0.000000	-1.000000	-1.000000	590585.000000	1772311841.247438
-22435.920000	-31138.515000	-31663.395000	-16049.700000	0.000000	0.000000	0.000000	0.000000	0.884325	-11.242377	1.841799	1.836055	0.000000	0.000000	-0.000000	-0.000000	2.624720	0.152600	0.152600	0.020874	0.979368	-0.022766	-1.000000	-1.000000	-1.000000	-1.000000	-1.000000	-1.000000	-1.000000	146.620690	0.000000	-1.000000	-1.000000	590586.000000	1772311841.247441
-22422.240000	-31163.580000	-31648.500000	-16033.140000	0.000000	0.000000	0.000000	0.000000	1.973707	-26.287844	2.841922	0.338421	0.000000	0.000000	-0.000000	-0.000000	2.334780	0.381500	-0.854560	0.022461	0.980161	-0.024414	-1.000000	-1.000000	-1.000000	-1.000000	-1.000000	-1.000000	-1.000000	146.620690	0.000000	-1.000000	-1.000000	590587.000000	1772311841.252925
-22415.355000	-31140.495000	-31647.690000	-16040.880000	0.000000	0.000000	0.000000	0.000000	2.853909	-35.043409	3.100265	-0.767265	0.000000	0.000000	-0.000000	-0.000000	2.334780	0.381500	-0.854560	0.022461	0.980161	-0.024414	-1.000000	-1.000000	-1.000000	-1.000000	-1.000000	-1.000000	-1.000000	146.620690	0.000000	-1.000000	-1.000000	590588.000000	1772311841.252928
-22402.350000	-31128.705000	-31637.655000	-16034.220000	0.000000	0.000000	0.000000	0.000000	5.265062	-30.568020	4.429520	0.357453	0.000000	0.000000	-0.000000	-0.000000	2.334780	0.381500	-0.854560	0.022461	0.980161	-0.024414	-1.000000	-1.000000	-1.000000	-1.000000	-1.000000	-1.000000	-1.000000	146.620690	0.000000	-1.000000	-1.000000	590589.000000	1772311841.255517
-22404.645000	-31163.805000	-31637.880000	-16026.930000	0.000000	0.000000	0.000000	0.000000	7.981097	-13.019933	6.054313	2.724625	0.000000	0.000000	-0.000000	-0.000000	2.334780	0.381500	-0.854560	0.022461	0.980161	-0.024414	-1.000000	-1.000000	-1.000000	-1.000000	-1.000000	-1.000000	-1.000000	146.620690	0.000000	-1.000000	-1.000000	590590.000000	1772311841.255520
-22401.990000	-31170.780000	-31634.415000	-16024.455000	0.000000	0.000000	0.000000	0.000000	8.177735	7.622188	6.043241	4.665310	0.000000	0.000000	-0.000000	-0.000000	2.334780	0.381500	-0.854560	0.022461	0.980161	-0.024414	-1.000000	-1.000000	-1.000000	-1.000000	-1.000000	-1.000000	-1.000000	146.620690	0.000000	-1.000000	-1.000000	590591.000000	1772311841.259599
-22401.630000	-31186.755000	-31631.670000	-16024.680000	0.000000	0.000000	0.000000	0.000000	4.470226	20.719814	3.479756	4.854243	0.000000	0.000000	-0.000000	-0.000000	2.334780	0.381500	-0.854560	0.022461	0.980161	-0.024414	-1.000000	-1.000000	-1.000000	-1.000000	-1.000000	-1.000000	-1.000000	146.620690	0.000000	-1.000000	-1.000000	590592.000000	1772311841.259603
-22396.140000	-31200.795000	-31625.190000	-16019.055000	0.000000	0.000000	0.000000	0.000000	-1.587053	23.150258	-0.637255	2.802066	0.000000	0.000000	-0.000000	-0.000000	2.334780	0.381500	-0.854560	0.022461	0.980161	-0.024414	-1.000000	-1.000000	-1.000000	-1.000000	-1.000000	-1.000000	-1.000000	146.620690	0.000000	-1.000000	-1.000000	590593.000000	1772311841.263492
-22374.270000	-31216.230000	-31602.015000	-15992.910000	0.000000	0.000000	0.000000	0.000000	-6.516743	17.899130	-3.940055	-0.103715	0.000000	0.000000	-0.000000	-0.000000	2.334780	0.381500	-0.854560	0.022461	0.980161	-0.024414	-1.000000	-1.000000	-1.000000	-1.000000	-1.000000	-1.000000	-1.000000	146.620690	0.000000	-1.000000	-1.000000	590594.000000	1772311841.263495
-22385.790000	-31205.880000	-31615.380000	-16003.665000	0.000000	0.000000	0.000000	0.000000	-7.749291	10.230937	-4.758769	-1.783720	0.000000	0.000000	-0.000000	-0.000000	2.334780	0.381500	-0.854560	0.022461	0.980161	-0.024414	-1.000000	-1.000000	-1.000000	-1.000000	-1.000000	-1.000000	-1.000000	146.620690	0.000000	-1.000000	-1.000000	590595.000000	1772311841.267569
-22426.470000	-31187.025000	-31656.465000	-16043.085000	0.000000	0.000000	0.000000	0.000000	-6.890974	5.356326	-4.922327	-3.129936	0.000000	0.000000	-0.000000	-0.000000	2.334780	0.381500	-0.854560	0.022461	0.980161	-0.024414	-1.000000	-1.000000	-1.000000	-1.000000	-1.000000	-1.000000	-1.000000	146.620690	0.000000	-1.000000	-1.000000	590596.000000	1772311841.267573
-22419.405000	-31163.715000	-31649.580000	-16035.525000	0.000000	0.000000	0.000000	0.000000	-7.584139	5.834915	-7.503456	-6.743315	0.000000	0.000000	-0.000000	-0.000000	0.869820	0.534100	-0.930860	0.021484	0.980955	-0.026611	-1.000000	-1.000000	-1.000000	-1.000000	-1.000000	-1.000000	-1.000000	146.620690	0.000000	-1.000000	-1.000000	590597.000000	1772311841.271528
-22407.660000	-31158.315000	-31637.070000	-16019.865000	0.000000	0.000000	0.000000	0.000000	-8.873311	9.529859	-10.514098	-10.629552	0.000000	0.000000	-0.000000	-0.000000	0.869820	0.534100	-0.930860	0.021484	0.980955	-0.026611	-1.000000	-1.000000	-1.000000	-1.000000	-1.000000	-1.000000	-1.000000	146.620690	0.000000	-1.000000	-1.000000	590598.000000	1772311841.271531
-22402.575000	-31145.850000	-31625.820000	-16010.055000	0.000000	0.000000	0.000000	0.000000	-6.143272	11.196209	-8.414234	-9.291523	0.000000	0.000000	-0.000000	-0.000000	0.869820	0.534100	-0.930860	0.021484	0.980955	-0.026611	-1.000000	-1.000000	-1.000000	-1.000000	-1.000000	-1.000000	-1.000000	146.620690	0.000000	-1.000000	-1.000000	590599.000000	1772311841.275817
-22412.880000	-31133.925000	-31642.605000	-16033.005000	0.000000	0.000000	0.000000	0.000000	1.288137	7.318300	-0.336676	-1.993687	0.000000	0.000000	-0.000000	-0.000000	0.869820	0.534100	-0.930860	0.021484	0.980955	-0.026611	-1.000000	-1.000000	-1.000000	-1.000000	-1.000000	-1.000000	-1.000000	146.620690	0.000000	-1.000000	-1.000000	590600.000000	1772311841.275820
-22409.145000	-31138.515000	-31639.320000	-16027.830000	0.000000	0.000000	0.000000	0.000000	8.818642	-1.295035	8.243757	5.700268	0.000000	0.000000	-0.000000	-0.000000	0.869820	0.534100	-0.930860	0.021484	0.980955	-0.026611	-1.000000	-1.000000	-1.000000	-1.000000	-1.000000	-1.000000	-1.000000	146.620690	0.000000	-1.000000	-1.000000	590601.000000	1772311841.279594
-22408.020000	-31148.505000	-31634.190000	-16018.470000	0.000000	0.000000	0.000000	0.000000	12.110697	-11.472661	12.103864	9.145089	0.000000	0.000000	-0.000000	-0.000000	0.869820	0.534100	-0.930860	0.021484	0.980955	-0.026611	-1.000000	-1.000000	-1.000000	-1.000000	-1.000000	-1.000000	-1.000000	146.620690	0.000000	-1.000000	-1.000000	590602.000000	1772311841.279597
-22414.455000	-31183.695000	-31649.445000	-16046.910000	0.000000	0.000000	0.000000	0.000000	10.390133	-20.318257	10.448662	8.121265	0.000000	0.000000	-0.000000	-0.000000	0.869820	0.534100	-0.930860	0.021484	0.980955	-0.026611	-1.000000	-1.000000	-1.000000	-1.000000	-1.000000	-1.000000	-1.000000	146.620690	0.000000	-1.000000	-1.000000	590603.000000	1772311841.283632
-22419.450000	-31185.450000	-31653.045000	-16052.355000	0.000000	0.000000	0.000000	0.000000	5.220846	-25.451347	5.016202	3.741191	0.000000	0.000000	-0.000000	-0.000000	0.869820	0.534100	-0.930860	0.021484	0.980955	-0.026611	-1.000000	-1.000000	-1.000000	-1.000000	-1.000000	-1.000000	-1.000000	146.620690	0.000000	-1.000000	-1.000000	590604.000000	1772311841.283635
-22403.340000	-31173.570000	-31635.315000	-16029.180000	0.000000	0.000000	0.000000	0.000000	-0.629690	-23.733714	-1.142414	-1.596434	0.000000	0.000000	-0.000000	-0.000000	0.869820	0.534100	-0.930860	0.021484	0.980955	-0.026611	-1.000000	-1.000000	-1.000000	-1.000000	-1.000000	-1.000000	-1.000000	146.620690	0.000000	-1.000000	-1.000000	590605.000000	1772311841.287540
-22391.775000	-31144.320000	-31625.505000	-16016.535000	0.000000	0.000000	0.000000	0.000000	-3.813055	-12.595637	-4.132753	-3.448770	0.000000	0.000000	-0.000000	-0.000000	0.869820	0.534100	-0.930860	0.021484	0.980955	-0.026611	-1.000000	-1.000000	-1.000000	-1.000000	-1.000000	-1.000000	-1.000000	146.620690	0.000000	-1.000000	-1.000000	590606.000000	1772311841.287543
-22414.815000	-31119.795000	-31649.040000	-16037.280000	0.000000	0.000000	0.000000	0.000000	-3.403972	5.950520	-3.004423	-0.476922	0.000000	0.000000	-0.000000	-0.000000	-0.015260	0.289940	-1.327620	0.021851	0.982236	-0.026062	-1.000000	-1.000000	-1.000000	-1.000000	-1.000000	-1.000000	-1.000000	146.620690	0.000000	-1.000000	-1.000000	590607.000000	1772311841.291598
-22417.155000	-31113.315000	-31649.760000	-16038.630000	0.000000	0.000000	0.000000	0.000000	-2.340592	24.113941	-1.210886	2.987451	0.000000	0.000000	-0.000000	-0.000000	-0.015260	0.289940	-1.327620	0.021851	0.982236	-0.026062	-1.000000	-1.000000	-1.000000	-1.000000	-1.000000	-1.000000	-1.000000	146.620690	0.000000	-1.000000	-1.000000	590608.000000	1772311841.291601
-22409.370000	-31097.790000	-31642.290000	-16031.340000	0.000000	0.000000	0.000000	0.000000	-2.932587	32.663700	-1.425375	2.986162	0.000000	0.000000	-0.000000	-0.000000	-0.015260	0.289940	-1.327620	0.021851	0.982236	-0.026062	-1.000000	-1.000000	-1.000000	-1.000000	-1.000000	-1.000000	-1.000000	146.620690	0.000000	-1.000000	-1.000000	590609.000000	1772311841.295675
-22398.795000	-31062.915000	-31631.040000	-16031.160000	0.000000	0.000000	0.000000	0.000000	-3.558165	28.049610	-2.123810	0.431259	0.000000	0.000000	-0.000000	-0.000000	-0.015260	0.289940	-1.327620	0.021851	0.982236	-0.026062	-1.000000	-1.000000	-1.000000	-1.000000	-1.000000	-1.000000	-1.000000	146.620690	0.000000	-1.000000	-1.000000	590610.000000	1772311841.295678
-22392.315000	-31055.265000	-31629.060000	-16041.915000	0.000000	0.000000	0.000000	0.000000	-1.855780	14.509113	-0.983876	-2.083617	0.000000	0.000000	-0.000000	-0.000000	-0.015260	0.289940	-1.327620	0.021851	0.982236	-0.026062	-1.000000	-1.000000	-1.000000	-1.000000	-1.000000	-1.000000	-1.000000	146.620690	0.000000	-1.000000	-1.000000	590611.000000	1772311841.299698
-22394.475000	-31064.895000	-31628.835000	-16031.565000	0.000000	0.000000	0.000000	0.000000	1.637490	-1.618682	1.544231	-3.445806	0.000000	0.000000	-0.000000	-0.000000	-0.015260	0.289940	-1.327620	0.021851	0.982236	-0.026062	-1.000000	-1.000000	-1.000000	-1.000000	-1.000000	-1.000000	-1.000000	146.620690	0.000000	-1.000000	-1.000000	590612.000000	1772311841.299701
-22409.280000	-31057.965000	-31639.500000	-16025.175000	0.000000	0.000000	0.000000	0.000000	3.881032	-16.096470	2.960657	-3.111759	-0.000000	0.000000	-0.000000	-0.000000	-0.015260	0.289940	-1.327620	0.021851	0.982236	-0.026062	-1.000000	-1.000000	-1.000000	-1.000000	-1.000000	-1.000000	-1.000000	146.620690	0.000000	-1.000000	-1.000000	590613.000000	1772311841.303685
-22418.460000	-31063.545000	-31648.635000	-16030.530000	0.000000	0.000000	0.000000	0.000000	2.356979	-25.511347	1.411060	-1.046809	-0.000000	0.000000	-0.000000	-0.000000	-0.015260	0.289940	-1.327620	0.021851	0.982236	-0.026062	-1.000000	-1.000000	-1.000000	-1.000000	-1.000000	-1.000000	-1.000000	146.620690	0.000000	-1.000000	-1.000000	590614.000000	1772311841.303688
-22417.110000	-31047.930000	-31649.310000	-16038.315000	0.000000	0.000000	0.000000	0.000000	-2.088217	-26.945627	-2.402769	1.060777	-0.000000	0.000000	-0.000000	-0.000000	-0.015260	0.289940	-1.327620	0.021851	0.982236	-0.026062	-1.000000	-1.000000	-1.000000	-1.000000	-1.000000	-1.000000	-1.000000	146.620690	0.000000	-1.000000	-1.000000	590615.000000	1772311841.307740
-22407.705000	-31043.700000	-31639.590000	-16031.970000	0.000000	0.000000	0.000000	0.000000	-5.531910	-19.845916	-5.377948	1.412925	-0.000000	0.000000	-0.000000	-0.000000	-0.015260	0.289940	-1.327620	0.021851	0.982236	-0.026062	-1.000000	-1.000000	-1.000000	-1.000000	-1.000000	-1.000000	-1.000000	146.620690	0.000000	-1.000000	-1.000000	590616.000000	1772311841.307742
-22406.175000	-31049.595000	-31640.490000	-16031.250000	0.000000	0.000000	0.000000	0.000000	-4.690347	-7.386765	-4.702488	0.422816	-0.000000	0.000000	-0.000000	-0.000000	0.427280	0.869820	-1.358140	0.021789	0.981687	-0.023193	-1.000000	-1.000000	-1.000000	-1.000000	-1.000000	-1.000000	-1.000000	146.620690	0.000000	-1.000000	-1.000000	590617.000000	1772311841.311744
-22404.870000	-31081.365000	-31636.980000	-16029.090000	0.000000	0.000000	0.000000	0.000000	-0.104145	4.048854	-0.670229	-0.311684	-0.000000	0.000000	-0.000000	-0.000000	0.427280	0.869820	-1.358140	0.021789	0.981687	-0.023193	-1.000000	-1.000000	-1.000000	-1.000000	-1.000000	-1.000000	-1.000000	146.620690	0.000000	-1.000000	-1.000000	590618.000000	1772311841.311747
-22394.655000	-31124.655000	-31625.505000	-16022.655000	0.000000	0.000000	0.000000	0.000000	4.938845	8.303697	4.055387	-0.030770	-0.000000	0.000000	-0.000000	-0.000000	0.427280	0.869820	-1.358140	0.021789	0.981687	-0.023193	-1.000000	-1.000000	-1.000000	-1.000000	-1.000000	-1.000000	-1.000000	146.620690	0.000000	-1.000000	-1.000000	590619.000000	1772311841.315656
-22404.240000	-31162.545000	-31633.380000	-16025.265000	0.000000	0.000000	0.000000	0.000000	7.474725	3.921286	6.936225	0.903461	-0.000000	0.000000	-0.000000	-0.000000	0.427280	0.869820	-1.358140	0.021789	0.981687	-0.023193	-1.000000	-1.000000	-1.000000	-1.000000	-1.000000	-1.000000	-1.000000	146.620690	0.000000	-1.000000	-1.000000	590620.000000	1772311841.315660
-22403.070000	-31192.335000	-31632.030000	-16018.920000	0.000000	0.000000	0.000000	0.000000	6.175753	-4.317121	6.457118	1.587217	-0.000000	0.000000	-0.000000	-0.000000	0.427280	0.869820	-1.358140	0.021789	0.981687	-0.023193	-1.000000	-1.000000	-1.000000	-1.000000	-1.000000	-1.000000	-1.000000	146.620690	0.000000	-1.000000	-1.000000	590621.000000	1772311841.319583
-22399.695000	-31212.585000	-31631.220000	-16016.760000	0.000000	0.000000	0.000000	0.000000	1.911185	-8.894148	2.833095	1.475967	-0.000000	0.000000	-0.000000	-0.000000	0.427280	0.869820	-1.358140	0.021789	0.981687	-0.023193	-1.000000	-1.000000	-1.000000	-1.000000	-1.000000	-1.000000	-1.000000	146.620690	0.000000	-1.000000	-1.000000	590622.000000	1772311841.319586
-22395.960000	-31233.015000	-31631.220000	-16017.885000	0.000000	0.000000	0.000000	0.000000	-2.533482	-5.297203	-1.765159	0.674020	-0.000000	0.000000	-0.000000	-0.000000	0.427280	0.869820	-1.358140	0.021789	0.981687	-0.023193	-1.000000	-1.000000	-1.000000	-1.000000	-1.000000	-1.000000	-1.000000	146.620690	0.000000	-1.000000	-1.000000	590623.000000	1772311841.323791
-22388.220000	-31256.280000	-31623.120000	-16009.335000	0.000000	0.000000	0.000000	0.000000	-4.628731	4.902710	-4.812466	-0.437385	-0.000000	0.000000	-0.000000	-0.000000	0.427280	0.869820	-1.358140	0.021789	0.981687	-0.023193	-1.000000	-1.000000	-1.000000	-1.000000	-1.000000	-1.000000	-1.000000	146.620690	0.000000	-1.000000	-1.000000	590624.000000	1772311841.323794
-22392.090000	-31255.740000	-31623.660000	-16006.905000	0.000000	0.000000	0.000000	0.000000	-3.925899	16.145979	-5.036873	-1.216437	-0.000000	0.000000	-0.000000	-0.000000	0.427280	0.869820	-1.358140	0.021789	0.981687	-0.023193	-1.000000	-1.000000	-1.000000	-1.000000	-1.000000	-1.000000	-1.000000	146.620690	0.000000	-1.000000	-1.000000	590625.000000	1772311841.327591
-22401.135000	-31210.020000	-31630.455000	-16015.455000	0.000000	0.000000	0.000000	0.000000	-2.146888	24.466711	-3.191077	-1.453237	-0.000000	0.000000	-0.000000	-0.000000	0.427280	0.869820	-1.358140	0.021789	0.981687	-0.023193	-1.000000	-1.000000	-1.000000	-1.000000	-1.000000	-1.000000	-1.000000	146.620690	0.000000	-1.000000	-1.000000	590626.000000	1772311841.327594
-22403.070000	-31179.690000	-31634.145000	-16027.695000	0.000000	0.000000	0.000000	0.000000	-1.395655	29.626469	-1.340189	-2.040317	-0.000000	0.000000	-0.000000	-0.000000	1.999060	0.503580	-1.602300	0.020996	0.980283	-0.020386	-1.000000	-1.000000	-1.000000	-1.000000	-1.000000	-1.000000	-1.000000	146.620690	0.000000	-1.000000	-1.000000	590627.000000	1772311841.331780
-22393.305000	-31192.605000	-31625.685000	-16024.995000	0.000000	0.000000	0.000000	0.000000	-1.713314	30.303225	-0.527297	-3.477796	-0.000000	0.000000	-0.000000	-0.000000	1.999060	0.503580	-1.602300	0.020996	0.980283	-0.020386	-1.000000	-1.000000	-1.000000	-1.000000	-1.000000	-1.000000	-1.000000	146.620690	0.000000	-1.000000	-1.000000	590628.000000	1772311841.331784
-22398.030000	-31208.085000	-31627.845000	-16020.090000	0.000000	0.000000	0.000000	0.000000	-1.424106	21.703053	0.023324	-4.302872	-0.000000	0.000000	-0.000000	-0.000000	1.999060	0.503580	-1.602300	0.020996	0.980283	-0.020386	-1.000000	-1.000000	-1.000000	-1.000000	-1.000000	-1.000000	-1.000000	146.620690	0.000000	-1.000000	-1.000000	590629.000000	1772311841.335607
-22409.955000	-31235.220000	-31640.580000	-16028.460000	0.000000	0.000000	0.000000	0.000000	-0.117160	1.905215	0.776904	-2.825808	-0.000000	0.000000	-0.000000	-0.000000	1.999060	0.503580	-1.602300	0.020996	0.980283	-0.020386	-1.000000	-1.000000	-1.000000	-1.000000	-1.000000	-1.000000	-1.000000	146.620690	0.000000	-1.000000	-1.000000	590630.000000	1772311841.335610
-22402.845000	-31220.145000	-31635.405000	-16024.140000	0.000000	0.000000	0.000000	0.000000	0.958032	-22.249076	1.005016	0.428852	-0.000000	0.000000	-0.000000	-0.000000	1.999060	0.503580	-1.602300	0.020996	0.980283	-0.020386	-1.000000	-1.000000	-1.000000	-1.000000	-1.000000	-1.000000	-1.000000	146.620690	0.000000	-1.000000	-1.000000	590631.000000	1772311841.339887
-22385.475000	-31190.940000	-31620.555000	-16011.765000	0.000000	0.000000	0.000000	0.000000	1.728394	-37.872848	0.938845	3.847733	-0.000000	0.000000	-0.000000	-0.000000	1.999060	0.503580	-1.602300	0.020996	0.980283	-0.020386	-1.000000	-1.000000	-1.000000	-1.000000	-1.000000	-1.000000	-1.000000	146.620690	0.000000	-1.000000	-1.000000	590632.000000	1772311841.339890
-22388.535000	-31191.795000	-31624.425000	-16018.155000	0.000000	0.000000	0.000000	0.000000	3.263859	-36.092038	1.825740	6.349954	-0.000000	0.000000	-0.000000	-0.000000	1.999060	0.503580	-1.602300	0.020996	0.980283	-0.020386	-1.000000	-1.000000	-1.000000	-1.000000	-1.000000	-1.000000	-1.000000	146.620690	0.000000	-1.000000	-1.000000	590633.000000	1772311841.343651
-22413.825000	-31218.615000	-31646.655000	-16040.880000	0.000000	0.000000	0.000000	0.000000	4.412530	-20.605436	2.853909	6.376093	-0.000000	0.000000	-0.000000	-0.000000	1.999060	0.503580	-1.602300	0.020996	0.980283	-0.020386	-1.000000	-1.000000	-1.000000	-1.000000	-1.000000	-1.000000	-1.000000	146.620690	0.000000	-1.000000	-1.000000	590634.000000	1772311841.343654
-22418.235000	-31204.980000	-31648.275000	-16038.990000	0.000000	0.000000	0.000000	0.000000	2.362306	-3.359590	1.561754	2.640682	-0.000000	0.000000	-0.000000	-0.000000	1.999060	0.503580	-1.602300	0.020996	0.980283	-0.020386	-1.000000	-1.000000	-1.000000	-1.000000	-1.000000	-1.000000	-1.000000	146.620690	0.000000	-1.000000	-1.000000	590635.000000	1772311841.347822
-22406.805000	-31173.570000	-31637.520000	-16027.695000	0.000000	0.000000	0.000000	0.000000	-2.365230	8.138945	-1.729766	-2.687049	-0.000000	0.000000	-0.000000	-0.000000	1.999060	0.503580	-1.602300	0.020996	0.980283	-0.020386	-1.000000	-1.000000	-1.000000	-1.000000	-1.000000	-1.000000	-1.000000	146.620690	0.000000	-1.000000	-1.000000	590636.000000	1772311841.347824
-22399.425000	-31147.740000	-31631.265000	-16021.125000	0.000000	0.000000	0.000000	0.000000	-5.312247	14.628106	-3.477227	-5.097769	-0.000000	0.000000	-0.000000	-0.000000	3.723440	0.808780	-0.534100	0.018005	0.979429	-0.017822	-1.000000	-1.000000	-1.000000	-1.000000	-1.000000	-1.000000	-1.000000	146.620690	0.000000	-1.000000	-1.000000	590637.000000	1772311841.351721
-22403.520000	-31142.565000	-31634.370000	-16025.850000	0.000000	0.000000	0.000000	0.000000	-3.668233	17.997435	-1.701310	-2.956529	-0.000000	0.000000	-0.000000	-0.000000	3.723440	0.808780	-0.534100	0.018005	0.979429	-0.017822	-1.000000	-1.000000	-1.000000	-1.000000	-1.000000	-1.000000	-1.000000	146.620690	0.000000	-1.000000	-1.000000	590638.000000	1772311841.351725
-22411.215000	-31109.670000	-31643.190000	-16037.865000	0.000000	0.000000	0.000000	0.000000	0.483906	17.316973	1.538607	0.771685	-0.000000	0.000000	-0.000000	-0.000000	3.723440	0.808780	-0.534100	0.018005	0.979429	-0.017822	-1.000000	-1.000000	-1.000000	-1.000000	-1.000000	-1.000000	-1.000000	146.620690	0.000000	-1.000000	-1.000000	590639.000000	1772311841.355826
-22410.855000	-31058.145000	-31641.840000	-16032.780000	0.000000	0.000000	0.000000	0.000000	3.239082	12.710535	3.011005	2.363523	-0.000000	0.000000	-0.000000	-0.000000	3.723440	0.808780	-0.534100	0.018005	0.979429	-0.017822	-1.000000	-1.000000	-1.000000	-1.000000	-1.000000	-1.000000	-1.000000	146.620690	0.000000	-1.000000	-1.000000	590640.000000	1772311841.355830
-22414.815000	-31034.340000	-31647.690000	-16034.265000	0.000000	0.000000	0.000000	0.000000	3.026126	6.979272	1.824800	1.300299	-0.000000	0.000000	-0.000000	-0.000000	3.723440	0.808780	-0.534100	0.018005	0.979429	-0.017822	-1.000000	-1.000000	-1.000000	-1.000000	-1.000000	-1.000000	-1.000000	146.620690	0.000000	-1.000000	-1.000000	590641.000000	1772311841.359895
-22414.140000	-31044.870000	-31648.320000	-16034.310000	0.000000	0.000000	0.000000	0.000000	1.003417	0.933846	-0.580587	-0.444702	-0.000000	0.000000	-0.000000	-0.000000	3.723440	0.808780	-0.534100	0.018005	0.979429	-0.017822	-1.000000	-1.000000	-1.000000	-1.000000	-1.000000	-1.000000	-1.000000	146.620690	0.000000	-1.000000	-1.000000	590642.000000	1772311841.359899
-22419.990000	-31096.305000	-31650.705000	-16042.095000	0.000000	0.000000	0.000000	0.000000	-0.998292	-8.565804	-2.382471	-1.432824	-0.000000	0.000000	-0.000000	-0.000000	3.723440	0.808780	-0.534100	0.018005	0.979429	-0.017822	-1.000000	-1.000000	-1.000000	-1.000000	-1.000000	-1.000000	-1.000000	146.620690	0.000000	-1.000000	-1.000000	590643.000000	1772311841.363866
-22418.910000	-31124.835000	-31649.130000	-16038.495000	0.000000	0.000000	0.000000	0.000000	-1.934730	-23.097767	-2.554324	-1.564192	-0.000000	0.000000	-0.000000	-0.000000	3.723440	0.808780	-0.534100	0.018005	0.979429	-0.017822	-1.000000	-1.000000	-1.000000	-1.000000	-1.000000	-1.000000	-1.000000	146.620690	0.000000	-1.000000	-1.000000	590644.000000	1772311841.363870
-22408.290000	-31160.205000	-31637.745000	-16021.260000	0.000000	0.000000	0.000000	0.000000	-1.421556	-37.163888	-0.949582	-0.691542	-0.000000	0.000000	-0.000000	-0.000000	3.723440	0.808780	-0.534100	0.018005	0.979429	-0.017822	-1.000000	-1.000000	-1.000000	-1.000000	-1.000000	-1.000000	-1.000000	146.620690	0.000000	-1.000000	-1.000000	590645.000000	1772311841.367897
-22403.115000	-31178.340000	-31631.445000	-16015.815000	0.000000	0.000000	0.000000	0.000000	0.610082	-41.224903	1.945739	1.647576	-0.000000	0.000000	-0.000000	-0.000000	3.723440	0.808780	-0.534100	0.018005	0.979429	-0.017822	-1.000000	-1.000000	-1.000000	-1.000000	-1.000000	-1.000000	-1.000000	146.620690	0.000000	-1.000000	-1.000000	590646.000000	1772311841.367900
-22401.855000	-31177.080000	-31630.500000	-16014.645000	0.000000	0.000000	0.000000	0.000000	3.207161	-29.580153	4.741006	4.476299	-0.000000	0.000000	-0.000000	-0.000000	4.120200	0.366240	0.076300	0.017334	0.980161	-0.019348	-1.000000	-1.000000	-1.000000	-1.000000	-1.000000	-1.000000	-1.000000	146.620690	0.000000	-1.000000	-1.000000	590647.000000	1772311841.371871
-22397.490000	-31184.190000	-31628.475000	-16017.795000	0.000000	0.000000	0.000000	0.000000	4.527364	-4.725336	5.501065	5.315863	-0.000000	0.000000	-0.000000	-0.000000	4.120200	0.366240	0.076300	0.017334	0.980161	-0.019348	-1.000000	-1.000000	-1.000000	-1.000000	-1.000000	-1.000000	-1.000000	146.620690	0.000000	-1.000000	-1.000000	590648.000000	1772311841.371875
-22394.385000	-31233.735000	-31623.165000	-16015.005000	0.000000	0.000000	0.000000	0.000000	3.545657	22.615577	3.468270	2.817314	-0.000000	0.000000	-0.000000	-0.000000	4.120200	0.366240	0.076300	0.017334	0.980161	-0.019348	-1.000000	-1.000000	-1.000000	-1.000000	-1.000000	-1.000000	-1.000000	146.620690	0.000000	-1.000000	-1.000000	590649.000000	1772311841.375833
-22401.045000	-31250.070000	-31628.205000	-16014.870000	0.000000	0.000000	0.000000	0.000000	0.685584	39.098646	-0.286452	-1.690051	-0.000000	0.000000	-0.000000	-0.000000	4.120200	0.366240	0.076300	0.017334	0.980161	-0.019348	-1.000000	-1.000000	-1.000000	-1.000000	-1.000000	-1.000000	-1.000000	146.620690	0.000000	-1.000000	-1.000000	590650.000000	1772311841.375836
-22413.690000	-31224.690000	-31640.265000	-16021.440000	0.000000	0.000000	0.000000	0.000000	-3.173808	39.602668	-4.309957	-5.671160	-0.000000	0.000000	-0.000000	-0.000000	4.120200	0.366240	0.076300	0.017334	0.980161	-0.019348	-1.000000	-1.000000	-1.000000	-1.000000	-1.000000	-1.000000	-1.000000	146.620690	0.000000	-1.000000	-1.000000	590651.000000	1772311841.379917
-22411.980000	-31201.335000	-31636.620000	-16016.445000	0.000000	0.000000	0.000000	0.000000	-6.872051	30.770362	-7.473448	-7.411193	-0.000000	0.000000	-0.000000	-0.000000	4.120200	0.366240	0.076300	0.017334	0.980161	-0.019348	-1.000000	-1.000000	-1.000000	-1.000000	-1.000000	-1.000000	-1.000000	146.620690	0.000000	-1.000000	-1.000000	590652.000000	1772311841.379921
-22404.690000	-31181.310000	-31638.645000	-16034.040000	0.000000	0.000000	0.000000	0.000000	-8.325048	21.547742	-8.343335	-6.651206	-0.000000	0.000000	-0.000000	-0.000000	4.120200	0.366240	0.076300	0.017334	0.980161	-0.019348	-1.000000	-1.000000	-1.000000	-1.000000	-1.000000	-1.000000	-1.000000	146.620690	0.000000	-1.000000	-1.000000	590653.000000	1772311841.383846
-22403.970000	-31181.895000	-31640.805000	-16043.040000	0.000000	0.000000	0.000000	0.000000	-5.845947	14.225362	-6.052933	-4.593530	-0.000000	0.000000	-0.000000	-0.000000	4.120200	0.366240	0.076300	0.017334	0.980161	-0.019348	-1.000000	-1.000000	-1.000000	-1.000000	-1.000000	-1.000000	-1.000000	146.620690	0.000000	-1.000000	-1.000000	590654.000000	1772311841.383849
-22398.255000	-31207.770000	-31633.560000	-16029.540000	0.000000	0.000000	0.000000	0.000000	-0.334743	5.225187	-1.463170	-2.258904	-0.000000	0.000000	-0.000000	-0.000000	4.120200	0.366240	0.076300	0.017334	0.980161	-0.019348	-1.000000	-1.000000	-1.000000	-1.000000	-1.000000	-1.000000	-1.000000	146.620690	0.000000	-1.000000	-1.000000	590655.000000	1772311841.388388
-22390.245000	-31265.550000	-31626.045000	-16017.435000	0.000000	0.000000	0.000000	0.000000	5.361389	-9.212048	3.718968	1.180375	-0.000000	0.000000	-0.000000	-0.000000	4.120200	0.366240	0.076300	0.017334	0.980161	-0.019348	-1.000000	-1.000000	-1.000000	-1.000000	-1.000000	-1.000000	-1.000000	146.620690	0.000000	-1.000000	-1.000000	590656.000000	1772311841.388392
-22391.370000	-31289.535000	-31625.460000	-16013.115000	0.000000	0.000000	0.000000	0.000000	8.646532	-27.608496	7.766371	6.193088	-0.000000	0.000000	-0.000000	-0.000000	3.601360	0.625660	-0.228900	0.018860	0.981199	-0.022278	-1.000000	-1.000000	-1.000000	-1.000000	-1.000000	-1.000000	-1.000000	146.620690	0.000000	-1.000000	-1.000000	590657.000000	1772311841.392000
-22392.180000	-31287.645000	-31628.790000	-16023.015000	0.000000	0.000000	0.000000	0.000000	8.153555	-41.140468	8.945360	10.293419	-0.000000	0.000000	-0.000000	-0.000000	3.601360	0.625660	-0.228900	0.018860	0.981199	-0.022278	-1.000000	-1.000000	-1.000000	-1.000000	-1.000000	-1.000000	-1.000000	146.620690	0.000000	-1.000000	-1.000000	590658.000000	1772311841.392002
-22392.765000	-31313.115000	-31626.765000	-16016.895000	0.000000	0.000000	0.000000	0.000000	4.196246	-39.891421	6.487293	10.122104	-0.000000	0.000000	-0.000000	-0.000000	3.601360	0.625660	-0.228900	0.018860	0.981199	-0.022278	-1.000000	-1.000000	-1.000000	-1.000000	-1.000000	-1.000000	-1.000000	146.620690	0.000000	-1.000000	-1.000000	590659.000000	1772311841.396076
-22391.280000	-31354.965000	-31622.850000	-16011.630000	0.000000	0.000000	0.000000	0.000000	-1.150544	-23.489069	1.739683	5.502263	-0.000000	0.000000	-0.000000	-0.000000	3.601360	0.625660	-0.228900	0.018860	0.981199	-0.022278	-1.000000	-1.000000	-1.000000	-1.000000	-1.000000	-1.000000	-1.000000	146.620690	0.000000	-1.000000	-1.000000	590660.000000	1772311841.396079
-22395.375000	-31349.610000	-31628.250000	-16017.840000	0.000000	0.000000	0.000000	0.000000	-5.340019	-1.218097	-2.793507	-0.617360	-0.000000	0.000000	-0.000000	-0.000000	3.601360	0.625660	-0.228900	0.018860	0.981199	-0.022278	-1.000000	-1.000000	-1.000000	-1.000000	-1.000000	-1.000000	-1.000000	146.620690	0.000000	-1.000000	-1.000000	590661.000000	1772311841.399973
-22403.790000	-31312.845000	-31637.070000	-16028.595000	0.000000	0.000000	0.000000	0.000000	-7.096807	18.724078	-5.661523	-5.702476	-0.000000	0.000000	-0.000000	-0.000000	3.601360	0.625660	-0.228900	0.018860	0.981199	-0.022278	-1.000000	-1.000000	-1.000000	-1.000000	-1.000000	-1.000000	-1.000000	146.620690	0.000000	-1.000000	-1.000000	590662.000000	1772311841.399976
-22407.480000	-31277.925000	-31640.715000	-16031.295000	0.000000	0.000000	0.000000	0.000000	-6.691770	33.969871	-6.830781	-8.842800	-0.000000	0.000000	-0.000000	-0.000000	3.601360	0.625660	-0.228900	0.018860	0.981199	-0.022278	-1.000000	-1.000000	-1.000000	-1.000000	-1.000000	-1.000000	-1.000000	146.620690	0.000000	-1.000000	-1.000000	590663.000000	1772311841.403906
-22404.645000	-31278.735000	-31640.580000	-16031.250000	0.000000	0.000000	0.000000	0.000000	-4.687001	42.376155	-6.325372	-9.377123	-0.000000	0.000000	-0.000000	-0.000000	3.601360	0.625660	-0.228900	0.018860	0.981199	-0.022278	-1.000000	-1.000000	-1.000000	-1.000000	-1.000000	-1.000000	-1.000000	146.620690	0.000000	-1.000000	-1.000000	590664.000000	1772311841.403908
-22398.165000	-31300.065000	-31633.515000	-16024.500000	0.000000	0.000000	0.000000	0.000000	-1.232240	38.667082	-3.789778	-6.661374	-0.000000	0.000000	-0.000000	-0.000000	3.601360	0.625660	-0.228900	0.018860	0.981199	-0.022278	-1.000000	-1.000000	-1.000000	-1.000000	-1.000000	-1.000000	-1.000000	146.620690	0.000000	-1.000000	-1.000000	590665.000000	1772311841.414258
-22394.565000	-31314.555000	-31628.745000	-16018.920000	0.000000	0.000000	0.000000	0.000000	3.160773	20.012162	0.588940	-1.171403	-0.000000	0.000000	-0.000000	-0.000000	3.601360	0.625660	-0.228900	0.018860	0.981199	-0.022278	-1.000000	-1.000000	-1.000000	-1.000000	-1.000000	-1.000000	-1.000000	146.620690	0.000000	-1.000000	-1.000000	590666.000000	1772311841.414261
-22394.430000	-31324.005000	-31626.630000	-16017.120000	0.000000	0.000000	0.000000	0.000000	6.895029	-7.544898	5.289232	4.965213	-0.000000	0.000000	-0.000000	-0.000000	2.701020	0.778260	-0.030520	0.020019	0.981016	-0.023437	-1.000000	-1.000000	-1.000000	-1.000000	-1.000000	-1.000000	-1.000000	146.620690	0.000000	-1.000000	-1.000000	590667.000000	1772311841.414265
-22392.540000	-31351.140000	-31623.840000	-16015.005000	0.000000	0.000000	0.000000	0.000000	8.087213	-31.786088	8.054839	8.894621	-0.000000	0.000000	-0.000000	-0.000000	2.701020	0.778260	-0.030520	0.020019	0.981016	-0.023437	-1.000000	-1.000000	-1.000000	-1.000000	-1.000000	-1.000000	-1.000000	146.620690	0.000000	-1.000000	-1.000000	590668.000000	1772311841.414268
-22389.165000	-31395.690000	-31619.430000	-16009.650000	0.000000	0.000000	0.000000	0.000000	6.178720	-43.563197	7.589898	8.965095	-0.000000	0.000000	-0.000000	-0.000000	2.701020	0.778260	-0.030520	0.020019	0.981016	-0.023437	-1.000000	-1.000000	-1.000000	-1.000000	-1.000000	-1.000000	-1.000000	146.620690	0.000000	-1.000000	-1.000000	590669.000000	1772311841.416054
-22377.915000	-31445.775000	-31608.630000	-15997.815000	0.000000	0.000000	0.000000	0.000000	2.532158	-41.801968	4.585531	5.921480	-0.000000	0.000000	-0.000000	-0.000000	2.701020	0.778260	-0.030520	0.020019	0.981016	-0.023437	-1.000000	-1.000000	-1.000000	-1.000000	-1.000000	-1.000000	-1.000000	146.620690	0.000000	-1.000000	-1.000000	590670.000000	1772311841.416057
-22369.905000	-31475.745000	-31602.645000	-15993.765000	0.000000	0.000000	0.000000	0.000000	-0.639951	-30.438143	0.991667	1.969014	-0.000000	0.000000	-0.000000	-0.000000	2.701020	0.778260	-0.030520	0.020019	0.981016	-0.023437	-1.000000	-1.000000	-1.000000	-1.000000	-1.000000	-1.000000	-1.000000	146.620690	0.000000	-1.000000	-1.000000	590671.000000	1772311841.419990
-22364.145000	-31469.760000	-31600.080000	-15993.855000	0.000000	0.000000	0.000000	0.000000	-2.096243	-12.941351	-1.750486	-1.362653	-0.000000	0.000000	-0.000000	-0.000000	2.701020	0.778260	-0.030520	0.020019	0.981016	-0.023437	-1.000000	-1.000000	-1.000000	-1.000000	-1.000000	-1.000000	-1.000000	146.620690	0.000000	-1.000000	-1.000000	590672.000000	1772311841.419994
-22380.075000	-31467.645000	-31615.965000	-16008.975000	0.000000	0.000000	0.000000	0.000000	-2.640188	8.602818	-3.829627	-4.200510	-0.000000	0.000000	-0.000000	-0.000000	2.701020	0.778260	-0.030520	0.020019	0.981016	-0.023437	-1.000000	-1.000000	-1.000000	-1.000000	-1.000000	-1.000000	-1.000000	146.620690	0.000000	-1.000000	-1.000000	590673.000000	1772311841.425502
-22414.410000	-31447.035000	-31647.195000	-16037.055000	0.000000	0.000000	0.000000	0.000000	-4.615697	30.177149	-6.682494	-7.562285	-0.000000	0.000000	-0.000000	-0.000000	2.701020	0.778260	-0.030520	0.020019	0.981016	-0.023437	-1.000000	-1.000000	-1.000000	-1.000000	-1.000000	-1.000000	-1.000000	146.620690	0.000000	-1.000000	-1.000000	590674.000000	1772311841.425512
-22403.205000	-31425.705000	-31635.540000	-16023.510000	0.000000	0.000000	0.000000	0.000000	-8.758824	45.287284	-10.394510	-11.025486	-0.000000	0.000000	-0.000000	-0.000000	2.701020	0.778260	-0.030520	0.020019	0.981016	-0.023437	-1.000000	-1.000000	-1.000000	-1.000000	-1.000000	-1.000000	-1.000000	146.620690	0.000000	-1.000000	-1.000000	590675.000000	1772311841.428030
-22412.340000	-31421.970000	-31643.820000	-16031.250000	0.000000	0.000000	0.000000	0.000000	-11.569311	48.168806	-11.736262	-11.455261	-0.000000	0.000000	-0.000000	-0.000000	2.701020	0.778260	-0.030520	0.020019	0.981016	-0.023437	-1.000000	-1.000000	-1.000000	-1.000000	-1.000000	-1.000000	-1.000000	146.620690	0.000000	-1.000000	-1.000000	590676.000000	1772311841.428034
-22407.660000	-31418.865000	-31636.620000	-16024.140000	0.000000	0.000000	0.000000	0.000000	-8.964781	36.633662	-7.586871	-6.467459	-0.000000	0.000000	-0.000000	-0.000000	2.060100	0.701960	-0.152600	0.019409	0.981748	-0.024536	-1.000000	-1.000000	-1.000000	-1.000000	-1.000000	-1.000000	-1.000000	146.620690	0.000000	-1.000000	-1.000000	590677.000000	1772311841.432069
-22380.120000	-31437.000000	-31609.755000	-15997.320000	0.000000	0.000000	0.000000	0.000000	-0.667385	13.622115	1.508796	2.715890	-0.000000	0.000000	-0.000000	-0.000000	2.060100	0.701960	-0.152600	0.019409	0.981748	-0.024536	-1.000000	-1.000000	-1.000000	-1.000000	-1.000000	-1.000000	-1.000000	146.620690	0.000000	-1.000000	-1.000000	590678.000000	1772311841.432073
-22386.330000	-31450.680000	-31617.990000	-16007.940000	0.000000	0.000000	0.000000	0.000000	10.040075	-13.408768	11.909043	12.353607	-0.000000	0.000000	-0.000000	-0.000000	2.060100	0.701960	-0.152600	0.019409	0.981748	-0.024536	-1.000000	-1.000000	-1.000000	-1.000000	-1.000000	-1.000000	-1.000000	146.620690	0.000000	-1.000000	-1.000000	590679.000000	1772311841.440612
-22402.440000	-31463.595000	-31633.380000	-16026.615000	0.000000	0.000000	0.000000	0.000000	17.236012	-35.237028	17.844411	17.042429	-0.000000	0.000000	-0.000000	-0.000000	2.060100	0.701960	-0.152600	0.019409	0.981748	-0.024536	-1.000000	-1.000000	-1.000000	-1.000000	-1.000000	-1.000000	-1.000000	146.620690	0.000000	-1.000000	-1.000000	590680.000000	1772311841.440633
-22393.665000	-31490.010000	-31625.370000	-16020.810000	0.000000	0.000000	0.000000	0.000000	15.980317	-44.779258	15.077412	13.095006	-0.000000	0.000000	-0.000000	-0.000000	2.060100	0.701960	-0.152600	0.019409	0.981748	-0.024536	-1.000000	-1.000000	-1.000000	-1.000000	-1.000000	-1.000000	-1.000000	146.620690	0.000000	-1.000000	-1.000000	590681.000000	1772311841.440643
-22376.385000	-31506.795000	-31610.520000	-16009.155000	0.000000	0.000000	0.000000	0.000000	7.843549	-40.450166	5.943962	3.396065	-0.000000	0.000000	-0.000000	-0.000000	2.060100	0.701960	-0.152600	0.019409	0.981748	-0.024536	-1.000000	-1.000000	-1.000000	-1.000000	-1.000000	-1.000000	-1.000000	146.620690	0.000000	-1.000000	-1.000000	590682.000000	1772311841.440645
-22382.955000	-31498.380000	-31615.155000	-16000.200000	0.000000	0.000000	0.000000	0.000000	-0.962238	-25.368505	-3.016784	-4.946625	-0.000000	0.000000	-0.000000	-0.000000	2.060100	0.701960	-0.152600	0.019409	0.981748	-0.024536	-1.000000	-1.000000	-1.000000	-1.000000	-1.000000	-1.000000	-1.000000	146.620690	0.000000	-1.000000	-1.000000	590683.000000	1772311841.444081
-22393.575000	-31511.565000	-31622.580000	-16002.945000	0.000000	0.000000	0.000000	0.000000	-6.697272	-4.724014	-8.025279	-7.717508	-0.000000	0.000000	-0.000000	-0.000000	2.060100	0.701960	-0.152600	0.019409	0.981748	-0.024536	-1.000000	-1.000000	-1.000000	-1.000000	-1.000000	-1.000000	-1.000000	146.620690	0.000000	-1.000000	-1.000000	590684.000000	1772311841.444086
-22418.280000	-31521.285000	-31645.215000	-16025.940000	0.000000	0.000000	0.000000	0.000000	-10.021660	14.645478	-9.916132	-6.538128	-0.000000	0.000000	-0.000000	-0.000000	2.060100	0.701960	-0.152600	0.019409	0.981748	-0.024536	-1.000000	-1.000000	-1.000000	-1.000000	-1.000000	-1.000000	-1.000000	146.620690	0.000000	-1.000000	-1.000000	590685.000000	1772311841.448158
-22408.920000	-31514.085000	-31632.255000	-16009.155000	0.000000	0.000000	0.000000	0.000000	-11.994863	26.367991	-10.323798	-5.134265	-0.000000	0.000000	-0.000000	-0.000000	2.060100	0.701960	-0.152600	0.019409	0.981748	-0.024536	-1.000000	-1.000000	-1.000000	-1.000000	-1.000000	-1.000000	-1.000000	146.620690	0.000000	-1.000000	-1.000000	590686.000000	1772311841.448161
-22409.100000	-31468.140000	-31633.830000	-16016.265000	0.000000	0.000000	0.000000	0.000000	-11.166622	29.223935	-8.595420	-4.319596	-0.000000	0.000000	-0.000000	-0.000000	1.831200	1.007160	-0.381500	0.020569	0.981748	-0.023926	-1.000000	-1.000000	-1.000000	-1.000000	-1.000000	-1.000000	-1.000000	146.620690	0.000000	-1.000000	-1.000000	590687.000000	1772311841.455807
-22412.385000	-31419.090000	-31641.705000	-16032.960000	0.000000	0.000000	0.000000	0.000000	-6.061245	27.393061	-3.917578	-3.115380	-0.000000	0.000000	-0.000000	-0.000000	1.831200	1.007160	-0.381500	0.020569	0.981748	-0.023926	-1.000000	-1.000000	-1.000000	-1.000000	-1.000000	-1.000000	-1.000000	146.620690	0.000000	-1.000000	-1.000000	590688.000000	1772311841.455812
-22409.730000	-31399.830000	-31643.910000	-16035.390000	0.000000	0.000000	0.000000	0.000000	1.590242	24.235123	1.850511	-1.870557	-0.000000	0.000000	-0.000000	-0.000000	1.831200	1.007160	-0.381500	0.020569	0.981748	-0.023926	-1.000000	-1.000000	-1.000000	-1.000000	-1.000000	-1.000000	-1.000000	146.620690	0.000000	-1.000000	-1.000000	590689.000000	1772311841.456226
-22404.690000	-31393.170000	-31640.895000	-16034.580000	0.000000	0.000000	0.000000	0.000000	8.327079	17.761062	6.059587	-0.838672	-0.000000	0.000000	-0.000000	-0.000000	1.831200	1.007160	-0.381500	0.020569	0.981748	-0.023926	-1.000000	-1.000000	-1.000000	-1.000000	-1.000000	-1.000000	-1.000000	146.620690	0.000000	-1.000000	-1.000000	590690.000000	1772311841.456229
-22402.665000	-31407.390000	-31636.800000	-16025.715000	0.000000	0.000000	0.000000	0.000000	11.739821	4.245832	7.832305	1.027022	-0.000000	0.000000	-0.000000	-0.000000	1.831200	1.007160	-0.381500	0.020569	0.981748	-0.023926	-1.000000	-1.000000	-1.000000	-1.000000	-1.000000	-1.000000	-1.000000	146.620690	0.000000	-1.000000	-1.000000	590691.000000	1772311841.460159
-22403.340000	-31416.435000	-31634.640000	-16019.100000	0.000000	0.000000	0.000000	0.000000	11.053807	-15.365800	7.634713	4.315227	-0.000000	0.000000	-0.000000	-0.000000	1.831200	1.007160	-0.381500	0.020569	0.981748	-0.023926	-1.000000	-1.000000	-1.000000	-1.000000	-1.000000	-1.000000	-1.000000	146.620690	0.000000	-1.000000	-1.000000	590692.000000	1772311841.460163
-22401.405000	-31418.865000	-31631.265000	-16016.760000	0.000000	0.000000	0.000000	0.000000	6.916794	-33.890239	6.030359	7.797129	0.000000	0.000000	-0.000000	-0.000000	1.831200	1.007160	-0.381500	0.020569	0.981748	-0.023926	-1.000000	-1.000000	-1.000000	-1.000000	-1.000000	-1.000000	-1.000000	146.620690	0.000000	-1.000000	-1.000000	590693.000000	1772311841.464129
-22401.225000	-31442.580000	-31631.490000	-16025.670000	0.000000	0.000000	0.000000	0.000000	1.190380	-42.693714	3.401272	8.957157	0.000000	0.000000	-0.000000	-0.000000	1.831200	1.007160	-0.381500	0.020569	0.981748	-0.023926	-1.000000	-1.000000	-1.000000	-1.000000	-1.000000	-1.000000	-1.000000	146.620690	0.000000	-1.000000	-1.000000	590694.000000	1772311841.464132
-22402.080000	-31451.490000	-31636.980000	-16038.315000	0.000000	0.000000	0.000000	0.000000	-3.907694	-38.153617	0.089497	5.867387	0.000000	0.000000	-0.000000	-0.000000	1.831200	1.007160	-0.381500	0.020569	0.981748	-0.023926	-1.000000	-1.000000	-1.000000	-1.000000	-1.000000	-1.000000	-1.000000	146.620690	0.000000	-1.000000	-1.000000	590695.000000	1772311841.468116
-22402.440000	-31439.970000	-31638.645000	-16032.645000	0.000000	0.000000	0.000000	0.000000	-6.884315	-22.535850	-3.408346	-0.627999	0.000000	0.000000	-0.000000	-0.000000	1.831200	1.007160	-0.381500	0.020569	0.981748	-0.023926	-1.000000	-1.000000	-1.000000	-1.000000	-1.000000	-1.000000	-1.000000	146.620690	0.000000	-1.000000	-1.000000	590696.000000	1772311841.468118
-22402.080000	-31414.230000	-31637.745000	-16028.370000	0.000000	0.000000	0.000000	0.000000	-7.310559	-0.618463	-6.064749	-6.609311	0.000000	0.000000	-0.000000	-0.000000	1.220800	0.824040	-0.335720	0.019958	0.981687	-0.024780	-1.000000	-1.000000	-1.000000	-1.000000	-1.000000	-1.000000	-1.000000	146.620690	0.000000	-1.000000	-1.000000	590697.000000	1772311841.472187
-22402.980000	-31398.480000	-31639.230000	-16028.820000	0.000000	0.000000	0.000000	0.000000	-5.628211	21.548324	-6.685557	-8.354425	0.000000	0.000000	-0.000000	-0.000000	1.220800	0.824040	-0.335720	0.019958	0.981687	-0.024780	-1.000000	-1.000000	-1.000000	-1.000000	-1.000000	-1.000000	-1.000000	146.620690	0.000000	-1.000000	-1.000000	590698.000000	1772311841.472189
-22398.075000	-31389.525000	-31634.595000	-16023.690000	0.000000	0.000000	0.000000	0.000000	-2.758001	36.636629	-4.923004	-5.586718	0.000000	0.000000	-0.000000	-0.000000	1.220800	0.824040	-0.335720	0.019958	0.981687	-0.024780	-1.000000	-1.000000	-1.000000	-1.000000	-1.000000	-1.000000	-1.000000	146.620690	0.000000	-1.000000	-1.000000	590699.000000	1772311841.476824
-22385.070000	-31389.030000	-31620.150000	-16007.895000	0.000000	0.000000	0.000000	0.000000	0.562710	38.701452	-1.308194	-0.533407	0.000000	0.000000	-0.000000	-0.000000	1.220800	0.824040	-0.335720	0.019958	0.981687	-0.024780	-1.000000	-1.000000	-1.000000	-1.000000	-1.000000	-1.000000	-1.000000	146.620690	0.000000	-1.000000	-1.000000	590700.000000	1772311841.476827
-22379.940000	-31369.545000	-31611.150000	-15998.580000	0.000000	0.000000	0.000000	0.000000	3.837988	27.415421	3.197859	4.503028	0.000000	0.000000	-0.000000	-0.000000	1.220800	0.824040	-0.335720	0.019958	0.981687	-0.024780	-1.000000	-1.000000	-1.000000	-1.000000	-1.000000	-1.000000	-1.000000	146.620690	0.000000	-1.000000	-1.000000	590701.000000	1772311841.480177
-22400.100000	-31356.945000	-31627.080000	-16013.655000	0.000000	0.000000	0.000000	0.000000	5.618927	9.093396	6.537604	7.223922	0.000000	0.000000	-0.000000	-0.000000	1.220800	0.824040	-0.335720	0.019958	0.981687	-0.024780	-1.000000	-1.000000	-1.000000	-1.000000	-1.000000	-1.000000	-1.000000	146.620690	0.000000	-1.000000	-1.000000	590702.000000	1772311841.480180
-22423.275000	-31362.660000	-31652.235000	-16040.655000	0.000000	0.000000	0.000000	0.000000	3.483755	-8.049525	5.583248	5.015614	0.000000	0.000000	-0.000000	-0.000000	1.220800	0.824040	-0.335720	0.019958	0.981687	-0.024780	-1.000000	-1.000000	-1.000000	-1.000000	-1.000000	-1.000000	-1.000000	146.620690	0.000000	-1.000000	-1.000000	590703.000000	1772311841.484203
-22425.435000	-31365.315000	-31655.070000	-16044.660000	0.000000	0.000000	0.000000	0.000000	-2.706535	-19.346649	-0.576033	-2.375270	0.000000	0.000000	-0.000000	-0.000000	1.220800	0.824040	-0.335720	0.019958	0.981687	-0.024780	-1.000000	-1.000000	-1.000000	-1.000000	-1.000000	-1.000000	-1.000000	146.620690	0.000000	-1.000000	-1.000000	590704.000000	1772311841.484206
-22421.430000	-31370.445000	-31654.440000	-16044.795000	0.000000	0.000000	0.000000	0.000000	-8.614324	-23.898458	-7.867072	-10.376959	0.000000	0.000000	-0.000000	-0.000000	1.220800	0.824040	-0.335720	0.019958	0.981687	-0.024780	-1.000000	-1.000000	-1.000000	-1.000000	-1.000000	-1.000000	-1.000000	146.620690	0.000000	-1.000000	-1.000000	590705.000000	1772311841.488188
-22410.630000	-31361.355000	-31644.945000	-16034.130000	0.000000	0.000000	0.000000	0.000000	-8.911204	-22.059486	-10.311070	-12.691251	0.000000	0.000000	-0.000000	-0.000000	1.220800	0.824040	-0.335720	0.019958	0.981687	-0.024780	-1.000000	-1.000000	-1.000000	-1.000000	-1.000000	-1.000000	-1.000000	146.620690	0.000000	-1.000000	-1.000000	590706.000000	1772311841.488191
-22400.910000	-31373.280000	-31634.730000	-16021.035000	0.000000	0.000000	0.000000	0.000000	-2.400472	-14.946895	-5.500679	-6.825587	0.000000	0.000000	-0.000000	-0.000000	2.166920	0.946120	-0.244160	0.019775	0.981382	-0.022156	-1.000000	-1.000000	-1.000000	-1.000000	-1.000000	-1.000000	-1.000000	146.620690	0.000000	-1.000000	-1.000000	590707.000000	1772311841.498059
-22402.980000	-31385.565000	-31637.205000	-16025.895000	0.000000	0.000000	0.000000	0.000000	6.920755	-5.556839	3.563597	3.856676	0.000000	0.000000	-0.000000	-0.000000	2.166920	0.946120	-0.244160	0.019775	0.981382	-0.022156	-1.000000	-1.000000	-1.000000	-1.000000	-1.000000	-1.000000	-1.000000	146.620690	0.000000	-1.000000	-1.000000	590708.000000	1772311841.498063
-22393.170000	-31398.885000	-31626.090000	-16016.625000	0.000000	0.000000	0.000000	0.000000	13.178727	2.167293	11.129752	12.733211	0.000000	0.000000	-0.000000	-0.000000	2.166920	0.946120	-0.244160	0.019775	0.981382	-0.022156	-1.000000	-1.000000	-1.000000	-1.000000	-1.000000	-1.000000	-1.000000	146.620690	0.000000	-1.000000	-1.000000	590709.000000	1772311841.498067
-22384.755000	-31420.125000	-31615.470000	-16004.520000	0.000000	0.000000	0.000000	0.000000	13.257490	5.964488	13.373725	15.275150	0.000000	0.000000	-0.000000	-0.000000	2.166920	0.946120	-0.244160	0.019775	0.981382	-0.022156	-1.000000	-1.000000	-1.000000	-1.000000	-1.000000	-1.000000	-1.000000	146.620690	0.000000	-1.000000	-1.000000	590710.000000	1772311841.498070
-22399.245000	-31446.630000	-31628.430000	-16012.575000	0.000000	0.000000	0.000000	0.000000	7.883313	5.874284	10.045656	11.478064	0.000000	0.000000	-0.000000	-0.000000	2.166920	0.946120	-0.244160	0.019775	0.981382	-0.022156	-1.000000	-1.000000	-1.000000	-1.000000	-1.000000	-1.000000	-1.000000	146.620690	0.000000	-1.000000	-1.000000	590711.000000	1772311841.500159
-22390.065000	-31492.395000	-31621.005000	-16006.410000	0.000000	0.000000	0.000000	0.000000	-0.399636	2.959254	2.830852	3.783066	0.000000	0.000000	-0.000000	-0.000000	2.166920	0.946120	-0.244160	0.019775	0.981382	-0.022156	-1.000000	-1.000000	-1.000000	-1.000000	-1.000000	-1.000000	-1.000000	146.620690	0.000000	-1.000000	-1.000000	590712.000000	1772311841.500161
-22385.745000	-31498.470000	-31617.900000	-16003.800000	0.000000	0.000000	0.000000	0.000000	-7.945122	-0.874401	-5.110819	-4.456965	0.000000	0.000000	-0.000000	-0.000000	2.166920	0.946120	-0.244160	0.019775	0.981382	-0.022156	-1.000000	-1.000000	-1.000000	-1.000000	-1.000000	-1.000000	-1.000000	146.620690	0.000000	-1.000000	-1.000000	590713.000000	1772311841.504151
-22410.450000	-31482.495000	-31644.045000	-16024.995000	0.000000	0.000000	0.000000	0.000000	-11.773449	-1.698842	-10.588831	-10.307480	0.000000	0.000000	-0.000000	-0.000000	2.166920	0.946120	-0.244160	0.019775	0.981382	-0.022156	-1.000000	-1.000000	-1.000000	-1.000000	-1.000000	-1.000000	-1.000000	146.620690	0.000000	-1.000000	-1.000000	590714.000000	1772311841.504154
-22410.180000	-31465.440000	-31642.605000	-16025.445000	0.000000	0.000000	0.000000	0.000000	-11.967844	4.251680	-12.767395	-12.912698	0.000000	0.000000	-0.000000	-0.000000	2.166920	0.946120	-0.244160	0.019775	0.981382	-0.022156	-1.000000	-1.000000	-1.000000	-1.000000	-1.000000	-1.000000	-1.000000	146.620690	0.000000	-1.000000	-1.000000	590715.000000	1772311841.509367
-22412.295000	-31444.200000	-31647.870000	-16034.355000	0.000000	0.000000	0.000000	0.000000	-9.668367	15.566400	-11.774161	-12.375276	0.000000	0.000000	-0.000000	-0.000000	2.166920	0.946120	-0.244160	0.019775	0.981382	-0.022156	-1.000000	-1.000000	-1.000000	-1.000000	-1.000000	-1.000000	-1.000000	146.620690	0.000000	-1.000000	-1.000000	590716.000000	1772311841.509370
-22411.620000	-31436.505000	-31644.855000	-16031.430000	0.000000	0.000000	0.000000	0.000000	-5.064810	25.356929	-7.354755	-8.601799	0.000000	0.000000	-0.000000	-0.000000	2.823100	0.579880	-0.442540	0.019470	0.980527	-0.020874	-1.000000	-1.000000	-1.000000	-1.000000	-1.000000	-1.000000	-1.000000	146.620690	0.000000	-1.000000	-1.000000	590717.000000	1772311841.512326
-22419.765000	-31391.865000	-31649.490000	-16035.390000	0.000000	0.000000	0.000000	0.000000	0.971909	27.062845	-0.443972	-2.274299	0.000000	0.000000	-0.000000	-0.000000	2.823100	0.579880	-0.442540	0.019470	0.980527	-0.020874	-1.000000	-1.000000	-1.000000	-1.000000	-1.000000	-1.000000	-1.000000	146.620690	0.000000	-1.000000	-1.000000	590718.000000	1772311841.512329
-22414.050000	-31364.505000	-31647.195000	-16035.075000	0.000000	0.000000	0.000000	0.000000	6.320519	19.847307	6.398499	4.600648	0.000000	0.000000	-0.000000	-0.000000	2.823100	0.579880	-0.442540	0.019470	0.980527	-0.020874	-1.000000	-1.000000	-1.000000	-1.000000	-1.000000	-1.000000	-1.000000	146.620690	0.000000	-1.000000	-1.000000	590719.000000	1772311841.518721
-22413.915000	-31358.340000	-31647.690000	-16034.265000	0.000000	0.000000	0.000000	0.000000	9.343137	7.110571	10.620388	9.601379	0.000000	0.000000	-0.000000	-0.000000	2.823100	0.579880	-0.442540	0.019470	0.980527	-0.020874	-1.000000	-1.000000	-1.000000	-1.000000	-1.000000	-1.000000	-1.000000	146.620690	0.000000	-1.000000	-1.000000	590720.000000	1772311841.518724
-22414.185000	-31365.000000	-31647.915000	-16033.185000	0.000000	0.000000	0.000000	0.000000	9.629559	-8.125804	11.088599	11.277381	0.000000	0.000000	-0.000000	-0.000000	2.823100	0.579880	-0.442540	0.019470	0.980527	-0.020874	-1.000000	-1.000000	-1.000000	-1.000000	-1.000000	-1.000000	-1.000000	146.620690	0.000000	-1.000000	-1.000000	590721.000000	1772311841.520295
-22408.740000	-31369.230000	-31641.435000	-16027.020000	0.000000	0.000000	0.000000	0.000000	7.546182	-23.236373	8.364141	9.735974	0.000000	0.000000	-0.000000	-0.000000	2.823100	0.579880	-0.442540	0.019470	0.980527	-0.020874	-1.000000	-1.000000	-1.000000	-1.000000	-1.000000	-1.000000	-1.000000	146.620690	0.000000	-1.000000	-1.000000	590722.000000	1772311841.520298
-22411.890000	-31347.360000	-31648.635000	-16039.665000	0.000000	0.000000	0.000000	0.000000	4.030809	-33.568452	4.023053	5.963787	0.000000	0.000000	-0.000000	-0.000000	2.823100	0.579880	-0.442540	0.019470	0.980527	-0.020874	-1.000000	-1.000000	-1.000000	-1.000000	-1.000000	-1.000000	-1.000000	146.620690	0.000000	-1.000000	-1.000000	590723.000000	1772311841.524411
-22416.390000	-31353.120000	-31653.630000	-16045.245000	0.000000	0.000000	0.000000	0.000000	0.055610	-34.059048	-0.621216	0.821518	0.000000	0.000000	-0.000000	-0.000000	2.823100	0.579880	-0.442540	0.019470	0.980527	-0.020874	-1.000000	-1.000000	-1.000000	-1.000000	-1.000000	-1.000000	-1.000000	146.620690	0.000000	-1.000000	-1.000000	590724.000000	1772311841.524414
-22422.150000	-31331.880000	-31655.655000	-16045.245000	0.000000	0.000000	0.000000	0.000000	-3.728717	-23.937758	-4.707484	-4.467697	0.000000	0.000000	-0.000000	-0.000000	2.823100	0.579880	-0.442540	0.019470	0.980527	-0.020874	-1.000000	-1.000000	-1.000000	-1.000000	-1.000000	-1.000000	-1.000000	146.620690	0.000000	-1.000000	-1.000000	590725.000000	1772311841.528398
-22415.355000	-31306.095000	-31645.035000	-16032.510000	0.000000	0.000000	0.000000	0.000000	-6.367665	-7.250423	-6.913960	-7.521440	0.000000	0.000000	-0.000000	-0.000000	2.823100	0.579880	-0.442540	0.019470	0.980527	-0.020874	-1.000000	-1.000000	-1.000000	-1.000000	-1.000000	-1.000000	-1.000000	146.620690	0.000000	-1.000000	-1.000000	590726.000000	1772311841.528401
-22397.445000	-31302.180000	-31630.770000	-16020.540000	0.000000	0.000000	0.000000	0.000000	-6.271047	9.924421	-5.742488	-6.243977	0.000000	0.000000	-0.000000	-0.000000	2.685760	0.244160	-0.335720	0.019470	0.981260	-0.022034	-1.000000	-1.000000	-1.000000	-1.000000	-1.000000	-1.000000	-1.000000	146.620690	0.000000	-1.000000	-1.000000	590727.000000	1772311841.532368
-22400.370000	-31290.930000	-31633.875000	-16022.520000	0.000000	0.000000	0.000000	0.000000	-2.801056	21.166603	-1.468266	-1.338957	0.000000	0.000000	-0.000000	-0.000000	2.685760	0.244160	-0.335720	0.019470	0.981260	-0.022034	-1.000000	-1.000000	-1.000000	-1.000000	-1.000000	-1.000000	-1.000000	146.620690	0.000000	-1.000000	-1.000000	590728.000000	1772311841.532371
-22416.345000	-31285.440000	-31649.805000	-16036.605000	0.000000	0.000000	0.000000	0.000000	1.531784	22.629519	2.654774	3.266461	0.000000	0.000000	-0.000000	-0.000000	2.685760	0.244160	-0.335720	0.019470	0.981260	-0.022034	-1.000000	-1.000000	-1.000000	-1.000000	-1.000000	-1.000000	-1.000000	146.620690	0.000000	-1.000000	-1.000000	590729.000000	1772311841.536322
-22405.995000	-31308.840000	-31639.005000	-16024.500000	0.000000	0.000000	0.000000	0.000000	3.052948	14.957191	3.214932	3.962832	0.000000	0.000000	-0.000000	-0.000000	2.685760	0.244160	-0.335720	0.019470	0.981260	-0.022034	-1.000000	-1.000000	-1.000000	-1.000000	-1.000000	-1.000000	-1.000000	146.620690	0.000000	-1.000000	-1.000000	590730.000000	1772311841.536324
-22391.280000	-31329.765000	-31624.470000	-16007.850000	0.000000	0.000000	0.000000	0.000000	1.689160	1.597626	0.917678	1.563108	0.000000	0.000000	-0.000000	-0.000000	2.685760	0.244160	-0.335720	0.019470	0.981260	-0.022034	-1.000000	-1.000000	-1.000000	-1.000000	-1.000000	-1.000000	-1.000000	146.620690	0.000000	-1.000000	-1.000000	590731.000000	1772311841.540388
-22384.170000	-31340.430000	-31616.280000	-16000.290000	0.000000	0.000000	0.000000	0.000000	0.520334	-12.199128	-0.626200	-0.252793	0.000000	0.000000	-0.000000	-0.000000	2.685760	0.244160	-0.335720	0.019470	0.981260	-0.022034	-1.000000	-1.000000	-1.000000	-1.000000	-1.000000	-1.000000	-1.000000	146.620690	0.000000	-1.000000	-1.000000	590732.000000	1772311841.540390
-22411.170000	-31336.650000	-31643.640000	-16032.645000	0.000000	0.000000	0.000000	0.000000	0.506836	-19.930740	-0.395139	-0.585980	0.000000	0.000000	-0.000000	-0.000000	2.685760	0.244160	-0.335720	0.019470	0.981260	-0.022034	-1.000000	-1.000000	-1.000000	-1.000000	-1.000000	-1.000000	-1.000000	146.620690	0.000000	-1.000000	-1.000000	590733.000000	1772311841.544390
-22425.480000	-31333.635000	-31660.920000	-16065.315000	0.000000	0.000000	0.000000	0.000000	-0.863530	-17.233802	-1.251923	-2.669334	0.000000	0.000000	-0.000000	-0.000000	2.685760	0.244160	-0.335720	0.019470	0.981260	-0.022034	-1.000000	-1.000000	-1.000000	-1.000000	-1.000000	-1.000000	-1.000000	146.620690	0.000000	-1.000000	-1.000000	590734.000000	1772311841.544393
-22406.580000	-31351.590000	-31641.660000	-16045.290000	0.000000	0.000000	0.000000	0.000000	-4.366787	-5.841315	-4.434974	-7.720685	0.000000	0.000000	-0.000000	-0.000000	2.685760	0.244160	-0.335720	0.019470	0.981260	-0.022034	-1.000000	-1.000000	-1.000000	-1.000000	-1.000000	-1.000000	-1.000000	146.620690	0.000000	-1.000000	-1.000000	590735.000000	1772311841.548812
-22376.970000	-31378.725000	-31608.855000	-15997.500000	0.000000	0.000000	0.000000	0.000000	-5.786145	6.707915	-5.759169	-9.959751	0.000000	0.000000	-0.000000	-0.000000	2.685760	0.244160	-0.335720	0.019470	0.981260	-0.022034	-1.000000	-1.000000	-1.000000	-1.000000	-1.000000	-1.000000	-1.000000	146.620690	0.000000	-1.000000	-1.000000	590736.000000	1772311841.548815
-22384.395000	-31389.075000	-31615.830000	-16000.605000	0.000000	0.000000	0.000000	0.000000	-1.487405	13.036351	-1.215896	-3.261554	0.000000	0.000000	-0.000000	-0.000000	2.517900	0.274680	-0.534100	0.019714	0.981443	-0.022461	-1.000000	-1.000000	-1.000000	-1.000000	-1.000000	-1.000000	-1.000000	146.620690	0.000000	-1.000000	-1.000000	590737.000000	1772311841.552290
-22435.065000	-31390.470000	-31665.240000	-16043.355000	0.000000	0.000000	0.000000	0.000000	4.577880	12.013755	5.339185	8.095144	0.000000	0.000000	-0.000000	-0.000000	2.517900	0.274680	-0.534100	0.019714	0.981443	-0.022461	-1.000000	-1.000000	-1.000000	-1.000000	-1.000000	-1.000000	-1.000000	146.620690	0.000000	-1.000000	-1.000000	590738.000000	1772311841.552293
-22422.420000	-31388.490000	-31653.495000	-16031.340000	0.000000	0.000000	0.000000	0.000000	5.026414	8.055630	6.139550	13.187615	0.000000	0.000000	-0.000000	-0.000000	2.517900	0.274680	-0.534100	0.019714	0.981443	-0.022461	-1.000000	-1.000000	-1.000000	-1.000000	-1.000000	-1.000000	-1.000000	146.620690	0.000000	-1.000000	-1.000000	590739.000000	1772311841.556435
-22412.295000	-31370.670000	-31646.790000	-16037.100000	0.000000	0.000000	0.000000	0.000000	-0.134146	5.830400	0.736749	8.380556	0.000000	0.000000	-0.000000	-0.000000	2.517900	0.274680	-0.534100	0.019714	0.981443	-0.022461	-1.000000	-1.000000	-1.000000	-1.000000	-1.000000	-1.000000	-1.000000	146.620690	0.000000	-1.000000	-1.000000	590740.000000	1772311841.556437
-22404.870000	-31349.115000	-31635.765000	-16024.770000	0.000000	0.000000	0.000000	0.000000	-3.880011	7.017334	-3.871109	-0.216309	0.000000	0.000000	-0.000000	-0.000000	2.517900	0.274680	-0.534100	0.019714	0.981443	-0.022461	-1.000000	-1.000000	-1.000000	-1.000000	-1.000000	-1.000000	-1.000000	146.620690	0.000000	-1.000000	-1.000000	590741.000000	1772311841.560583
-22404.555000	-31372.245000	-31634.730000	-16024.365000	0.000000	0.000000	0.000000	0.000000	-2.145020	9.338088	-2.980364	-5.519334	0.000000	0.000000	-0.000000	-0.000000	2.517900	0.274680	-0.534100	0.019714	0.981443	-0.022461	-1.000000	-1.000000	-1.000000	-1.000000	-1.000000	-1.000000	-1.000000	146.620690	0.000000	-1.000000	-1.000000	590742.000000	1772311841.560586
-22413.240000	-31404.150000	-31649.580000	-16046.820000	0.000000	0.000000	0.000000	0.000000	2.539998	7.329995	1.419850	-5.750648	0.000000	0.000000	-0.000000	-0.000000	2.517900	0.274680	-0.534100	0.019714	0.981443	-0.022461	-1.000000	-1.000000	-1.000000	-1.000000	-1.000000	-1.000000	-1.000000	146.620690	0.000000	-1.000000	-1.000000	590743.000000	1772311841.564386
-22412.880000	-31396.455000	-31645.530000	-16035.840000	0.000000	0.000000	0.000000	0.000000	5.422575	-1.749413	4.405227	-3.691814	0.000000	0.000000	-0.000000	-0.000000	2.517900	0.274680	-0.534100	0.019714	0.981443	-0.022461	-1.000000	-1.000000	-1.000000	-1.000000	-1.000000	-1.000000	-1.000000	146.620690	0.000000	-1.000000	-1.000000	590744.000000	1772311841.564388
-22405.365000	-31375.935000	-31638.555000	-16032.240000	0.000000	0.000000	0.000000	0.000000	4.597787	-12.382923	3.887119	-1.514903	0.000000	0.000000	-0.000000	-0.000000	2.517900	0.274680	-0.534100	0.019714	0.981443	-0.022461	-1.000000	-1.000000	-1.000000	-1.000000	-1.000000	-1.000000	-1.000000	146.620690	0.000000	-1.000000	-1.000000	590745.000000	1772311841.568424
-22402.530000	-31368.015000	-31635.990000	-16030.800000	0.000000	0.000000	0.000000	0.000000	1.826833	-15.851956	1.690021	0.865432	0.000000	0.000000	-0.000000	-0.000000	2.517900	0.274680	-0.534100	0.019714	0.981443	-0.022461	-1.000000	-1.000000	-1.000000	-1.000000	-1.000000	-1.000000	-1.000000	146.620690	0.000000	-1.000000	-1.000000	590746.000000	1772311841.568427
-22407.840000	-31365.495000	-31639.140000	-16028.595000	0.000000	0.000000	0.000000	0.000000	-0.652400	-9.953847	-0.100676	3.186856	0.000000	0.000000	-0.000000	-0.000000	1.709120	0.350980	-0.396760	0.019836	0.982053	-0.023498	-1.000000	-1.000000	-1.000000	-1.000000	-1.000000	-1.000000	-1.000000	146.620690	0.000000	-1.000000	-1.000000	590747.000000	1772311841.572525
-22410.405000	-31342.320000	-31640.715000	-16023.915000	0.000000	0.000000	0.000000	0.000000	-2.338461	0.171733	-1.231976	4.422348	0.000000	0.000000	-0.000000	-0.000000	1.709120	0.350980	-0.396760	0.019836	0.982053	-0.023498	-1.000000	-1.000000	-1.000000	-1.000000	-1.000000	-1.000000	-1.000000	146.620690	0.000000	-1.000000	-1.000000	590748.000000	1772311841.572528
-22413.555000	-31317.255000	-31641.840000	-16023.015000	0.000000	0.000000	0.000000	0.000000	-3.547466	8.744251	-2.165031	4.046159	0.000000	0.000000	-0.000000	-0.000000	1.709120	0.350980	-0.396760	0.019836	0.982053	-0.023498	-1.000000	-1.000000	-1.000000	-1.000000	-1.000000	-1.000000	-1.000000	146.620690	0.000000	-1.000000	-1.000000	590749.000000	1772311841.576539
-22419.540000	-31289.490000	-31648.410000	-16030.845000	0.000000	0.000000	0.000000	0.000000	-4.212408	13.159224	-2.948866	2.098468	0.000000	0.000000	-0.000000	-0.000000	1.709120	0.350980	-0.396760	0.019836	0.982053	-0.023498	-1.000000	-1.000000	-1.000000	-1.000000	-1.000000	-1.000000	-1.000000	146.620690	0.000000	-1.000000	-1.000000	590750.000000	1772311841.576542
-22413.240000	-31294.440000	-31642.515000	-16033.455000	0.000000	0.000000	0.000000	0.000000	-3.879864	12.505316	-3.207465	-1.060894	0.000000	0.000000	-0.000000	-0.000000	1.709120	0.350980	-0.396760	0.019836	0.982053	-0.023498	-1.000000	-1.000000	-1.000000	-1.000000	-1.000000	-1.000000	-1.000000	146.620690	0.000000	-1.000000	-1.000000	590751.000000	1772311841.580591
-22406.940000	-31311.855000	-31634.730000	-16037.235000	0.000000	0.000000	0.000000	0.000000	-1.971573	5.780515	-2.221894	-4.344433	0.000000	0.000000	-0.000000	-0.000000	1.709120	0.350980	-0.396760	0.019836	0.982053	-0.023498	-1.000000	-1.000000	-1.000000	-1.000000	-1.000000	-1.000000	-1.000000	146.620690	0.000000	-1.000000	-1.000000	590752.000000	1772311841.580594
-22407.120000	-31332.510000	-31637.115000	-16032.735000	0.000000	0.000000	0.000000	0.000000	1.335861	-6.509851	0.223868	-6.038420	0.000000	0.000000	-0.000000	-0.000000	1.709120	0.350980	-0.396760	0.019836	0.982053	-0.023498	-1.000000	-1.000000	-1.000000	-1.000000	-1.000000	-1.000000	-1.000000	146.620690	0.000000	-1.000000	-1.000000	590753.000000	1772311841.584451
-22411.620000	-31354.830000	-31642.155000	-16036.335000	0.000000	0.000000	0.000000	0.000000	4.315872	-20.032098	2.709774	-5.038503	0.000000	0.000000	-0.000000	-0.000000	1.709120	0.350980	-0.396760	0.019836	0.982053	-0.023498	-1.000000	-1.000000	-1.000000	-1.000000	-1.000000	-1.000000	-1.000000	146.620690	0.000000	-1.000000	-1.000000	590754.000000	1772311841.584454
-22406.850000	-31384.485000	-31637.745000	-16032.015000	0.000000	0.000000	0.000000	0.000000	5.049489	-28.427405	3.404015	-1.860132	0.000000	0.000000	-0.000000	-0.000000	1.709120	0.350980	-0.396760	0.019836	0.982053	-0.023498	-1.000000	-1.000000	-1.000000	-1.000000	-1.000000	-1.000000	-1.000000	146.620690	0.000000	-1.000000	-1.000000	590755.000000	1772311841.588454
-22399.200000	-31396.275000	-31636.305000	-16029.900000	0.000000	0.000000	0.000000	0.000000	3.560998	-27.379384	2.234882	1.886470	0.000000	0.000000	-0.000000	-0.000000	1.709120	0.350980	-0.396760	0.019836	0.982053	-0.023498	-1.000000	-1.000000	-1.000000	-1.000000	-1.000000	-1.000000	-1.000000	146.620690	0.000000	-1.000000	-1.000000	590756.000000	1772311841.588457
-22389.255000	-31422.330000	-31621.815000	-16014.240000	0.000000	0.000000	0.000000	0.000000	1.613177	-16.781383	0.774121	4.893791	0.000000	0.000000	-0.000000	-0.000000	1.098720	0.824040	-0.366240	0.020203	0.983030	-0.023560	-1.000000	-1.000000	-1.000000	-1.000000	-1.000000	-1.000000	-1.000000	146.620690	0.000000	-1.000000	-1.000000	590757.000000	1772311841.592343
-22402.755000	-31449.600000	-31636.530000	-16028.505000	0.000000	0.000000	0.000000	0.000000	0.269285	-0.988756	0.145675	6.317129	0.000000	0.000000	-0.000000	-0.000000	1.098720	0.824040	-0.366240	0.020203	0.983030	-0.023560	-1.000000	-1.000000	-1.000000	-1.000000	-1.000000	-1.000000	-1.000000	146.620690	0.000000	-1.000000	-1.000000	590758.000000	1772311841.592345
-22399.515000	-31467.015000	-31631.490000	-16026.300000	0.000000	0.000000	0.000000	0.000000	-1.186124	13.487075	-0.284192	5.136437	0.000000	0.000000	-0.000000	-0.000000	1.098720	0.824040	-0.366240	0.020203	0.983030	-0.023560	-1.000000	-1.000000	-1.000000	-1.000000	-1.000000	-1.000000	-1.000000	146.620690	0.000000	-1.000000	-1.000000	590759.000000	1772311841.596585
-22399.560000	-31477.050000	-31628.970000	-16022.205000	0.000000	0.000000	0.000000	0.000000	-3.172089	22.258463	-1.245208	1.465946	0.000000	0.000000	-0.000000	-0.000000	1.098720	0.824040	-0.366240	0.020203	0.983030	-0.023560	-1.000000	-1.000000	-1.000000	-1.000000	-1.000000	-1.000000	-1.000000	146.620690	0.000000	-1.000000	-1.000000	590760.000000	1772311841.596588
-22399.245000	-31496.265000	-31630.635000	-16020.720000	0.000000	0.000000	0.000000	0.000000	-4.571328	24.534584	-2.108985	-2.472168	0.000000	0.000000	-0.000000	-0.000000	1.098720	0.824040	-0.366240	0.020203	0.983030	-0.023560	-1.000000	-1.000000	-1.000000	-1.000000	-1.000000	-1.000000	-1.000000	146.620690	0.000000	-1.000000	-1.000000	590761.000000	1772311841.600440
-22396.590000	-31484.295000	-31627.665000	-16018.920000	0.000000	0.000000	0.000000	0.000000	-4.267422	21.759552	-2.157284	-4.481984	0.000000	0.000000	-0.000000	-0.000000	1.098720	0.824040	-0.366240	0.020203	0.983030	-0.023560	-1.000000	-1.000000	-1.000000	-1.000000	-1.000000	-1.000000	-1.000000	146.620690	0.000000	-1.000000	-1.000000	590762.000000	1772311841.600442
-22398.210000	-31472.955000	-31630.500000	-16022.610000	0.000000	0.000000	0.000000	0.000000	-2.330728	16.792634	-1.454009	-4.249183	0.000000	0.000000	-0.000000	-0.000000	1.098720	0.824040	-0.366240	0.020203	0.983030	-0.023560	-1.000000	-1.000000	-1.000000	-1.000000	-1.000000	-1.000000	-1.000000	146.620690	0.000000	-1.000000	-1.000000	590763.000000	1772311841.604577
-22403.745000	-31478.805000	-31636.620000	-16026.255000	0.000000	0.000000	0.000000	0.000000	0.072640	11.905579	-0.618674	-2.918045	0.000000	0.000000	-0.000000	-0.000000	1.098720	0.824040	-0.366240	0.020203	0.983030	-0.023560	-1.000000	-1.000000	-1.000000	-1.000000	-1.000000	-1.000000	-1.000000	146.620690	0.000000	-1.000000	-1.000000	590764.000000	1772311841.604580
-22399.740000	-31475.115000	-31632.435000	-16023.825000	0.000000	0.000000	0.000000	0.000000	1.648361	6.680642	-0.225312	-1.630271	0.000000	0.000000	-0.000000	-0.000000	1.098720	0.824040	-0.366240	0.020203	0.983030	-0.023560	-1.000000	-1.000000	-1.000000	-1.000000	-1.000000	-1.000000	-1.000000	146.620690	0.000000	-1.000000	-1.000000	590765.000000	1772311841.608589
-22395.915000	-31468.500000	-31627.620000	-16021.215000	0.000000	0.000000	0.000000	0.000000	2.238725	0.132664	0.069315	-0.501089	0.000000	0.000000	-0.000000	-0.000000	1.098720	0.824040	-0.366240	0.020203	0.983030	-0.023560	-1.000000	-1.000000	-1.000000	-1.000000	-1.000000	-1.000000	-1.000000	146.620690	0.000000	-1.000000	-1.000000	590766.000000	1772311841.608592
-22404.105000	-31504.995000	-31636.440000	-16031.205000	0.000000	0.000000	0.000000	0.000000	2.340934	-7.398008	0.796055	0.635821	0.000000	0.000000	-0.000000	-0.000000	1.205540	1.129240	-0.091560	0.020081	0.983030	-0.022217	-1.000000	-1.000000	-1.000000	-1.000000	-1.000000	-1.000000	-1.000000	146.620690	0.000000	-1.000000	-1.000000	590767.000000	1772311841.612619
-22401.360000	-31527.225000	-31632.705000	-16031.745000	0.000000	0.000000	0.000000	0.000000	1.912126	-15.444033	1.469754	1.267025	0.000000	0.000000	-0.000000	-0.000000	1.205540	1.129240	-0.091560	0.020081	0.983030	-0.022217	-1.000000	-1.000000	-1.000000	-1.000000	-1.000000	-1.000000	-1.000000	146.620690	0.000000	-1.000000	-1.000000	590768.000000	1772311841.612622
-22364.640000	-31488.840000	-31593.690000	-15994.035000	0.000000	0.000000	0.000000	0.000000	1.595252	-21.410607	2.203053	1.760513	0.000000	0.000000	-0.000000	-0.000000	1.205540	1.129240	-0.091560	0.020081	0.983030	-0.022217	-1.000000	-1.000000	-1.000000	-1.000000	-1.000000	-1.000000	-1.000000	146.620690	0.000000	-1.000000	-1.000000	590769.000000	1772311841.616501
-22385.385000	-31457.520000	-31612.320000	-16004.070000	0.000000	0.000000	0.000000	0.000000	2.632511	-19.133273	3.965384	3.626206	0.000000	0.000000	-0.000000	-0.000000	1.205540	1.129240	-0.091560	0.020081	0.983030	-0.022217	-1.000000	-1.000000	-1.000000	-1.000000	-1.000000	-1.000000	-1.000000	146.620690	0.000000	-1.000000	-1.000000	590770.000000	1772311841.616504
-22421.205000	-31457.340000	-31652.280000	-16038.270000	0.000000	0.000000	0.000000	0.000000	2.913591	-6.416471	4.449338	5.235877	0.000000	0.000000	-0.000000	-0.000000	1.205540	1.129240	-0.091560	0.020081	0.983030	-0.022217	-1.000000	-1.000000	-1.000000	-1.000000	-1.000000	-1.000000	-1.000000	146.620690	0.000000	-1.000000	-1.000000	590771.000000	1772311841.620687
-22400.190000	-31452.930000	-31631.535000	-16017.570000	0.000000	0.000000	0.000000	0.000000	-0.880413	9.192083	0.077987	2.793305	0.000000	0.000000	-0.000000	-0.000000	1.205540	1.129240	-0.091560	0.020081	0.983030	-0.022217	-1.000000	-1.000000	-1.000000	-1.000000	-1.000000	-1.000000	-1.000000	146.620690	0.000000	-1.000000	-1.000000	590772.000000	1772311841.620689
-22411.890000	-31471.065000	-31642.920000	-16027.155000	0.000000	0.000000	0.000000	0.000000	-6.480196	17.032920	-6.706076	-2.725921	0.000000	0.000000	-0.000000	-0.000000	1.205540	1.129240	-0.091560	0.020081	0.983030	-0.022217	-1.000000	-1.000000	-1.000000	-1.000000	-1.000000	-1.000000	-1.000000	146.620690	0.000000	-1.000000	-1.000000	590773.000000	1772311841.624641
-22412.115000	-31460.940000	-31643.190000	-16027.470000	0.000000	0.000000	0.000000	0.000000	-8.747487	12.944504	-10.011270	-6.685037	0.000000	0.000000	-0.000000	-0.000000	1.205540	1.129240	-0.091560	0.020081	0.983030	-0.022217	-1.000000	-1.000000	-1.000000	-1.000000	-1.000000	-1.000000	-1.000000	146.620690	0.000000	-1.000000	-1.000000	590774.000000	1772311841.624644
-22413.015000	-31467.510000	-31644.270000	-16033.140000	0.000000	0.000000	0.000000	0.000000	-6.159350	1.513082	-7.692324	-6.854906	-0.000000	0.000000	-0.000000	-0.000000	1.205540	1.129240	-0.091560	0.020081	0.983030	-0.022217	-1.000000	-1.000000	-1.000000	-1.000000	-1.000000	-1.000000	-1.000000	146.620690	0.000000	-1.000000	-1.000000	590775.000000	1772311841.628727
-22407.165000	-31492.980000	-31639.770000	-16036.695000	0.000000	0.000000	0.000000	0.000000	-0.576394	-9.641158	-1.627037	-4.134066	-0.000000	0.000000	-0.000000	-0.000000	1.205540	1.129240	-0.091560	0.020081	0.983030	-0.022217	-1.000000	-1.000000	-1.000000	-1.000000	-1.000000	-1.000000	-1.000000	146.620690	0.000000	-1.000000	-1.000000	590776.000000	1772311841.628730
-22384.440000	-31523.355000	-31613.760000	-16006.905000	0.000000	0.000000	0.000000	0.000000	5.624009	-16.433377	5.413053	0.095118	-0.000000	0.000000	-0.000000	-0.000000	1.892240	0.579880	0.213640	0.019653	0.982175	-0.020691	-1.000000	-1.000000	-1.000000	-1.000000	-1.000000	-1.000000	-1.000000	146.620690	0.000000	-1.000000	-1.000000	590777.000000	1772311841.632609
-22400.865000	-31520.340000	-31630.185000	-16024.455000	0.000000	0.000000	0.000000	0.000000	10.252868	-17.928241	10.915291	4.883430	-0.000000	0.000000	-0.000000	-0.000000	1.892240	0.579880	0.213640	0.019653	0.982175	-0.020691	-1.000000	-1.000000	-1.000000	-1.000000	-1.000000	-1.000000	-1.000000	146.620690	0.000000	-1.000000	-1.000000	590778.000000	1772311841.632612
-22419.990000	-31506.795000	-31651.335000	-16047.450000	0.000000	0.000000	0.000000	0.000000	10.357554	-12.860693	11.615387	7.545328	-0.000000	0.000000	-0.000000	-0.000000	1.892240	0.579880	0.213640	0.019653	0.982175	-0.020691	-1.000000	-1.000000	-1.000000	-1.000000	-1.000000	-1.000000	-1.000000	146.620690	0.000000	-1.000000	-1.000000	590779.000000	1772311841.638011
-22398.570000	-31506.705000	-31630.095000	-16025.130000	0.000000	0.000000	0.000000	0.000000	4.776614	-1.147571	5.987367	5.429185	-0.000000	0.000000	-0.000000	-0.000000	1.892240	0.579880	0.213640	0.019653	0.982175	-0.020691	-1.000000	-1.000000	-1.000000	-1.000000	-1.000000	-1.000000	-1.000000	146.620690	0.000000	-1.000000	-1.000000	590780.000000	1772311841.638014
-22391.190000	-31500.855000	-31622.220000	-16012.980000	0.000000	0.000000	0.000000	0.000000	-2.363803	12.760168	-1.819247	1.000611	-0.000000	0.000000	-0.000000	-0.000000	1.892240	0.579880	0.213640	0.019653	0.982175	-0.020691	-1.000000	-1.000000	-1.000000	-1.000000	-1.000000	-1.000000	-1.000000	146.620690	0.000000	-1.000000	-1.000000	590781.000000	1772311841.640705
-22413.420000	-31504.770000	-31645.620000	-16033.455000	0.000000	0.000000	0.000000	0.000000	-6.207724	21.942959	-6.465739	-1.455775	-0.000000	0.000000	-0.000000	-0.000000	1.892240	0.579880	0.213640	0.019653	0.982175	-0.020691	-1.000000	-1.000000	-1.000000	-1.000000	-1.000000	-1.000000	-1.000000	146.620690	0.000000	-1.000000	-1.000000	590782.000000	1772311841.640708
-22409.460000	-31498.830000	-31643.730000	-16034.220000	0.000000	0.000000	0.000000	0.000000	-6.710795	22.189473	-7.510493	-2.014280	-0.000000	0.000000	-0.000000	-0.000000	1.892240	0.579880	0.213640	0.019653	0.982175	-0.020691	-1.000000	-1.000000	-1.000000	-1.000000	-1.000000	-1.000000	-1.000000	146.620690	0.000000	-1.000000	-1.000000	590783.000000	1772311841.644674
-22395.870000	-31503.150000	-31628.385000	-16018.695000	0.000000	0.000000	0.000000	0.000000	-5.506030	14.345564	-6.473460	-2.401660	-0.000000	0.000000	-0.000000	-0.000000	1.892240	0.579880	0.213640	0.019653	0.982175	-0.020691	-1.000000	-1.000000	-1.000000	-1.000000	-1.000000	-1.000000	-1.000000	146.620690	0.000000	-1.000000	-1.000000	590784.000000	1772311841.644676
-22402.620000	-31510.530000	-31634.055000	-16025.040000	0.000000	0.000000	0.000000	0.000000	-2.719198	2.611800	-3.403111	-2.155814	-0.000000	0.000000	-0.000000	-0.000000	1.892240	0.579880	0.213640	0.019653	0.982175	-0.020691	-1.000000	-1.000000	-1.000000	-1.000000	-1.000000	-1.000000	-1.000000	146.620690	0.000000	-1.000000	-1.000000	590785.000000	1772311841.648704
-22411.395000	-31484.655000	-31642.650000	-16034.490000	0.000000	0.000000	0.000000	0.000000	0.631709	-7.843844	0.645799	-1.083483	-0.000000	0.000000	-0.000000	-0.000000	1.892240	0.579880	0.213640	0.019653	0.982175	-0.020691	-1.000000	-1.000000	-1.000000	-1.000000	-1.000000	-1.000000	-1.000000	146.620690	0.000000	-1.000000	-1.000000	590786.000000	1772311841.648707
-22406.265000	-31470.570000	-31636.575000	-16028.190000	0.000000	0.000000	0.000000	0.000000	2.436350	-12.325413	3.207591	-0.435796	-0.000000	0.000000	-0.000000	-0.000000	1.846460	1.022420	0.000000	0.020630	0.982480	-0.020203	-1.000000	-1.000000	-1.000000	-1.000000	-1.000000	-1.000000	-1.000000	146.620690	0.000000	-1.000000	-1.000000	590787.000000	1772311841.652846
-22401.090000	-31475.520000	-31632.570000	-16025.130000	0.000000	0.000000	0.000000	0.000000	2.436668	-9.829317	3.573244	-0.373257	-0.000000	0.000000	-0.000000	-0.000000	1.846460	1.022420	0.000000	0.020630	0.982480	-0.020203	-1.000000	-1.000000	-1.000000	-1.000000	-1.000000	-1.000000	-1.000000	146.620690	0.000000	-1.000000	-1.000000	590788.000000	1772311841.652849
-22393.665000	-31458.150000	-31627.350000	-16026.795000	0.000000	0.000000	0.000000	0.000000	2.170881	-4.242189	3.023156	0.032055	-0.000000	0.000000	-0.000000	-0.000000	1.846460	1.022420	0.000000	0.020630	0.982480	-0.020203	-1.000000	-1.000000	-1.000000	-1.000000	-1.000000	-1.000000	-1.000000	146.620690	0.000000	-1.000000	-1.000000	590789.000000	1772311841.658930
-22393.125000	-31437.630000	-31628.520000	-16029.990000	0.000000	0.000000	0.000000	0.000000	2.502045	0.408241	2.486714	0.771997	-0.000000	0.000000	-0.000000	-0.000000	1.846460	1.022420	0.000000	0.020630	0.982480	-0.020203	-1.000000	-1.000000	-1.000000	-1.000000	-1.000000	-1.000000	-1.000000	146.620690	0.000000	-1.000000	-1.000000	590790.000000	1772311841.658933
-22401.585000	-31446.495000	-31636.170000	-16030.350000	0.000000	0.000000	0.000000	0.000000	2.570947	2.707806	1.579951	1.041282	-0.000000	0.000000	-0.000000	-0.000000	1.846460	1.022420	0.000000	0.020630	0.982480	-0.020203	-1.000000	-1.000000	-1.000000	-1.000000	-1.000000	-1.000000	-1.000000	146.620690	0.000000	-1.000000	-1.000000	590791.000000	1772311841.662824
-22410.675000	-31456.260000	-31638.555000	-16020.990000	0.000000	0.000000	0.000000	0.000000	0.915924	1.714649	-0.383349	0.762068	-0.000000	0.000000	-0.000000	-0.000000	1.846460	1.022420	0.000000	0.020630	0.982480	-0.020203	-1.000000	-1.000000	-1.000000	-1.000000	-1.000000	-1.000000	-1.000000	146.620690	0.000000	-1.000000	-1.000000	590792.000000	1772311841.662827
-22410.990000	-31442.175000	-31638.555000	-16024.365000	0.000000	0.000000	0.000000	0.000000	-2.434100	-2.457985	-2.892824	0.649216	-0.000000	0.000000	-0.000000	-0.000000	1.846460	1.022420	0.000000	0.020630	0.982480	-0.020203	-1.000000	-1.000000	-1.000000	-1.000000	-1.000000	-1.000000	-1.000000	146.620690	0.000000	-1.000000	-1.000000	590793.000000	1772311841.664721
-22408.110000	-31440.465000	-31635.405000	-16022.970000	0.000000	0.000000	0.000000	0.000000	-5.283079	-6.619850	-4.296310	0.831430	-0.000000	0.000000	-0.000000	-0.000000	1.846460	1.022420	0.000000	0.020630	0.982480	-0.020203	-1.000000	-1.000000	-1.000000	-1.000000	-1.000000	-1.000000	-1.000000	146.620690	0.000000	-1.000000	-1.000000	590794.000000	1772311841.664724
-22402.305000	-31431.060000	-31636.305000	-16022.520000	0.000000	0.000000	0.000000	0.000000	-5.190781	-7.231384	-3.474402	0.722452	-0.000000	0.000000	-0.000000	-0.000000	1.846460	1.022420	0.000000	0.020630	0.982480	-0.020203	-1.000000	-1.000000	-1.000000	-1.000000	-1.000000	-1.000000	-1.000000	146.620690	0.000000	-1.000000	-1.000000	590795.000000	1772311841.668685
-22396.635000	-31420.890000	-31640.715000	-16028.370000	0.000000	0.000000	0.000000	0.000000	-1.769053	-3.747969	-1.053273	-0.010429	-0.000000	0.000000	-0.000000	-0.000000	1.846460	1.022420	0.000000	0.020630	0.982480	-0.020203	-1.000000	-1.000000	-1.000000	-1.000000	-1.000000	-1.000000	-1.000000	146.620690	0.000000	-1.000000	-1.000000	590796.000000	1772311841.668688
-22399.695000	-31429.215000	-31637.385000	-16025.355000	0.000000	0.000000	0.000000	0.000000	2.909793	1.471378	1.315152	-1.172420	-0.000000	0.000000	-0.000000	-0.000000	1.266580	0.503580	-0.381500	0.020630	0.981443	-0.020630	-1.000000	-1.000000	-1.000000	-1.000000	-1.000000	-1.000000	-1.000000	146.620690	0.000000	-1.000000	-1.000000	590797.000000	1772311841.672867
-22411.575000	-31416.525000	-31637.970000	-16024.635000	0.000000	0.000000	0.000000	0.000000	5.621519	5.140911	2.608338	-2.035915	-0.000000	0.000000	-0.000000	-0.000000	1.266580	0.503580	-0.381500	0.020630	0.981443	-0.020630	-1.000000	-1.000000	-1.000000	-1.000000	-1.000000	-1.000000	-1.000000	146.620690	0.000000	-1.000000	-1.000000	590798.000000	1772311841.672871
-22414.365000	-31388.085000	-31648.140000	-16045.065000	0.000000	0.000000	0.000000	0.000000	4.365464	6.245084	2.603974	-2.227841	-0.000000	0.000000	-0.000000	-0.000000	1.266580	0.503580	-0.381500	0.020630	0.981443	-0.020630	-1.000000	-1.000000	-1.000000	-1.000000	-1.000000	-1.000000	-1.000000	146.620690	0.000000	-1.000000	-1.000000	590799.000000	1772311841.676818
-22415.940000	-31385.655000	-31651.965000	-16053.120000	0.000000	0.000000	0.000000	0.000000	0.262375	6.320671	1.237832	-2.561495	-0.000000	0.000000	-0.000000	-0.000000	1.266580	0.503580	-0.381500	0.020630	0.981443	-0.020630	-1.000000	-1.000000	-1.000000	-1.000000	-1.000000	-1.000000	-1.000000	146.620690	0.000000	-1.000000	-1.000000	590800.000000	1772311841.676821
-22410.765000	-31372.290000	-31645.440000	-16042.050000	0.000000	0.000000	0.000000	0.000000	-3.369359	5.891317	-0.727938	-3.073274	-0.000000	0.000000	-0.000000	-0.000000	1.266580	0.503580	-0.381500	0.020630	0.981443	-0.020630	-1.000000	-1.000000	-1.000000	-1.000000	-1.000000	-1.000000	-1.000000	146.620690	0.000000	-1.000000	-1.000000	590801.000000	1772311841.680775
-22409.955000	-31361.400000	-31639.770000	-16027.560000	0.000000	0.000000	0.000000	0.000000	-3.963813	4.017529	-1.499401	-1.680811	-0.000000	0.000000	-0.000000	-0.000000	1.266580	0.503580	-0.381500	0.020630	0.981443	-0.020630	-1.000000	-1.000000	-1.000000	-1.000000	-1.000000	-1.000000	-1.000000	146.620690	0.000000	-1.000000	-1.000000	590802.000000	1772311841.680778
-22401.495000	-31363.335000	-31632.165000	-16023.825000	0.000000	0.000000	0.000000	0.000000	-1.467822	0.475022	-0.039032	2.803733	-0.000000	0.000000	-0.000000	-0.000000	1.266580	0.503580	-0.381500	0.020630	0.981443	-0.020630	-1.000000	-1.000000	-1.000000	-1.000000	-1.000000	-1.000000	-1.000000	146.620690	0.000000	-1.000000	-1.000000	590803.000000	1772311841.684718
-22396.005000	-31349.520000	-31628.745000	-16024.095000	0.000000	0.000000	0.000000	0.000000	2.305674	-3.846751	2.673672	7.931403	-0.000000	0.000000	-0.000000	-0.000000	1.266580	0.503580	-0.381500	0.020630	0.981443	-0.020630	-1.000000	-1.000000	-1.000000	-1.000000	-1.000000	-1.000000	-1.000000	146.620690	0.000000	-1.000000	-1.000000	590804.000000	1772311841.684721
-22408.830000	-31319.280000	-31640.760000	-16033.770000	0.000000	0.000000	0.000000	0.000000	4.861720	-6.746837	4.255928	9.553403	-0.000000	0.000000	-0.000000	-0.000000	1.266580	0.503580	-0.381500	0.020630	0.981443	-0.020630	-1.000000	-1.000000	-1.000000	-1.000000	-1.000000	-1.000000	-1.000000	146.620690	0.000000	-1.000000	-1.000000	590805.000000	1772311841.688798
-22398.165000	-31246.470000	-31631.805000	-16023.870000	0.000000	0.000000	0.000000	0.000000	4.331462	-4.777197	2.910445	5.984458	-0.000000	0.000000	-0.000000	-0.000000	1.266580	0.503580	-0.381500	0.020630	0.981443	-0.020630	-1.000000	-1.000000	-1.000000	-1.000000	-1.000000	-1.000000	-1.000000	146.620690	0.000000	-1.000000	-1.000000	590806.000000	1772311841.688801
-22380.795000	-31205.970000	-31616.865000	-16008.120000	0.000000	0.000000	0.000000	0.000000	1.618158	3.635753	-0.255476	-0.032250	-0.000000	0.000000	-0.000000	-0.000000	1.617560	0.412020	-0.503580	0.020508	0.980832	-0.020081	-1.000000	-1.000000	-1.000000	-1.000000	-1.000000	-1.000000	-1.000000	146.620690	0.000000	-1.000000	-1.000000	590807.000000	1772311841.692816
-22422.735000	-31217.445000	-31654.215000	-16043.490000	0.000000	0.000000	0.000000	0.000000	-1.192948	13.241988	-2.980431	-4.785683	-0.000000	0.000000	-0.000000	-0.000000	1.617560	0.412020	-0.503580	0.020508	0.980832	-0.020081	-1.000000	-1.000000	-1.000000	-1.000000	-1.000000	-1.000000	-1.000000	146.620690	0.000000	-1.000000	-1.000000	590808.000000	1772311841.692820
-22454.280000	-31235.445000	-31685.625000	-16075.440000	0.000000	0.000000	0.000000	0.000000	-4.944845	13.657518	-5.926279	-8.436921	-0.000000	0.000000	-0.000000	-0.000000	1.617560	0.412020	-0.503580	0.020508	0.980832	-0.020081	-1.000000	-1.000000	-1.000000	-1.000000	-1.000000	-1.000000	-1.000000	146.620690	0.000000	-1.000000	-1.000000	590809.000000	1772311841.696819
-22418.595000	-31247.010000	-31648.905000	-16041.015000	0.000000	0.000000	0.000000	0.000000	-9.787111	0.160808	-9.428793	-11.688150	-0.000000	0.000000	-0.000000	-0.000000	1.617560	0.412020	-0.503580	0.020508	0.980832	-0.020081	-1.000000	-1.000000	-1.000000	-1.000000	-1.000000	-1.000000	-1.000000	146.620690	0.000000	-1.000000	-1.000000	590810.000000	1772311841.696822
-22398.075000	-31245.660000	-31629.690000	-16021.305000	0.000000	0.000000	0.000000	0.000000	-10.256413	-19.764815	-8.758581	-10.491430	-0.000000	0.000000	-0.000000	-0.000000	1.617560	0.412020	-0.503580	0.020508	0.980832	-0.020081	-1.000000	-1.000000	-1.000000	-1.000000	-1.000000	-1.000000	-1.000000	146.620690	0.000000	-1.000000	-1.000000	590811.000000	1772311841.700804
-22431.780000	-31249.665000	-31665.465000	-16052.130000	0.000000	0.000000	0.000000	0.000000	-2.910794	-32.837774	-1.184288	-2.338750	-0.000000	0.000000	-0.000000	-0.000000	1.617560	0.412020	-0.503580	0.020508	0.980832	-0.020081	-1.000000	-1.000000	-1.000000	-1.000000	-1.000000	-1.000000	-1.000000	146.620690	0.000000	-1.000000	-1.000000	590812.000000	1772311841.700808
-22429.755000	-31239.720000	-31665.915000	-16054.605000	0.000000	0.000000	0.000000	0.000000	6.479714	-30.814954	7.380936	7.050563	-0.000000	0.000000	-0.000000	-0.000000	1.617560	0.412020	-0.503580	0.020508	0.980832	-0.020081	-1.000000	-1.000000	-1.000000	-1.000000	-1.000000	-1.000000	-1.000000	146.620690	0.000000	-1.000000	-1.000000	590813.000000	1772311841.704813
-22411.170000	-31223.160000	-31648.050000	-16037.595000	0.000000	0.000000	0.000000	0.000000	10.964718	-14.830430	10.509363	11.051957	-0.000000	0.000000	-0.000000	-0.000000	1.617560	0.412020	-0.503580	0.020508	0.980832	-0.020081	-1.000000	-1.000000	-1.000000	-1.000000	-1.000000	-1.000000	-1.000000	146.620690	0.000000	-1.000000	-1.000000	590814.000000	1772311841.704815
-22409.775000	-31220.730000	-31644.990000	-16035.075000	0.000000	0.000000	0.000000	0.000000	10.334463	7.056865	8.891885	9.800435	-0.000000	0.000000	-0.000000	-0.000000	1.617560	0.412020	-0.503580	0.020508	0.980832	-0.020081	-1.000000	-1.000000	-1.000000	-1.000000	-1.000000	-1.000000	-1.000000	146.620690	0.000000	-1.000000	-1.000000	590815.000000	1772311841.708943
-22414.905000	-31207.410000	-31646.520000	-16032.105000	0.000000	0.000000	0.000000	0.000000	7.203177	24.740084	5.876066	6.586282	-0.000000	0.000000	-0.000000	-0.000000	1.617560	0.412020	-0.503580	0.020508	0.980832	-0.020081	-1.000000	-1.000000	-1.000000	-1.000000	-1.000000	-1.000000	-1.000000	146.620690	0.000000	-1.000000	-1.000000	590816.000000	1772311841.708945
-22406.715000	-31193.370000	-31637.070000	-16024.140000	0.000000	0.000000	0.000000	0.000000	2.832852	31.605736	2.743922	3.180450	-0.000000	0.000000	-0.000000	-0.000000	1.754900	0.289940	-0.396760	0.020752	0.981382	-0.019104	-1.000000	-1.000000	-1.000000	-1.000000	-1.000000	-1.000000	-1.000000	146.620690	0.000000	-1.000000	-1.000000	590817.000000	1772311841.712887
-22419.315000	-31195.980000	-31650.930000	-16043.355000	0.000000	0.000000	0.000000	0.000000	-1.899308	27.060434	-0.485008	-0.256750	-0.000000	0.000000	-0.000000	-0.000000	1.754900	0.289940	-0.396760	0.020752	0.981382	-0.019104	-1.000000	-1.000000	-1.000000	-1.000000	-1.000000	-1.000000	-1.000000	146.620690	0.000000	-1.000000	-1.000000	590818.000000	1772311841.712889
-22421.970000	-31210.965000	-31650.165000	-16037.010000	0.000000	0.000000	0.000000	0.000000	-6.023200	14.284703	-3.902755	-4.063090	-0.000000	0.000000	-0.000000	-0.000000	1.754900	0.289940	-0.396760	0.020752	0.981382	-0.019104	-1.000000	-1.000000	-1.000000	-1.000000	-1.000000	-1.000000	-1.000000	146.620690	0.000000	-1.000000	-1.000000	590819.000000	1772311841.716855
-22419.900000	-31221.945000	-31645.710000	-16028.595000	0.000000	0.000000	0.000000	0.000000	-8.527382	-2.063354	-6.778059	-7.192465	-0.000000	0.000000	-0.000000	-0.000000	1.754900	0.289940	-0.396760	0.020752	0.981382	-0.019104	-1.000000	-1.000000	-1.000000	-1.000000	-1.000000	-1.000000	-1.000000	146.620690	0.000000	-1.000000	-1.000000	590820.000000	1772311841.716858
-22435.965000	-31230.000000	-31660.785000	-16045.290000	0.000000	0.000000	0.000000	0.000000	-8.503415	-16.268562	-7.714500	-7.737695	-0.000000	0.000000	-0.000000	-0.000000	1.754900	0.289940	-0.396760	0.020752	0.981382	-0.019104	-1.000000	-1.000000	-1.000000	-1.000000	-1.000000	-1.000000	-1.000000	146.620690	0.000000	-1.000000	-1.000000	590821.000000	1772311841.720939
-22424.625000	-31241.340000	-31656.645000	-16054.740000	0.000000	0.000000	0.000000	0.000000	-6.061010	-23.183300	-6.458228	-6.066032	-0.000000	0.000000	-0.000000	-0.000000	1.754900	0.289940	-0.396760	0.020752	0.981382	-0.019104	-1.000000	-1.000000	-1.000000	-1.000000	-1.000000	-1.000000	-1.000000	146.620690	0.000000	-1.000000	-1.000000	590822.000000	1772311841.720942
-22388.220000	-31240.530000	-31622.895000	-16024.545000	0.000000	0.000000	0.000000	0.000000	-1.218766	-20.832034	-3.053557	-3.442002	-0.000000	0.000000	-0.000000	-0.000000	1.754900	0.289940	-0.396760	0.020752	0.981382	-0.019104	-1.000000	-1.000000	-1.000000	-1.000000	-1.000000	-1.000000	-1.000000	146.620690	0.000000	-1.000000	-1.000000	590823.000000	1772311841.724910
-22387.050000	-31233.960000	-31618.980000	-16018.290000	0.000000	0.000000	0.000000	0.000000	6.024041	-10.896429	2.895504	0.806965	-0.000000	0.000000	-0.000000	-0.000000	1.754900	0.289940	-0.396760	0.020752	0.981382	-0.019104	-1.000000	-1.000000	-1.000000	-1.000000	-1.000000	-1.000000	-1.000000	146.620690	0.000000	-1.000000	-1.000000	590824.000000	1772311841.724913
-22408.020000	-31221.225000	-31641.615000	-16037.640000	0.000000	0.000000	0.000000	0.000000	12.070076	2.625309	8.778816	6.013315	-0.000000	0.000000	-0.000000	-0.000000	1.754900	0.289940	-0.396760	0.020752	0.981382	-0.019104	-1.000000	-1.000000	-1.000000	-1.000000	-1.000000	-1.000000	-1.000000	146.620690	0.000000	-1.000000	-1.000000	590825.000000	1772311841.729000
-22402.620000	-31213.530000	-31635.045000	-16029.270000	0.000000	0.000000	0.000000	0.000000	11.420907	14.785976	9.509225	8.357180	-0.000000	0.000000	-0.000000	-0.000000	1.754900	0.289940	-0.396760	0.020752	0.981382	-0.019104	-1.000000	-1.000000	-1.000000	-1.000000	-1.000000	-1.000000	-1.000000	146.620690	0.000000	-1.000000	-1.000000	590826.000000	1772311841.729002
-22397.895000	-31209.480000	-31628.295000	-16025.355000	0.000000	0.000000	0.000000	0.000000	3.880593	21.115064	4.232537	6.056659	-0.000000	0.000000	-0.000000	-0.000000	1.403920	0.244160	-0.259420	0.021057	0.981626	-0.018860	-1.000000	-1.000000	-1.000000	-1.000000	-1.000000	-1.000000	-1.000000	146.620690	0.000000	-1.000000	-1.000000	590827.000000	1772311841.732922
-22381.020000	-31227.075000	-31618.620000	-16025.760000	0.000000	0.000000	0.000000	0.000000	-4.635957	19.046557	-2.320567	1.527901	-0.000000	0.000000	-0.000000	-0.000000	1.403920	0.244160	-0.259420	0.021057	0.981626	-0.018860	-1.000000	-1.000000	-1.000000	-1.000000	-1.000000	-1.000000	-1.000000	146.620690	0.000000	-1.000000	-1.000000	590828.000000	1772311841.732925
-22397.625000	-31225.545000	-31635.540000	-16046.640000	0.000000	0.000000	0.000000	0.000000	-8.809559	9.273303	-5.927685	-2.694034	-0.000000	0.000000	-0.000000	-0.000000	1.403920	0.244160	-0.259420	0.021057	0.981626	-0.018860	-1.000000	-1.000000	-1.000000	-1.000000	-1.000000	-1.000000	-1.000000	146.620690	0.000000	-1.000000	-1.000000	590829.000000	1772311841.737011
-22441.860000	-31218.525000	-31676.355000	-16075.890000	0.000000	0.000000	0.000000	0.000000	-9.248438	-3.342338	-7.248486	-6.502531	-0.000000	0.000000	-0.000000	-0.000000	1.403920	0.244160	-0.259420	0.021057	0.981626	-0.018860	-1.000000	-1.000000	-1.000000	-1.000000	-1.000000	-1.000000	-1.000000	146.620690	0.000000	-1.000000	-1.000000	590830.000000	1772311841.737016
-22427.190000	-31208.085000	-31659.570000	-16049.745000	0.000000	0.000000	0.000000	0.000000	-9.488818	-12.033182	-8.660635	-9.502840	-0.000000	0.000000	-0.000000	-0.000000	1.403920	0.244160	-0.259420	0.021057	0.981626	-0.018860	-1.000000	-1.000000	-1.000000	-1.000000	-1.000000	-1.000000	-1.000000	146.620690	0.000000	-1.000000	-1.000000	590831.000000	1772311841.741005
-22421.700000	-31223.160000	-31650.975000	-16040.790000	0.000000	0.000000	0.000000	0.000000	-8.860532	-13.426713	-8.475717	-8.390793	-0.000000	0.000000	-0.000000	-0.000000	1.403920	0.244160	-0.259420	0.021057	0.981626	-0.018860	-1.000000	-1.000000	-1.000000	-1.000000	-1.000000	-1.000000	-1.000000	146.620690	0.000000	-1.000000	-1.000000	590832.000000	1772311841.741009
-22416.255000	-31210.965000	-31645.035000	-16029.360000	0.000000	0.000000	0.000000	0.000000	-3.895408	-9.488843	-3.269327	-1.092297	-0.000000	0.000000	-0.000000	-0.000000	1.403920	0.244160	-0.259420	0.021057	0.981626	-0.018860	-1.000000	-1.000000	-1.000000	-1.000000	-1.000000	-1.000000	-1.000000	146.620690	0.000000	-1.000000	-1.000000	590833.000000	1772311841.745028
-22388.265000	-31196.025000	-31616.145000	-15999.345000	0.000000	0.000000	0.000000	0.000000	5.345668	-3.569949	6.177712	9.271391	-0.000000	0.000000	-0.000000	-0.000000	1.403920	0.244160	-0.259420	0.021057	0.981626	-0.018860	-1.000000	-1.000000	-1.000000	-1.000000	-1.000000	-1.000000	-1.000000	146.620690	0.000000	-1.000000	-1.000000	590834.000000	1772311841.745032
-22377.015000	-31179.465000	-31610.565000	-16007.310000	0.000000	0.000000	0.000000	0.000000	15.048529	2.631023	15.373846	16.957398	-0.000000	0.000000	-0.000000	-0.000000	1.403920	0.244160	-0.259420	0.021057	0.981626	-0.018860	-1.000000	-1.000000	-1.000000	-1.000000	-1.000000	-1.000000	-1.000000	146.620690	0.000000	-1.000000	-1.000000	590835.000000	1772311841.748990
-22402.845000	-31212.990000	-31635.495000	-16034.310000	0.000000	0.000000	0.000000	0.000000	19.750674	6.992068	18.741965	16.568016	-0.000000	0.000000	-0.000000	-0.000000	1.403920	0.244160	-0.259420	0.021057	0.981626	-0.018860	-1.000000	-1.000000	-1.000000	-1.000000	-1.000000	-1.000000	-1.000000	146.620690	0.000000	-1.000000	-1.000000	590836.000000	1772311841.748992
-22383.090000	-31248.405000	-31610.160000	-15999.975000	0.000000	0.000000	0.000000	0.000000	15.329218	5.572258	12.985787	6.900005	-0.000000	0.000000	-0.000000	-0.000000	1.281840	0.366240	-0.076300	0.021179	0.981870	-0.019165	-1.000000	-1.000000	-1.000000	-1.000000	-1.000000	-1.000000	-1.000000	146.620690	0.000000	-1.000000	-1.000000	590837.000000	1772311841.753010
-22389.705000	-31234.005000	-31617.270000	-16001.370000	0.000000	0.000000	0.000000	0.000000	3.786523	-2.319132	1.301761	-5.709729	-0.000000	0.000000	-0.000000	-0.000000	1.281840	0.366240	-0.076300	0.021179	0.981870	-0.019165	-1.000000	-1.000000	-1.000000	-1.000000	-1.000000	-1.000000	-1.000000	146.620690	0.000000	-1.000000	-1.000000	590838.000000	1772311841.753012
-22440.645000	-31224.015000	-31667.220000	-16049.070000	0.000000	0.000000	0.000000	0.000000	-9.116795	-9.929576	-10.385623	-14.244222	-0.000000	0.000000	-0.000000	-0.000000	1.281840	0.366240	-0.076300	0.021179	0.981870	-0.019165	-1.000000	-1.000000	-1.000000	-1.000000	-1.000000	-1.000000	-1.000000	146.620690	0.000000	-1.000000	-1.000000	590839.000000	1772311841.760163
-22434.930000	-31234.995000	-31662.855000	-16048.440000	0.000000	0.000000	0.000000	0.000000	-19.390292	-9.882043	-19.099010	-18.005688	-0.000000	0.000000	-0.000000	-0.000000	1.281840	0.366240	-0.076300	0.021179	0.981870	-0.019165	-1.000000	-1.000000	-1.000000	-1.000000	-1.000000	-1.000000	-1.000000	146.620690	0.000000	-1.000000	-1.000000	590840.000000	1772311841.760166
-22424.040000	-31240.620000	-31661.370000	-16058.205000	0.000000	0.000000	0.000000	0.000000	-23.075875	-2.726177	-22.080375	-17.832910	-0.000000	0.000000	-0.000000	-0.000000	1.281840	0.366240	-0.076300	0.021179	0.981870	-0.019165	-1.000000	-1.000000	-1.000000	-1.000000	-1.000000	-1.000000	-1.000000	146.620690	0.000000	-1.000000	-1.000000	590841.000000	1772311841.760977
-22427.190000	-31215.285000	-31671.945000	-16080.255000	0.000000	0.000000	0.000000	0.000000	-16.643287	5.911032	-16.463469	-12.964032	-0.000000	0.000000	-0.000000	-0.000000	1.281840	0.366240	-0.076300	0.021179	0.981870	-0.019165	-1.000000	-1.000000	-1.000000	-1.000000	-1.000000	-1.000000	-1.000000	146.620690	0.000000	-1.000000	-1.000000	590842.000000	1772311841.760979
-22410.495000	-31192.965000	-31649.715000	-16056.720000	0.000000	0.000000	0.000000	0.000000	-2.292633	12.534488	-3.797456	-3.962606	-0.000000	0.000000	-0.000000	-0.000000	1.281840	0.366240	-0.076300	0.021179	0.981870	-0.019165	-1.000000	-1.000000	-1.000000	-1.000000	-1.000000	-1.000000	-1.000000	146.620690	0.000000	-1.000000	-1.000000	590843.000000	1772311841.764997
-22359.150000	-31172.490000	-31595.040000	-15999.120000	0.000000	0.000000	0.000000	0.000000	13.720947	16.297742	11.589109	8.261751	-0.000000	0.000000	-0.000000	-0.000000	1.281840	0.366240	-0.076300	0.021179	0.981870	-0.019165	-1.000000	-1.000000	-1.000000	-1.000000	-1.000000	-1.000000	-1.000000	146.620690	0.000000	-1.000000	-1.000000	590844.000000	1772311841.764999
-22330.620000	-31148.505000	-31566.645000	-15971.580000	0.000000	0.000000	0.000000	0.000000	26.251733	16.337094	25.722071	22.538060	-0.000000	0.000000	-0.000000	-0.000000	1.281840	0.366240	-0.076300	0.021179	0.981870	-0.019165	-1.000000	-1.000000	-1.000000	-1.000000	-1.000000	-1.000000	-1.000000	146.620690	0.000000	-1.000000	-1.000000	590845.000000	1772311841.768988
-22433.130000	-31119.840000	-31667.535000	-16061.355000	0.000000	0.000000	0.000000	0.000000	29.003971	12.176031	31.274714	31.459384	-0.000000	0.000000	-0.000000	-0.000000	1.281840	0.366240	-0.076300	0.021179	0.981870	-0.019165	-1.000000	-1.000000	-1.000000	-1.000000	-1.000000	-1.000000	-1.000000	146.620690	0.000000	-1.000000	-1.000000	590846.000000	1772311841.768991
-22456.980000	-31104.000000	-31693.140000	-16076.835000	0.000000	0.000000	0.000000	0.000000	14.669612	4.835320	18.897588	23.656937	-0.000000	0.000000	-0.000000	-0.000000	1.342880	0.656180	0.442540	0.021973	0.982847	-0.020325	-1.000000	-1.000000	-1.000000	-1.000000	-1.000000	-1.000000	-1.000000	146.620690	0.000000	-1.000000	-1.000000	590847.000000	1772311841.773120
-22389.480000	-31076.820000	-31631.625000	-16024.770000	0.000000	0.000000	0.000000	0.000000	-11.424734	-3.689436	-7.428076	0.529097	-0.000000	0.000000	-0.000000	-0.000000	1.342880	0.656180	0.442540	0.021973	0.982847	-0.020325	-1.000000	-1.000000	-1.000000	-1.000000	-1.000000	-1.000000	-1.000000	146.620690	0.000000	-1.000000	-1.000000	590848.000000	1772311841.773123
-22373.145000	-31058.235000	-31614.615000	-16019.865000	0.000000	0.000000	0.000000	0.000000	-28.851021	-11.017479	-27.206762	-20.045877	-0.000000	0.000000	-0.000000	-0.000000	1.342880	0.656180	0.442540	0.021973	0.982847	-0.020325	-1.000000	-1.000000	-1.000000	-1.000000	-1.000000	-1.000000	-1.000000	146.620690	0.000000	-1.000000	-1.000000	590849.000000	1772311841.777108
-22404.690000	-31047.300000	-31633.425000	-16050.420000	0.000000	0.000000	0.000000	0.000000	-25.215485	-15.322895	-26.338970	-24.739424	-0.000000	0.000000	-0.000000	-0.000000	1.342880	0.656180	0.442540	0.021973	0.982847	-0.020325	-1.000000	-1.000000	-1.000000	-1.000000	-1.000000	-1.000000	-1.000000	146.620690	0.000000	-1.000000	-1.000000	590850.000000	1772311841.777111
-22426.740000	-31048.560000	-31662.045000	-16081.335000	0.000000	0.000000	0.000000	0.000000	-9.425690	-16.556445	-11.684605	-17.659521	-0.000000	0.000000	-0.000000	-0.000000	1.342880	0.656180	0.442540	0.021973	0.982847	-0.020325	-1.000000	-1.000000	-1.000000	-1.000000	-1.000000	-1.000000	-1.000000	146.620690	0.000000	-1.000000	-1.000000	590851.000000	1772311841.781126
