Channel1	Channel2	Channel3	Channel4	Channel5	Channel6	Channel7	Channel8	FilteredChannel1	FilteredChannel2	FilteredChannel3	FilteredChannel4	FilteredChannel5	FilteredChannel6	FilteredChannel7	FilteredChannel8	GyroX	GyroY	GyroZ	AccX	AccY	AccZ	PPG1	PPG2	rawPPG1	rawPPG2	rawPPG3	Hr	Hrv	Battery	Trigger	PhysicalTrigger	AutoTrigger	NumMeasurements	Timestamp
-24445.170000	-34821.765000	-34204.680000	-18747.855000	0.000000	0.000000	0.000000	0.000000	0.016602	42.123728	-3.336309	-3.094685	-0.000000	0.000000	0.000000	0.000000	2.212700	-0.167860	-0.396760	0.005188	0.981138	0.006287	-1.000000	-1.000000	-1.000000	-1.000000	-1.000000	-1.000000	-1.000000	146.758621	0.000000	-1.000000	-1.000000	650437.000000	1772311961.326311
-24443.190000	-34780.950000	-34200.855000	-18743.760000	0.000000	0.000000	0.000000	0.000000	5.336688	37.665495	1.168439	0.993061	-0.000000	0.000000	0.000000	0.000000	2.212700	-0.167860	-0.396760	0.005188	0.981138	0.006287	-1.000000	-1.000000	-1.000000	-1.000000	-1.000000	-1.000000	-1.000000	146.758621	0.000000	-1.000000	-1.000000	650438.000000	1772311961.326314
-24454.215000	-34723.845000	-34214.805000	-18756.045000	0.000000	0.000000	0.000000	0.000000	8.716741	21.774665	5.459553	4.944380	-0.000000	0.000000	0.000000	0.000000	2.212700	-0.167860	-0.396760	0.005188	0.981138	0.006287	-1.000000	-1.000000	-1.000000	-1.000000	-1.000000	-1.000000	-1.000000	146.758621	0.000000	-1.000000	-1.000000	650439.000000	1772311961.330358
-24471.495000	-34677.855000	-34229.205000	-18769.590000	0.000000	0.000000	0.000000	0.000000	8.040273	0.395265	6.590754	6.197544	-0.000000	0.000000	0.000000	0.000000	2.212700	-0.167860	-0.396760	0.005188	0.981138	0.006287	-1.000000	-1.000000	-1.000000	-1.000000	-1.000000	-1.000000	-1.000000	146.758621	0.000000	-1.000000	-1.000000	650440.000000	1772311961.330362
-24474.420000	-34638.705000	-34229.250000	-18773.505000	0.000000	0.000000	0.000000	0.000000	3.329616	-19.834298	3.760037	3.859074	-0.000000	0.000000	0.000000	0.000000	3.052000	0.213640	-0.564620	0.005493	0.981321	0.006104	-1.000000	-1.000000	-1.000000	-1.000000	-1.000000	-1.000000	-1.000000	146.758621	0.000000	-1.000000	-1.000000	650441.000000	1772311961.334243
-24476.580000	-34601.805000	-34236.540000	-18776.385000	0.000000	0.000000	0.000000	0.000000	-2.407941	-34.233657	-0.608328	-0.126897	-0.000000	0.000000	0.000000	0.000000	3.052000	0.213640	-0.564620	0.005493	0.981321	0.006104	-1.000000	-1.000000	-1.000000	-1.000000	-1.000000	-1.000000	-1.000000	146.758621	0.000000	-1.000000	-1.000000	650442.000000	1772311961.334247
-24472.620000	-34552.080000	-34232.265000	-18767.970000	0.000000	0.000000	0.000000	0.000000	-5.266613	-40.290993	-3.170694	-2.499883	-0.000000	0.000000	0.000000	0.000000	3.052000	0.213640	-0.564620	0.005493	0.981321	0.006104	-1.000000	-1.000000	-1.000000	-1.000000	-1.000000	-1.000000	-1.000000	146.758621	0.000000	-1.000000	-1.000000	650443.000000	1772311961.338363
-24466.005000	-34508.655000	-34228.530000	-18764.730000	0.000000	0.000000	0.000000	0.000000	-3.576464	-37.091859	-2.359090	-1.438766	-0.000000	0.000000	0.000000	0.000000	3.052000	0.213640	-0.564620	0.005493	0.981321	0.006104	-1.000000	-1.000000	-1.000000	-1.000000	-1.000000	-1.000000	-1.000000	146.758621	0.000000	-1.000000	-1.000000	650444.000000	1772311961.338366
-24462.270000	-34511.130000	-34227.495000	-18764.640000	0.000000	0.000000	0.000000	0.000000	1.221972	-27.007642	1.006838	2.023411	-0.000000	0.000000	0.000000	0.000000	3.052000	0.213640	-0.564620	0.005493	0.981321	0.006104	-1.000000	-1.000000	-1.000000	-1.000000	-1.000000	-1.000000	-1.000000	146.758621	0.000000	-1.000000	-1.000000	650445.000000	1772311961.342289
-24458.220000	-34539.795000	-34223.580000	-18761.670000	0.000000	0.000000	0.000000	0.000000	5.894603	-16.776330	4.515579	4.998054	-0.000000	0.000000	0.000000	0.000000	3.052000	0.213640	-0.564620	0.005493	0.981321	0.006104	-1.000000	-1.000000	-1.000000	-1.000000	-1.000000	-1.000000	-1.000000	146.758621	0.000000	-1.000000	-1.000000	650446.000000	1772311961.342292
-24456.735000	-34563.465000	-34217.730000	-18757.305000	0.000000	0.000000	0.000000	0.000000	7.604939	-12.691186	6.026199	5.378487	-0.000000	0.000000	0.000000	0.000000	3.052000	0.213640	-0.564620	0.005493	0.981321	0.006104	-1.000000	-1.000000	-1.000000	-1.000000	-1.000000	-1.000000	-1.000000	146.758621	0.000000	-1.000000	-1.000000	650447.000000	1772311961.346296
-24454.215000	-34608.645000	-34209.540000	-18749.340000	0.000000	0.000000	0.000000	0.000000	5.537619	-14.539486	5.081858	3.303042	-0.000000	0.000000	0.000000	0.000000	3.052000	0.213640	-0.564620	0.005493	0.981321	0.006104	-1.000000	-1.000000	-1.000000	-1.000000	-1.000000	-1.000000	-1.000000	146.758621	0.000000	-1.000000	-1.000000	650448.000000	1772311961.346299
-24455.475000	-34674.930000	-34214.040000	-18752.220000	0.000000	0.000000	0.000000	0.000000	0.943689	-17.213923	2.405827	0.196705	-0.000000	0.000000	0.000000	0.000000	3.052000	0.213640	-0.564620	0.005493	0.981321	0.006104	-1.000000	-1.000000	-1.000000	-1.000000	-1.000000	-1.000000	-1.000000	146.758621	0.000000	-1.000000	-1.000000	650449.000000	1772311961.351644
-24454.440000	-34666.515000	-34214.715000	-18754.290000	0.000000	0.000000	0.000000	0.000000	-3.966300	-15.062576	-1.256095	-2.885439	-0.000000	0.000000	0.000000	0.000000	3.052000	0.213640	-0.564620	0.005493	0.981321	0.006104	-1.000000	-1.000000	-1.000000	-1.000000	-1.000000	-1.000000	-1.000000	146.758621	0.000000	-1.000000	-1.000000	650450.000000	1772311961.351647
-24451.065000	-34635.330000	-34211.655000	-18750.780000	0.000000	0.000000	0.000000	0.000000	-7.145311	-2.596126	-4.965487	-5.361464	-0.000000	0.000000	0.000000	0.000000	2.533160	0.183120	-0.625660	0.005615	0.981260	0.005676	-1.000000	-1.000000	-1.000000	-1.000000	-1.000000	-1.000000	-1.000000	146.758621	0.000000	-1.000000	-1.000000	650451.000000	1772311961.354433
-24446.565000	-34630.650000	-34206.030000	-18743.760000	0.000000	0.000000	0.000000	0.000000	-7.423780	21.065412	-7.128860	-6.299608	-0.000000	0.000000	0.000000	0.000000	2.533160	0.183120	-0.625660	0.005615	0.981260	0.005676	-1.000000	-1.000000	-1.000000	-1.000000	-1.000000	-1.000000	-1.000000	146.758621	0.000000	-1.000000	-1.000000	650452.000000	1772311961.354437
-24450.030000	-34658.370000	-34212.195000	-18750.240000	0.000000	0.000000	0.000000	0.000000	-5.108798	45.762054	-6.713300	-5.112231	-0.000000	0.000000	0.000000	0.000000	2.533160	0.183120	-0.625660	0.005615	0.981260	0.005676	-1.000000	-1.000000	-1.000000	-1.000000	-1.000000	-1.000000	-1.000000	146.758621	0.000000	-1.000000	-1.000000	650453.000000	1772311961.358464
-24455.970000	-34669.395000	-34216.965000	-18755.145000	0.000000	0.000000	0.000000	0.000000	-1.985929	55.957187	-4.537191	-2.803453	-0.000000	0.000000	0.000000	0.000000	2.533160	0.183120	-0.625660	0.005615	0.981260	0.005676	-1.000000	-1.000000	-1.000000	-1.000000	-1.000000	-1.000000	-1.000000	146.758621	0.000000	-1.000000	-1.000000	650454.000000	1772311961.358466
-24451.470000	-34684.965000	-34208.820000	-18748.980000	0.000000	0.000000	0.000000	0.000000	0.178137	44.772016	-2.071902	-0.857411	-0.000000	0.000000	0.000000	0.000000	2.533160	0.183120	-0.625660	0.005615	0.981260	0.005676	-1.000000	-1.000000	-1.000000	-1.000000	-1.000000	-1.000000	-1.000000	146.758621	0.000000	-1.000000	-1.000000	650455.000000	1772311961.362442
-24453.495000	-34717.320000	-34211.205000	-18748.395000	0.000000	0.000000	0.000000	0.000000	1.155192	18.572585	0.249011	0.562389	-0.000000	0.000000	0.000000	0.000000	2.533160	0.183120	-0.625660	0.005615	0.981260	0.005676	-1.000000	-1.000000	-1.000000	-1.000000	-1.000000	-1.000000	-1.000000	146.758621	0.000000	-1.000000	-1.000000	650456.000000	1772311961.362445
-24450.975000	-34758.315000	-34209.990000	-18746.730000	0.000000	0.000000	0.000000	0.000000	1.667225	-10.456487	2.347490	1.927416	-0.000000	0.000000	0.000000	0.000000	2.533160	0.183120	-0.625660	0.005615	0.981260	0.005676	-1.000000	-1.000000	-1.000000	-1.000000	-1.000000	-1.000000	-1.000000	146.758621	0.000000	-1.000000	-1.000000	650457.000000	1772311961.366298
-24446.610000	-34769.205000	-34206.255000	-18744.030000	0.000000	0.000000	0.000000	0.000000	2.206830	-31.495691	3.726057	3.091144	-0.000000	0.000000	0.000000	0.000000	2.533160	0.183120	-0.625660	0.005615	0.981260	0.005676	-1.000000	-1.000000	-1.000000	-1.000000	-1.000000	-1.000000	-1.000000	146.758621	0.000000	-1.000000	-1.000000	650458.000000	1772311961.366301
-24446.880000	-34770.600000	-34208.460000	-18746.370000	0.000000	0.000000	0.000000	0.000000	2.781328	-37.398996	4.021044	3.502538	-0.000000	0.000000	0.000000	0.000000	2.533160	0.183120	-0.625660	0.005615	0.981260	0.005676	-1.000000	-1.000000	-1.000000	-1.000000	-1.000000	-1.000000	-1.000000	146.758621	0.000000	-1.000000	-1.000000	650459.000000	1772311961.370450
-24440.265000	-34805.970000	-34202.070000	-18740.655000	0.000000	0.000000	0.000000	0.000000	3.028010	-27.532097	3.278963	2.867612	-0.000000	0.000000	0.000000	0.000000	2.533160	0.183120	-0.625660	0.005615	0.981260	0.005676	-1.000000	-1.000000	-1.000000	-1.000000	-1.000000	-1.000000	-1.000000	146.758621	0.000000	-1.000000	-1.000000	650460.000000	1772311961.370454
-24436.080000	-34848.945000	-34197.570000	-18735.255000	0.000000	0.000000	0.000000	0.000000	2.704450	-9.888882	2.021800	1.630829	-0.000000	0.000000	0.000000	0.000000	2.685760	0.198380	-0.473060	0.005920	0.981687	0.005737	-1.000000	-1.000000	-1.000000	-1.000000	-1.000000	-1.000000	-1.000000	146.758621	0.000000	-1.000000	-1.000000	650461.000000	1772311961.374593
-24440.175000	-34874.550000	-34202.430000	-18738.630000	0.000000	0.000000	0.000000	0.000000	1.765278	4.654332	0.785156	0.490971	-0.000000	0.000000	0.000000	0.000000	2.685760	0.198380	-0.473060	0.005920	0.981687	0.005737	-1.000000	-1.000000	-1.000000	-1.000000	-1.000000	-1.000000	-1.000000	146.758621	0.000000	-1.000000	-1.000000	650462.000000	1772311961.374596
-24442.425000	-34886.475000	-34202.970000	-18739.665000	0.000000	0.000000	0.000000	0.000000	0.012286	11.348638	-0.560190	-0.559712	-0.000000	0.000000	0.000000	0.000000	2.685760	0.198380	-0.473060	0.005920	0.981687	0.005737	-1.000000	-1.000000	-1.000000	-1.000000	-1.000000	-1.000000	-1.000000	146.758621	0.000000	-1.000000	-1.000000	650463.000000	1772311961.378375
-24447.915000	-34876.440000	-34208.055000	-18744.885000	0.000000	0.000000	0.000000	0.000000	-2.429370	13.095389	-2.203527	-1.867830	-0.000000	0.000000	0.000000	0.000000	2.685760	0.198380	-0.473060	0.005920	0.981687	0.005737	-1.000000	-1.000000	-1.000000	-1.000000	-1.000000	-1.000000	-1.000000	146.758621	0.000000	-1.000000	-1.000000	650464.000000	1772311961.378378
-24449.220000	-34863.345000	-34209.090000	-18745.515000	0.000000	0.000000	0.000000	0.000000	-4.634196	14.843420	-3.667243	-3.214374	-0.000000	0.000000	0.000000	0.000000	2.685760	0.198380	-0.473060	0.005920	0.981687	0.005737	-1.000000	-1.000000	-1.000000	-1.000000	-1.000000	-1.000000	-1.000000	146.758621	0.000000	-1.000000	-1.000000	650465.000000	1772311961.382532
-24440.490000	-34873.065000	-34200.000000	-18737.820000	0.000000	0.000000	0.000000	0.000000	-5.192420	17.676723	-3.935791	-3.653334	-0.000000	0.000000	0.000000	0.000000	2.685760	0.198380	-0.473060	0.005920	0.981687	0.005737	-1.000000	-1.000000	-1.000000	-1.000000	-1.000000	-1.000000	-1.000000	146.758621	0.000000	-1.000000	-1.000000	650466.000000	1772311961.382534
-24440.445000	-34884.045000	-34200.630000	-18737.550000	0.000000	0.000000	0.000000	0.000000	-3.190040	17.743096	-2.230901	-2.284649	-0.000000	0.000000	0.000000	0.000000	2.685760	0.198380	-0.473060	0.005920	0.981687	0.005737	-1.000000	-1.000000	-1.000000	-1.000000	-1.000000	-1.000000	-1.000000	146.758621	0.000000	-1.000000	-1.000000	650467.000000	1772311961.386373
-24448.860000	-34861.590000	-34206.525000	-18744.300000	0.000000	0.000000	0.000000	0.000000	0.371341	11.780040	0.657088	0.313999	-0.000000	0.000000	0.000000	0.000000	2.685760	0.198380	-0.473060	0.005920	0.981687	0.005737	-1.000000	-1.000000	-1.000000	-1.000000	-1.000000	-1.000000	-1.000000	146.758621	0.000000	-1.000000	-1.000000	650468.000000	1772311961.386375
-24456.150000	-34874.865000	-34202.925000	-18738.360000	0.000000	0.000000	0.000000	0.000000	2.885043	1.739464	2.739943	2.352886	-0.000000	0.000000	0.000000	0.000000	2.685760	0.198380	-0.473060	0.005920	0.981687	0.005737	-1.000000	-1.000000	-1.000000	-1.000000	-1.000000	-1.000000	-1.000000	146.758621	0.000000	-1.000000	-1.000000	650469.000000	1772311961.390563
-24442.965000	-34906.230000	-34199.955000	-18733.590000	0.000000	0.000000	0.000000	0.000000	3.039314	-8.759523	3.097570	3.011613	-0.000000	0.000000	0.000000	0.000000	2.685760	0.198380	-0.473060	0.005920	0.981687	0.005737	-1.000000	-1.000000	-1.000000	-1.000000	-1.000000	-1.000000	-1.000000	146.758621	0.000000	-1.000000	-1.000000	650470.000000	1772311961.390566
-24448.185000	-34904.430000	-34215.390000	-18748.485000	0.000000	0.000000	0.000000	0.000000	2.127138	-17.716495	2.094921	2.546685	-0.000000	0.000000	0.000000	0.000000	2.289000	0.381500	-0.640920	0.005310	0.981992	0.005859	-1.000000	-1.000000	-1.000000	-1.000000	-1.000000	-1.000000	-1.000000	146.758621	0.000000	-1.000000	-1.000000	650471.000000	1772311961.394421
-24444.270000	-34880.355000	-34214.445000	-18748.980000	0.000000	0.000000	0.000000	0.000000	1.613426	-21.844935	0.068912	0.894001	-0.000000	0.000000	0.000000	0.000000	2.289000	0.381500	-0.640920	0.005310	0.981992	0.005859	-1.000000	-1.000000	-1.000000	-1.000000	-1.000000	-1.000000	-1.000000	146.758621	0.000000	-1.000000	-1.000000	650472.000000	1772311961.394424
-24438.600000	-34852.410000	-34208.325000	-18743.445000	0.000000	0.000000	0.000000	0.000000	1.600167	-16.905445	-2.008618	-1.383928	-0.000000	0.000000	0.000000	0.000000	2.289000	0.381500	-0.640920	0.005310	0.981992	0.005859	-1.000000	-1.000000	-1.000000	-1.000000	-1.000000	-1.000000	-1.000000	146.758621	0.000000	-1.000000	-1.000000	650473.000000	1772311961.398512
-24443.640000	-34848.045000	-34213.275000	-18747.765000	0.000000	0.000000	0.000000	0.000000	1.607783	-3.717501	-2.486422	-2.583486	-0.000000	0.000000	0.000000	0.000000	2.289000	0.381500	-0.640920	0.005310	0.981992	0.005859	-1.000000	-1.000000	-1.000000	-1.000000	-1.000000	-1.000000	-1.000000	146.758621	0.000000	-1.000000	-1.000000	650474.000000	1772311961.398515
-24454.800000	-34848.495000	-34223.940000	-18754.875000	0.000000	0.000000	0.000000	0.000000	0.773638	9.952236	-1.310803	-2.071041	-0.000000	0.000000	0.000000	0.000000	2.289000	0.381500	-0.640920	0.005310	0.981992	0.005859	-1.000000	-1.000000	-1.000000	-1.000000	-1.000000	-1.000000	-1.000000	146.758621	0.000000	-1.000000	-1.000000	650475.000000	1772311961.402584
-24444.945000	-34870.410000	-34212.330000	-18742.680000	0.000000	0.000000	0.000000	0.000000	-1.269364	15.226217	0.117224	-0.667361	-0.000000	0.000000	0.000000	0.000000	2.289000	0.381500	-0.640920	0.005310	0.981992	0.005859	-1.000000	-1.000000	-1.000000	-1.000000	-1.000000	-1.000000	-1.000000	146.758621	0.000000	-1.000000	-1.000000	650476.000000	1772311961.402587
-24434.820000	-34867.260000	-34207.380000	-18740.745000	0.000000	0.000000	0.000000	0.000000	-2.908984	9.302388	1.437974	1.165736	-0.000000	0.000000	0.000000	0.000000	2.289000	0.381500	-0.640920	0.005310	0.981992	0.005859	-1.000000	-1.000000	-1.000000	-1.000000	-1.000000	-1.000000	-1.000000	146.758621	0.000000	-1.000000	-1.000000	650477.000000	1772311961.406501
-24432.345000	-34870.500000	-34203.960000	-18737.685000	0.000000	0.000000	0.000000	0.000000	-2.184321	-2.557137	3.028380	3.118533	-0.000000	0.000000	0.000000	0.000000	2.289000	0.381500	-0.640920	0.005310	0.981992	0.005859	-1.000000	-1.000000	-1.000000	-1.000000	-1.000000	-1.000000	-1.000000	146.758621	0.000000	-1.000000	-1.000000	650478.000000	1772311961.406504
-24443.955000	-34866.090000	-34213.545000	-18745.470000	0.000000	0.000000	0.000000	0.000000	0.156531	-11.839068	4.028050	3.996959	-0.000000	0.000000	0.000000	0.000000	2.289000	0.381500	-0.640920	0.005310	0.981992	0.005859	-1.000000	-1.000000	-1.000000	-1.000000	-1.000000	-1.000000	-1.000000	146.758621	0.000000	-1.000000	-1.000000	650479.000000	1772311961.410523
-24458.085000	-34852.770000	-34226.370000	-18755.820000	0.000000	0.000000	0.000000	0.000000	1.126375	-13.205884	2.712209	2.487731	-0.000000	0.000000	0.000000	0.000000	2.289000	0.381500	-0.640920	0.005310	0.981992	0.005859	-1.000000	-1.000000	-1.000000	-1.000000	-1.000000	-1.000000	-1.000000	146.758621	0.000000	-1.000000	-1.000000	650480.000000	1772311961.410525
-24456.645000	-34852.455000	-34223.670000	-18753.570000	0.000000	0.000000	0.000000	0.000000	-0.784077	-6.950289	-1.115544	-1.154674	-0.000000	0.000000	0.000000	0.000000	2.731540	0.244160	-0.854560	0.005554	0.981931	0.005859	-1.000000	-1.000000	-1.000000	-1.000000	-1.000000	-1.000000	-1.000000	146.758621	0.000000	-1.000000	-1.000000	650481.000000	1772311961.414313
-24453.810000	-34845.615000	-34220.430000	-18751.140000	0.000000	0.000000	0.000000	0.000000	-3.510979	2.257960	-4.893838	-4.527306	-0.000000	0.000000	0.000000	0.000000	2.731540	0.244160	-0.854560	0.005554	0.981931	0.005859	-1.000000	-1.000000	-1.000000	-1.000000	-1.000000	-1.000000	-1.000000	146.758621	0.000000	-1.000000	-1.000000	650482.000000	1772311961.414315
-24448.725000	-34817.400000	-34213.095000	-18744.840000	0.000000	0.000000	0.000000	0.000000	-3.797223	9.445996	-5.496076	-5.000016	-0.000000	0.000000	0.000000	0.000000	2.731540	0.244160	-0.854560	0.005554	0.981931	0.005859	-1.000000	-1.000000	-1.000000	-1.000000	-1.000000	-1.000000	-1.000000	146.758621	0.000000	-1.000000	-1.000000	650483.000000	1772311961.418605
-24447.915000	-34779.645000	-34215.570000	-18744.975000	0.000000	0.000000	0.000000	0.000000	-0.780908	13.167033	-2.416406	-2.212542	-0.000000	0.000000	0.000000	0.000000	2.731540	0.244160	-0.854560	0.005554	0.981931	0.005859	-1.000000	-1.000000	-1.000000	-1.000000	-1.000000	-1.000000	-1.000000	146.758621	0.000000	-1.000000	-1.000000	650484.000000	1772311961.418609
-24449.355000	-34771.005000	-34221.105000	-18750.375000	0.000000	0.000000	0.000000	0.000000	3.420246	14.063696	1.776033	1.623022	-0.000000	0.000000	0.000000	0.000000	2.731540	0.244160	-0.854560	0.005554	0.981931	0.005859	-1.000000	-1.000000	-1.000000	-1.000000	-1.000000	-1.000000	-1.000000	146.758621	0.000000	-1.000000	-1.000000	650485.000000	1772311961.422556
-24454.755000	-34773.030000	-34228.080000	-18755.280000	0.000000	0.000000	0.000000	0.000000	5.811152	11.104776	3.850008	3.642795	-0.000000	0.000000	0.000000	0.000000	2.731540	0.244160	-0.854560	0.005554	0.981931	0.005859	-1.000000	-1.000000	-1.000000	-1.000000	-1.000000	-1.000000	-1.000000	146.620690	0.000000	-1.000000	-1.000000	650486.000000	1772311961.422559
-24460.785000	-34758.495000	-34233.030000	-18759.915000	0.000000	0.000000	0.000000	0.000000	4.817790	2.988099	2.640053	2.688922	-0.000000	0.000000	0.000000	0.000000	2.731540	0.244160	-0.854560	0.005554	0.981931	0.005859	-1.000000	-1.000000	-1.000000	-1.000000	-1.000000	-1.000000	-1.000000	146.620690	0.000000	-1.000000	-1.000000	650487.000000	1772311961.426487
-24462.855000	-34747.830000	-34234.335000	-18762.435000	0.000000	0.000000	0.000000	0.000000	1.214649	-7.698347	-0.375666	-0.062795	-0.000000	0.000000	0.000000	0.000000	2.731540	0.244160	-0.854560	0.005554	0.981931	0.005859	-1.000000	-1.000000	-1.000000	-1.000000	-1.000000	-1.000000	-1.000000	146.620690	0.000000	-1.000000	-1.000000	650488.000000	1772311961.426489
-24460.335000	-34710.885000	-34232.130000	-18763.380000	0.000000	0.000000	0.000000	0.000000	-2.532599	-15.143049	-2.615903	-2.423399	-0.000000	0.000000	0.000000	0.000000	2.731540	0.244160	-0.854560	0.005554	0.981931	0.005859	-1.000000	-1.000000	-1.000000	-1.000000	-1.000000	-1.000000	-1.000000	146.620690	0.000000	-1.000000	-1.000000	650489.000000	1772311961.430670
-24466.455000	-34663.320000	-34240.185000	-18767.340000	0.000000	0.000000	0.000000	0.000000	-4.187303	-14.487107	-2.585983	-2.926574	-0.000000	0.000000	0.000000	0.000000	2.731540	0.244160	-0.854560	0.005554	0.981931	0.005859	-1.000000	-1.000000	-1.000000	-1.000000	-1.000000	-1.000000	-1.000000	146.620690	0.000000	-1.000000	-1.000000	650490.000000	1772311961.430672
-24462.630000	-34637.715000	-34238.520000	-18763.695000	0.000000	0.000000	0.000000	0.000000	-3.335407	-5.657029	-0.853628	-1.552129	-0.000000	0.000000	0.000000	0.000000	3.067260	0.289940	-0.534100	0.005676	0.981626	0.006287	-1.000000	-1.000000	-1.000000	-1.000000	-1.000000	-1.000000	-1.000000	146.620690	0.000000	-1.000000	-1.000000	650491.000000	1772311961.435726
-24458.940000	-34636.095000	-34235.640000	-18760.860000	0.000000	0.000000	0.000000	0.000000	-0.907774	5.025874	1.242827	0.865285	-0.000000	0.000000	0.000000	0.000000	3.067260	0.289940	-0.534100	0.005676	0.981626	0.006287	-1.000000	-1.000000	-1.000000	-1.000000	-1.000000	-1.000000	-1.000000	146.620690	0.000000	-1.000000	-1.000000	650492.000000	1772311961.435729
-24454.080000	-34632.630000	-34233.300000	-18758.160000	0.000000	0.000000	0.000000	0.000000	1.949920	9.102112	2.946712	3.276531	-0.000000	0.000000	0.000000	0.000000	3.067260	0.289940	-0.534100	0.005676	0.981626	0.006287	-1.000000	-1.000000	-1.000000	-1.000000	-1.000000	-1.000000	-1.000000	146.620690	0.000000	-1.000000	-1.000000	650493.000000	1772311961.438571
-24449.670000	-34632.405000	-34230.645000	-18755.415000	0.000000	0.000000	0.000000	0.000000	4.126995	3.496268	3.862474	4.629128	-0.000000	0.000000	0.000000	0.000000	3.067260	0.289940	-0.534100	0.005676	0.981626	0.006287	-1.000000	-1.000000	-1.000000	-1.000000	-1.000000	-1.000000	-1.000000	146.620690	0.000000	-1.000000	-1.000000	650494.000000	1772311961.438574
-24452.955000	-34606.395000	-34229.610000	-18754.200000	0.000000	0.000000	0.000000	0.000000	4.623808	-6.875006	3.644488	4.279527	-0.000000	0.000000	0.000000	0.000000	3.067260	0.289940	-0.534100	0.005676	0.981626	0.006287	-1.000000	-1.000000	-1.000000	-1.000000	-1.000000	-1.000000	-1.000000	146.620690	0.000000	-1.000000	-1.000000	650495.000000	1772311961.442610
-24461.010000	-34587.675000	-34239.465000	-18763.425000	0.000000	0.000000	0.000000	0.000000	2.800735	-13.558185	2.041671	2.157346	-0.000000	0.000000	0.000000	0.000000	3.067260	0.289940	-0.534100	0.005676	0.981626	0.006287	-1.000000	-1.000000	-1.000000	-1.000000	-1.000000	-1.000000	-1.000000	146.620690	0.000000	-1.000000	-1.000000	650496.000000	1772311961.442613
-24460.560000	-34595.730000	-34238.835000	-18762.795000	0.000000	0.000000	0.000000	0.000000	-0.939773	-12.141476	-0.832621	-1.240590	-0.000000	0.000000	0.000000	0.000000	3.067260	0.289940	-0.534100	0.005676	0.981626	0.006287	-1.000000	-1.000000	-1.000000	-1.000000	-1.000000	-1.000000	-1.000000	146.620690	0.000000	-1.000000	-1.000000	650497.000000	1772311961.446636
-24465.555000	-34596.540000	-34237.935000	-18760.320000	0.000000	0.000000	0.000000	0.000000	-4.742705	-5.612885	-3.798874	-4.439663	-0.000000	0.000000	0.000000	0.000000	3.067260	0.289940	-0.534100	0.005676	0.981626	0.006287	-1.000000	-1.000000	-1.000000	-1.000000	-1.000000	-1.000000	-1.000000	146.620690	0.000000	-1.000000	-1.000000	650498.000000	1772311961.446639
-24466.680000	-34591.230000	-34239.195000	-18761.400000	0.000000	0.000000	0.000000	0.000000	-6.539899	0.537081	-5.111218	-5.612175	-0.000000	0.000000	0.000000	0.000000	3.067260	0.289940	-0.534100	0.005676	0.981626	0.006287	-1.000000	-1.000000	-1.000000	-1.000000	-1.000000	-1.000000	-1.000000	146.620690	0.000000	-1.000000	-1.000000	650499.000000	1772311961.452166
-24459.390000	-34590.690000	-34234.785000	-18757.125000	0.000000	0.000000	0.000000	0.000000	-5.400555	3.946549	-4.048863	-4.195531	-0.000000	0.000000	0.000000	0.000000	3.067260	0.289940	-0.534100	0.005676	0.981626	0.006287	-1.000000	-1.000000	-1.000000	-1.000000	-1.000000	-1.000000	-1.000000	146.620690	0.000000	-1.000000	-1.000000	650500.000000	1772311961.452169
-24446.520000	-34589.745000	-34225.650000	-18751.590000	0.000000	0.000000	0.000000	0.000000	-1.519949	5.148425	-1.153735	-1.080679	-0.000000	0.000000	0.000000	0.000000	3.326680	0.350980	-0.564620	0.005981	0.981931	0.005615	-1.000000	-1.000000	-1.000000	-1.000000	-1.000000	-1.000000	-1.000000	146.620690	0.000000	-1.000000	-1.000000	650501.000000	1772311961.454698
-24459.345000	-34541.505000	-34237.845000	-18763.200000	0.000000	0.000000	0.000000	0.000000	3.442714	6.028167	2.113611	2.021130	-0.000000	0.000000	0.000000	0.000000	3.326680	0.350980	-0.564620	0.005981	0.981931	0.005615	-1.000000	-1.000000	-1.000000	-1.000000	-1.000000	-1.000000	-1.000000	146.620690	0.000000	-1.000000	-1.000000	650502.000000	1772311961.454702
-24468.255000	-34510.410000	-34245.810000	-18770.940000	0.000000	0.000000	0.000000	0.000000	6.196456	9.111582	3.497686	3.062516	-0.000000	0.000000	0.000000	0.000000	3.326680	0.350980	-0.564620	0.005981	0.981931	0.005615	-1.000000	-1.000000	-1.000000	-1.000000	-1.000000	-1.000000	-1.000000	146.620690	0.000000	-1.000000	-1.000000	650503.000000	1772311961.460101
-24463.980000	-34517.070000	-34241.220000	-18770.805000	0.000000	0.000000	0.000000	0.000000	4.679223	13.673661	1.934546	1.371359	-0.000000	0.000000	0.000000	0.000000	3.326680	0.350980	-0.564620	0.005981	0.981931	0.005615	-1.000000	-1.000000	-1.000000	-1.000000	-1.000000	-1.000000	-1.000000	146.620690	0.000000	-1.000000	-1.000000	650504.000000	1772311961.460105
-24463.980000	-34536.780000	-34240.680000	-18769.455000	0.000000	0.000000	0.000000	0.000000	0.665054	13.724694	-0.774350	-1.203715	-0.000000	0.000000	0.000000	0.000000	3.326680	0.350980	-0.564620	0.005981	0.981931	0.005615	-1.000000	-1.000000	-1.000000	-1.000000	-1.000000	-1.000000	-1.000000	146.620690	0.000000	-1.000000	-1.000000	650505.000000	1772311961.462668
-24464.250000	-34548.840000	-34237.215000	-18761.715000	0.000000	0.000000	0.000000	0.000000	-2.469050	4.565005	-2.029016	-2.066905	-0.000000	0.000000	0.000000	0.000000	3.326680	0.350980	-0.564620	0.005981	0.981931	0.005615	-1.000000	-1.000000	-1.000000	-1.000000	-1.000000	-1.000000	-1.000000	146.620690	0.000000	-1.000000	-1.000000	650506.000000	1772311961.462671
-24463.980000	-34529.175000	-34234.830000	-18757.215000	0.000000	0.000000	0.000000	0.000000	-3.120079	-9.960408	-1.054639	-0.266368	-0.000000	0.000000	0.000000	0.000000	3.326680	0.350980	-0.564620	0.005981	0.981931	0.005615	-1.000000	-1.000000	-1.000000	-1.000000	-1.000000	-1.000000	-1.000000	146.620690	0.000000	-1.000000	-1.000000	650507.000000	1772311961.466637
-24459.615000	-34520.670000	-34234.065000	-18757.485000	0.000000	0.000000	0.000000	0.000000	-1.733179	-19.868135	1.046023	2.839672	-0.000000	0.000000	0.000000	0.000000	3.326680	0.350980	-0.564620	0.005981	0.981931	0.005615	-1.000000	-1.000000	-1.000000	-1.000000	-1.000000	-1.000000	-1.000000	146.620690	0.000000	-1.000000	-1.000000	650508.000000	1772311961.466640
-24454.170000	-34554.015000	-34231.770000	-18756.540000	0.000000	0.000000	0.000000	0.000000	0.537959	-19.324883	2.620689	4.776169	-0.000000	0.000000	0.000000	0.000000	3.326680	0.350980	-0.564620	0.005981	0.981931	0.005615	-1.000000	-1.000000	-1.000000	-1.000000	-1.000000	-1.000000	-1.000000	146.620690	0.000000	-1.000000	-1.000000	650509.000000	1772311961.470659
-24445.845000	-34581.735000	-34221.645000	-18748.350000	0.000000	0.000000	0.000000	0.000000	2.675318	-12.163858	2.878082	4.204547	-0.000000	0.000000	0.000000	0.000000	3.326680	0.350980	-0.564620	0.005981	0.981931	0.005615	-1.000000	-1.000000	-1.000000	-1.000000	-1.000000	-1.000000	-1.000000	146.620690	0.000000	-1.000000	-1.000000	650510.000000	1772311961.470661
-24439.320000	-34581.285000	-34213.770000	-18740.790000	0.000000	0.000000	0.000000	0.000000	3.962473	-5.091461	2.318566	1.976937	-0.000000	0.000000	0.000000	0.000000	2.731540	0.244160	-0.412020	0.005798	0.982664	0.004211	-1.000000	-1.000000	-1.000000	-1.000000	-1.000000	-1.000000	-1.000000	146.620690	0.000000	-1.000000	-1.000000	650511.000000	1772311961.477757
-24448.770000	-34547.310000	-34222.770000	-18749.070000	0.000000	0.000000	0.000000	0.000000	3.662713	1.007986	1.401653	-0.452171	-0.000000	0.000000	0.000000	0.000000	2.731540	0.244160	-0.412020	0.005798	0.982664	0.004211	-1.000000	-1.000000	-1.000000	-1.000000	-1.000000	-1.000000	-1.000000	146.620690	0.000000	-1.000000	-1.000000	650512.000000	1772311961.477760
-24464.430000	-34512.705000	-34238.205000	-18765.945000	0.000000	0.000000	0.000000	0.000000	0.866626	9.632705	-0.659661	-3.026393	-0.000000	0.000000	0.000000	0.000000	2.731540	0.244160	-0.412020	0.005798	0.982664	0.004211	-1.000000	-1.000000	-1.000000	-1.000000	-1.000000	-1.000000	-1.000000	146.620690	0.000000	-1.000000	-1.000000	650513.000000	1772311961.480257
-24470.820000	-34509.600000	-34240.455000	-18768.330000	0.000000	0.000000	0.000000	0.000000	-4.211145	20.565503	-4.355520	-6.149990	-0.000000	0.000000	0.000000	0.000000	2.731540	0.244160	-0.412020	0.005798	0.982664	0.004211	-1.000000	-1.000000	-1.000000	-1.000000	-1.000000	-1.000000	-1.000000	146.620690	0.000000	-1.000000	-1.000000	650514.000000	1772311961.480260
-24466.455000	-34511.400000	-34238.115000	-18767.115000	0.000000	0.000000	0.000000	0.000000	-8.826210	26.992992	-7.723533	-8.392022	-0.000000	0.000000	0.000000	0.000000	2.731540	0.244160	-0.412020	0.005798	0.982664	0.004211	-1.000000	-1.000000	-1.000000	-1.000000	-1.000000	-1.000000	-1.000000	146.620690	0.000000	-1.000000	-1.000000	650515.000000	1772311961.482726
-24462.855000	-34500.240000	-34237.395000	-18764.685000	0.000000	0.000000	0.000000	0.000000	-9.303850	22.476663	-7.758765	-7.329053	-0.000000	0.000000	0.000000	0.000000	2.731540	0.244160	-0.412020	0.005798	0.982664	0.004211	-1.000000	-1.000000	-1.000000	-1.000000	-1.000000	-1.000000	-1.000000	146.620690	0.000000	-1.000000	-1.000000	650516.000000	1772311961.482729
-24464.655000	-34511.805000	-34239.330000	-18765.045000	0.000000	0.000000	0.000000	0.000000	-4.651084	8.027538	-3.773864	-2.546313	-0.000000	0.000000	0.000000	0.000000	2.731540	0.244160	-0.412020	0.005798	0.982664	0.004211	-1.000000	-1.000000	-1.000000	-1.000000	-1.000000	-1.000000	-1.000000	146.620690	0.000000	-1.000000	-1.000000	650517.000000	1772311961.493842
-24464.655000	-34511.805000	-34239.330000	-18765.045000	0.000000	0.000000	0.000000	0.000000	2.329038	-9.464984	1.940672	3.599281	-0.000000	0.000000	0.000000	0.000000	2.731540	0.244160	-0.412020	0.005798	0.982664	0.004211	-1.000000	-1.000000	-1.000000	-1.000000	-1.000000	-1.000000	-1.000000	146.620690	0.000000	-1.000000	-1.000000	650518.000000	1772311961.493845
-24464.655000	-34511.805000	-34239.330000	-18765.045000	0.000000	0.000000	0.000000	0.000000	7.662333	-22.386892	6.364465	7.974184	-0.000000	0.000000	0.000000	0.000000	2.731540	0.244160	-0.412020	0.005798	0.982664	0.004211	-1.000000	-1.000000	-1.000000	-1.000000	-1.000000	-1.000000	-1.000000	146.620690	0.000000	-1.000000	-1.000000	650519.000000	1772311961.493847
-24464.655000	-34511.805000	-34239.330000	-18765.045000	0.000000	0.000000	0.000000	0.000000	9.138510	-25.915713	7.823208	8.840770	-0.000000	0.000000	0.000000	0.000000	2.731540	0.244160	-0.412020	0.005798	0.982664	0.004211	-1.000000	-1.000000	-1.000000	-1.000000	-1.000000	-1.000000	-1.000000	146.620690	0.000000	-1.000000	-1.000000	650522.000000	1772311961.500712
-24464.655000	-34511.805000	-34239.330000	-18765.045000	0.000000	0.000000	0.000000	0.000000	6.990821	-19.973146	6.397119	6.483694	-0.000000	0.000000	0.000000	0.000000	2.731540	0.244160	-0.412020	0.005798	0.982664	0.004211	-1.000000	-1.000000	-1.000000	-1.000000	-1.000000	-1.000000	-1.000000	146.620690	0.000000	-1.000000	-1.000000	650523.000000	1772311961.500714
-24464.655000	-34511.805000	-34239.330000	-18765.045000	0.000000	0.000000	0.000000	0.000000	2.951987	-8.557238	3.290515	2.499440	-0.000000	0.000000	0.000000	0.000000	2.731540	0.244160	-0.412020	0.005798	0.982664	0.004211	-1.000000	-1.000000	-1.000000	-1.000000	-1.000000	-1.000000	-1.000000	146.620690	0.000000	-1.000000	-1.000000	650524.000000	1772311961.500716
-24464.655000	-34511.805000	-34239.330000	-18765.045000	0.000000	0.000000	0.000000	0.000000	-1.003780	3.045314	-0.014397	-1.296668	-0.000000	0.000000	0.000000	0.000000	2.731540	0.244160	-0.412020	0.005798	0.982664	0.004211	-1.000000	-1.000000	-1.000000	-1.000000	-1.000000	-1.000000	-1.000000	146.620690	0.000000	-1.000000	-1.000000	650525.000000	1772311961.500718
-24455.340000	-34605.090000	-34231.320000	-18758.610000	0.000000	0.000000	0.000000	0.000000	-3.380787	9.198383	-2.266262	-3.566784	-0.000000	0.000000	0.000000	0.000000	1.495480	0.366240	-0.473060	0.005493	0.983640	0.003662	-1.000000	-1.000000	-1.000000	-1.000000	-1.000000	-1.000000	-1.000000	146.620690	0.000000	-1.000000	-1.000000	650528.000000	1772311961.508938
-24448.410000	-34610.085000	-34222.770000	-18749.430000	0.000000	0.000000	0.000000	0.000000	-3.399869	5.724028	-2.630995	-3.617645	-0.000000	0.000000	0.000000	0.000000	1.495480	0.366240	-0.473060	0.005493	0.983640	0.003662	-1.000000	-1.000000	-1.000000	-1.000000	-1.000000	-1.000000	-1.000000	146.620690	0.000000	-1.000000	-1.000000	650529.000000	1772311961.508941
-24452.145000	-34594.920000	-34223.805000	-18750.330000	0.000000	0.000000	0.000000	0.000000	-1.626274	-3.087148	-1.309314	-1.801421	-0.000000	0.000000	0.000000	0.000000	1.495480	0.366240	-0.473060	0.005493	0.983640	0.003662	-1.000000	-1.000000	-1.000000	-1.000000	-1.000000	-1.000000	-1.000000	146.620690	0.000000	-1.000000	-1.000000	650530.000000	1772311961.512795
-24459.120000	-34560.630000	-34230.465000	-18756.945000	0.000000	0.000000	0.000000	0.000000	-0.110451	-5.390768	0.030056	0.114697	-0.000000	0.000000	0.000000	0.000000	1.495480	0.366240	-0.473060	0.005493	0.983640	0.003662	-1.000000	-1.000000	-1.000000	-1.000000	-1.000000	-1.000000	-1.000000	146.620690	0.000000	-1.000000	-1.000000	650531.000000	1772311961.512798
-24469.290000	-34532.280000	-34241.670000	-18767.340000	0.000000	0.000000	0.000000	0.000000	-0.700946	5.067075	-0.524437	0.078268	-0.000000	0.000000	0.000000	0.000000	1.495480	0.366240	-0.473060	0.005493	0.983640	0.003662	-1.000000	-1.000000	-1.000000	-1.000000	-1.000000	-1.000000	-1.000000	146.620690	0.000000	-1.000000	-1.000000	650532.000000	1772311961.516992
-24461.865000	-34550.820000	-34234.470000	-18761.490000	0.000000	0.000000	0.000000	0.000000	-2.974789	21.366056	-2.937572	-2.048421	-0.000000	0.000000	0.000000	0.000000	1.495480	0.366240	-0.473060	0.005493	0.983640	0.003662	-1.000000	-1.000000	-1.000000	-1.000000	-1.000000	-1.000000	-1.000000	146.620690	0.000000	-1.000000	-1.000000	650533.000000	1772311961.516995
-24451.920000	-34564.590000	-34223.445000	-18751.320000	0.000000	0.000000	0.000000	0.000000	-4.225165	29.465724	-4.620165	-3.820921	-0.000000	0.000000	0.000000	0.000000	1.602300	0.213640	-0.457800	0.004944	0.983762	0.004944	-1.000000	-1.000000	-1.000000	-1.000000	-1.000000	-1.000000	-1.000000	146.620690	0.000000	-1.000000	-1.000000	650534.000000	1772311961.520892
-24446.295000	-34584.435000	-34217.325000	-18746.055000	0.000000	0.000000	0.000000	0.000000	-2.217493	21.002444	-3.022930	-2.681830	-0.000000	0.000000	0.000000	0.000000	1.602300	0.213640	-0.457800	0.004944	0.983762	0.004944	-1.000000	-1.000000	-1.000000	-1.000000	-1.000000	-1.000000	-1.000000	146.620690	0.000000	-1.000000	-1.000000	650535.000000	1772311961.520894
-24445.080000	-34619.580000	-34218.540000	-18747.585000	0.000000	0.000000	0.000000	0.000000	2.140181	-0.142698	1.223028	0.988945	-0.000000	0.000000	0.000000	0.000000	1.602300	0.213640	-0.457800	0.004944	0.983762	0.004944	-1.000000	-1.000000	-1.000000	-1.000000	-1.000000	-1.000000	-1.000000	146.620690	0.000000	-1.000000	-1.000000	650536.000000	1772311961.524914
-24444.585000	-34631.280000	-34215.570000	-18745.290000	0.000000	0.000000	0.000000	0.000000	5.661351	-22.451159	4.901840	4.302935	-0.000000	0.000000	0.000000	0.000000	1.602300	0.213640	-0.457800	0.004944	0.983762	0.004944	-1.000000	-1.000000	-1.000000	-1.000000	-1.000000	-1.000000	-1.000000	146.620690	0.000000	-1.000000	-1.000000	650537.000000	1772311961.524917
-24440.445000	-34637.715000	-34209.180000	-18740.295000	0.000000	0.000000	0.000000	0.000000	6.011433	-34.380364	5.656048	5.042346	-0.000000	0.000000	0.000000	0.000000	1.602300	0.213640	-0.457800	0.004944	0.983762	0.004944	-1.000000	-1.000000	-1.000000	-1.000000	-1.000000	-1.000000	-1.000000	146.620690	0.000000	-1.000000	-1.000000	650538.000000	1772311961.528935
-24449.535000	-34654.635000	-34217.820000	-18746.010000	0.000000	0.000000	0.000000	0.000000	3.219454	-30.562773	3.526724	3.206528	-0.000000	0.000000	0.000000	0.000000	1.602300	0.213640	-0.457800	0.004944	0.983762	0.004944	-1.000000	-1.000000	-1.000000	-1.000000	-1.000000	-1.000000	-1.000000	146.620690	0.000000	-1.000000	-1.000000	650539.000000	1772311961.528938
-24448.005000	-34650.450000	-34218.090000	-18748.620000	0.000000	0.000000	0.000000	0.000000	-1.147348	-14.421046	-0.248380	-0.067424	-0.000000	0.000000	0.000000	0.000000	1.602300	0.213640	-0.457800	0.004944	0.983762	0.004944	-1.000000	-1.000000	-1.000000	-1.000000	-1.000000	-1.000000	-1.000000	146.620690	0.000000	-1.000000	-1.000000	650540.000000	1772311961.532905
-24447.600000	-34647.345000	-34217.550000	-18747.990000	0.000000	0.000000	0.000000	0.000000	-4.897707	5.636674	-3.967011	-3.341826	-0.000000	0.000000	0.000000	0.000000	1.602300	0.213640	-0.457800	0.004944	0.983762	0.004944	-1.000000	-1.000000	-1.000000	-1.000000	-1.000000	-1.000000	-1.000000	146.620690	0.000000	-1.000000	-1.000000	650541.000000	1772311961.532908
-24439.320000	-34639.155000	-34208.775000	-18741.240000	0.000000	0.000000	0.000000	0.000000	-5.994267	21.682830	-5.627912	-4.943867	-0.000000	0.000000	0.000000	0.000000	1.602300	0.213640	-0.457800	0.004944	0.983762	0.004944	-1.000000	-1.000000	-1.000000	-1.000000	-1.000000	-1.000000	-1.000000	146.620690	0.000000	-1.000000	-1.000000	650542.000000	1772311961.537788
-24439.320000	-34643.520000	-34213.005000	-18742.725000	0.000000	0.000000	0.000000	0.000000	-3.880162	28.681826	-4.280641	-3.916581	-0.000000	0.000000	0.000000	0.000000	1.602300	0.213640	-0.457800	0.004944	0.983762	0.004944	-1.000000	-1.000000	-1.000000	-1.000000	-1.000000	-1.000000	-1.000000	146.620690	0.000000	-1.000000	-1.000000	650543.000000	1772311961.537793
-24440.130000	-34636.950000	-34215.165000	-18745.155000	0.000000	0.000000	0.000000	0.000000	-0.118332	25.324129	-1.181553	-1.146144	-0.000000	0.000000	0.000000	0.000000	2.624720	0.091560	-0.412020	0.004333	0.982236	0.007568	-1.000000	-1.000000	-1.000000	-1.000000	-1.000000	-1.000000	-1.000000	146.620690	0.000000	-1.000000	-1.000000	650544.000000	1772311961.540980
-24448.140000	-34619.715000	-34220.475000	-18751.230000	0.000000	0.000000	0.000000	0.000000	2.672131	14.627071	1.317744	1.264774	-0.000000	0.000000	0.000000	0.000000	2.624720	0.091560	-0.412020	0.004333	0.982236	0.007568	-1.000000	-1.000000	-1.000000	-1.000000	-1.000000	-1.000000	-1.000000	146.620690	0.000000	-1.000000	-1.000000	650545.000000	1772311961.540982
-24459.930000	-34593.300000	-34233.255000	-18764.145000	0.000000	0.000000	0.000000	0.000000	2.670084	2.692055	1.739287	1.701013	-0.000000	0.000000	0.000000	0.000000	2.624720	0.091560	-0.412020	0.004333	0.982236	0.007568	-1.000000	-1.000000	-1.000000	-1.000000	-1.000000	-1.000000	-1.000000	146.620690	0.000000	-1.000000	-1.000000	650546.000000	1772311961.544938
-24461.730000	-34589.970000	-34231.230000	-18763.470000	0.000000	0.000000	0.000000	0.000000	0.138401	-5.487153	0.315618	0.183702	-0.000000	0.000000	0.000000	0.000000	2.624720	0.091560	-0.412020	0.004333	0.982236	0.007568	-1.000000	-1.000000	-1.000000	-1.000000	-1.000000	-1.000000	-1.000000	146.620690	0.000000	-1.000000	-1.000000	650547.000000	1772311961.544942
-24454.170000	-34581.690000	-34220.430000	-18753.570000	0.000000	0.000000	0.000000	0.000000	-2.464589	-9.367339	-0.957492	-1.320558	-0.000000	0.000000	0.000000	0.000000	2.624720	0.091560	-0.412020	0.004333	0.982236	0.007568	-1.000000	-1.000000	-1.000000	-1.000000	-1.000000	-1.000000	-1.000000	146.620690	0.000000	-1.000000	-1.000000	650548.000000	1772311961.549013
-24451.740000	-34562.655000	-34218.765000	-18751.995000	0.000000	0.000000	0.000000	0.000000	-2.398765	-10.899034	0.053181	-0.539583	-0.000000	0.000000	0.000000	0.000000	2.624720	0.091560	-0.412020	0.004333	0.982236	0.007568	-1.000000	-1.000000	-1.000000	-1.000000	-1.000000	-1.000000	-1.000000	146.620690	0.000000	-1.000000	-1.000000	650549.000000	1772311961.549016
-24456.015000	-34552.485000	-34227.855000	-18759.375000	0.000000	0.000000	0.000000	0.000000	0.516407	-10.943528	2.831259	2.254570	-0.000000	0.000000	0.000000	0.000000	2.624720	0.091560	-0.412020	0.004333	0.982236	0.007568	-1.000000	-1.000000	-1.000000	-1.000000	-1.000000	-1.000000	-1.000000	146.620690	0.000000	-1.000000	-1.000000	650550.000000	1772311961.552982
-24452.955000	-34557.570000	-34224.390000	-18756.000000	0.000000	0.000000	0.000000	0.000000	3.816501	-9.746219	4.619664	4.449499	-0.000000	0.000000	0.000000	0.000000	2.624720	0.091560	-0.412020	0.004333	0.982236	0.007568	-1.000000	-1.000000	-1.000000	-1.000000	-1.000000	-1.000000	-1.000000	146.620690	0.000000	-1.000000	-1.000000	650551.000000	1772311961.552985
-24447.060000	-34574.445000	-34218.810000	-18750.420000	0.000000	0.000000	0.000000	0.000000	5.298654	-8.712301	3.982237	4.415848	-0.000000	0.000000	0.000000	0.000000	2.624720	0.091560	-0.412020	0.004333	0.982236	0.007568	-1.000000	-1.000000	-1.000000	-1.000000	-1.000000	-1.000000	-1.000000	146.620690	0.000000	-1.000000	-1.000000	650552.000000	1772311961.556997
-24454.395000	-34582.635000	-34223.355000	-18753.345000	0.000000	0.000000	0.000000	0.000000	4.538739	-9.096429	1.867174	2.725040	-0.000000	0.000000	0.000000	0.000000	2.624720	0.091560	-0.412020	0.004333	0.982236	0.007568	-1.000000	-1.000000	-1.000000	-1.000000	-1.000000	-1.000000	-1.000000	146.620690	0.000000	-1.000000	-1.000000	650553.000000	1772311961.557000
-24455.340000	-34601.310000	-34224.120000	-18757.080000	0.000000	0.000000	0.000000	0.000000	1.963121	-9.991567	-0.497612	0.363166	-0.000000	0.000000	0.000000	0.000000	3.738700	0.366240	-0.366240	0.004883	0.980649	0.008911	-1.000000	-1.000000	-1.000000	-1.000000	-1.000000	-1.000000	-1.000000	146.620690	0.000000	-1.000000	-1.000000	650554.000000	1772311961.561054
-24457.095000	-34594.515000	-34225.020000	-18759.555000	0.000000	0.000000	0.000000	0.000000	-1.475348	-8.895453	-2.493805	-2.138259	-0.000000	0.000000	0.000000	0.000000	3.738700	0.366240	-0.366240	0.004883	0.980649	0.008911	-1.000000	-1.000000	-1.000000	-1.000000	-1.000000	-1.000000	-1.000000	146.620690	0.000000	-1.000000	-1.000000	650555.000000	1772311961.561056
-24452.775000	-34598.520000	-34220.790000	-18757.800000	0.000000	0.000000	0.000000	0.000000	-4.128798	-3.820830	-3.511188	-4.040284	-0.000000	0.000000	0.000000	0.000000	3.738700	0.366240	-0.366240	0.004883	0.980649	0.008911	-1.000000	-1.000000	-1.000000	-1.000000	-1.000000	-1.000000	-1.000000	146.620690	0.000000	-1.000000	-1.000000	650556.000000	1772311961.565040
-24452.685000	-34586.460000	-34221.150000	-18758.925000	0.000000	0.000000	0.000000	0.000000	-4.622991	4.778415	-3.084103	-4.432833	-0.000000	0.000000	0.000000	0.000000	3.738700	0.366240	-0.366240	0.004883	0.980649	0.008911	-1.000000	-1.000000	-1.000000	-1.000000	-1.000000	-1.000000	-1.000000	146.620690	0.000000	-1.000000	-1.000000	650557.000000	1772311961.565043
-24451.605000	-34562.745000	-34220.295000	-18752.895000	0.000000	0.000000	0.000000	0.000000	-2.983224	14.172649	-1.531279	-3.016069	-0.000000	0.000000	0.000000	0.000000	3.738700	0.366240	-0.366240	0.004883	0.980649	0.008911	-1.000000	-1.000000	-1.000000	-1.000000	-1.000000	-1.000000	-1.000000	146.620690	0.000000	-1.000000	-1.000000	650558.000000	1772311961.570069
-24444.990000	-34573.725000	-34214.580000	-18743.445000	0.000000	0.000000	0.000000	0.000000	-0.379890	20.714666	0.274195	-0.223496	-0.000000	0.000000	0.000000	0.000000	3.738700	0.366240	-0.366240	0.004883	0.980649	0.008911	-1.000000	-1.000000	-1.000000	-1.000000	-1.000000	-1.000000	-1.000000	146.620690	0.000000	-1.000000	-1.000000	650559.000000	1772311961.570072
-24457.095000	-34574.220000	-34227.225000	-18753.930000	0.000000	0.000000	0.000000	0.000000	1.731896	20.579223	1.433449	2.732688	-0.000000	0.000000	0.000000	0.000000	3.738700	0.366240	-0.366240	0.004883	0.980649	0.008911	-1.000000	-1.000000	-1.000000	-1.000000	-1.000000	-1.000000	-1.000000	146.620690	0.000000	-1.000000	-1.000000	650560.000000	1772311961.573004
-24464.205000	-34575.705000	-34231.590000	-18760.365000	0.000000	0.000000	0.000000	0.000000	1.949194	12.530445	1.073383	3.796753	-0.000000	0.000000	0.000000	0.000000	3.738700	0.366240	-0.366240	0.004883	0.980649	0.008911	-1.000000	-1.000000	-1.000000	-1.000000	-1.000000	-1.000000	-1.000000	146.620690	0.000000	-1.000000	-1.000000	650561.000000	1772311961.573007
-24446.970000	-34582.365000	-34213.995000	-18747.810000	0.000000	0.000000	0.000000	0.000000	0.349858	0.084811	-0.407624	2.128025	-0.000000	0.000000	0.000000	0.000000	3.738700	0.366240	-0.366240	0.004883	0.980649	0.008911	-1.000000	-1.000000	-1.000000	-1.000000	-1.000000	-1.000000	-1.000000	146.620690	0.000000	-1.000000	-1.000000	650562.000000	1772311961.578915
-24441.705000	-34598.205000	-34210.305000	-18751.590000	0.000000	0.000000	0.000000	0.000000	-0.689846	-11.328519	-0.816181	-0.400649	-0.000000	0.000000	0.000000	0.000000	3.738700	0.366240	-0.366240	0.004883	0.980649	0.008911	-1.000000	-1.000000	-1.000000	-1.000000	-1.000000	-1.000000	-1.000000	146.620690	0.000000	-1.000000	-1.000000	650563.000000	1772311961.578919
-24436.305000	-34568.325000	-34209.585000	-18758.835000	0.000000	0.000000	0.000000	0.000000	0.540240	-17.261324	0.870219	-1.868158	-0.000000	0.000000	0.000000	0.000000	3.998120	0.000000	-0.518840	0.004639	0.980955	0.008240	-1.000000	-1.000000	-1.000000	-1.000000	-1.000000	-1.000000	-1.000000	146.620690	0.000000	-1.000000	-1.000000	650564.000000	1772311961.581055
-24435.810000	-34544.250000	-34209.630000	-18756.720000	0.000000	0.000000	0.000000	0.000000	2.775969	-14.613830	2.862058	-2.294681	-0.000000	0.000000	0.000000	0.000000	3.998120	0.000000	-0.518840	0.004639	0.980955	0.008240	-1.000000	-1.000000	-1.000000	-1.000000	-1.000000	-1.000000	-1.000000	146.620690	0.000000	-1.000000	-1.000000	650565.000000	1772311961.581058
-24448.365000	-34543.665000	-34214.805000	-18749.115000	0.000000	0.000000	0.000000	0.000000	3.363980	-4.280052	2.920397	-1.933655	-0.000000	0.000000	0.000000	0.000000	3.998120	0.000000	-0.518840	0.004639	0.980955	0.008240	-1.000000	-1.000000	-1.000000	-1.000000	-1.000000	-1.000000	-1.000000	146.620690	0.000000	-1.000000	-1.000000	650566.000000	1772311961.585102
-24448.140000	-34538.580000	-34213.320000	-18743.850000	0.000000	0.000000	0.000000	0.000000	0.895835	7.056825	0.641392	-0.417062	-0.000000	0.000000	0.000000	0.000000	3.998120	0.000000	-0.518840	0.004639	0.980955	0.008240	-1.000000	-1.000000	-1.000000	-1.000000	-1.000000	-1.000000	-1.000000	146.620690	0.000000	-1.000000	-1.000000	650567.000000	1772311961.585104
-24442.065000	-34549.380000	-34209.450000	-18743.580000	0.000000	0.000000	0.000000	0.000000	-3.122758	11.920341	-2.350950	1.881870	-0.000000	0.000000	0.000000	0.000000	3.998120	0.000000	-0.518840	0.004639	0.980955	0.008240	-1.000000	-1.000000	-1.000000	-1.000000	-1.000000	-1.000000	-1.000000	146.620690	0.000000	-1.000000	-1.000000	650568.000000	1772311961.589035
-24462.045000	-34570.260000	-34222.365000	-18754.020000	0.000000	0.000000	0.000000	0.000000	-5.822945	7.653982	-4.141479	3.264375	-0.000000	0.000000	0.000000	0.000000	3.998120	0.000000	-0.518840	0.004639	0.980955	0.008240	-1.000000	-1.000000	-1.000000	-1.000000	-1.000000	-1.000000	-1.000000	146.620690	0.000000	-1.000000	-1.000000	650569.000000	1772311961.589038
-24477.165000	-34574.535000	-34227.450000	-18761.130000	0.000000	0.000000	0.000000	0.000000	-6.453594	-2.677808	-4.441990	2.081120	-0.000000	0.000000	0.000000	0.000000	3.998120	0.000000	-0.518840	0.004639	0.980955	0.008240	-1.000000	-1.000000	-1.000000	-1.000000	-1.000000	-1.000000	-1.000000	146.620690	0.000000	-1.000000	-1.000000	650570.000000	1772311961.593220
-24451.965000	-34583.715000	-34213.005000	-18749.430000	0.000000	0.000000	0.000000	0.000000	-5.409952	-12.378005	-3.562458	-1.064809	-0.000000	0.000000	0.000000	0.000000	3.998120	0.000000	-0.518840	0.004639	0.980955	0.008240	-1.000000	-1.000000	-1.000000	-1.000000	-1.000000	-1.000000	-1.000000	146.620690	0.000000	-1.000000	-1.000000	650571.000000	1772311961.593223
-24439.005000	-34598.790000	-34211.115000	-18745.695000	0.000000	0.000000	0.000000	0.000000	-1.461272	-15.741081	-0.983501	-3.243387	-0.000000	0.000000	0.000000	0.000000	3.998120	0.000000	-0.518840	0.004639	0.980955	0.008240	-1.000000	-1.000000	-1.000000	-1.000000	-1.000000	-1.000000	-1.000000	146.620690	0.000000	-1.000000	-1.000000	650572.000000	1772311961.597213
-24436.710000	-34603.605000	-34209.855000	-18747.225000	0.000000	0.000000	0.000000	0.000000	5.478891	-11.761460	2.923151	-2.498568	-0.000000	0.000000	0.000000	0.000000	3.998120	0.000000	-0.518840	0.004639	0.980955	0.008240	-1.000000	-1.000000	-1.000000	-1.000000	-1.000000	-1.000000	-1.000000	146.620690	0.000000	-1.000000	-1.000000	650573.000000	1772311961.597216
-24440.940000	-34592.220000	-34206.120000	-18742.770000	0.000000	0.000000	0.000000	0.000000	11.425180	-2.885259	6.010610	0.096487	-0.000000	0.000000	0.000000	0.000000	3.815000	0.183120	-0.396760	0.005005	0.982297	0.005798	-1.000000	-1.000000	-1.000000	-1.000000	-1.000000	-1.000000	-1.000000	146.620690	0.000000	-1.000000	-1.000000	650574.000000	1772311961.601058
-24448.005000	-34602.975000	-34213.905000	-18748.440000	0.000000	0.000000	0.000000	0.000000	11.709231	7.372740	6.319129	2.224127	-0.000000	0.000000	0.000000	0.000000	3.815000	0.183120	-0.396760	0.005005	0.982297	0.005798	-1.000000	-1.000000	-1.000000	-1.000000	-1.000000	-1.000000	-1.000000	146.620690	0.000000	-1.000000	-1.000000	650575.000000	1772311961.601061
-24439.590000	-34599.150000	-34206.795000	-18742.365000	0.000000	0.000000	0.000000	0.000000	5.814448	14.937327	3.648636	2.537901	-0.000000	0.000000	0.000000	0.000000	3.815000	0.183120	-0.396760	0.005005	0.982297	0.005798	-1.000000	-1.000000	-1.000000	-1.000000	-1.000000	-1.000000	-1.000000	146.620690	0.000000	-1.000000	-1.000000	650576.000000	1772311961.605164
-24447.285000	-34594.875000	-34214.130000	-18746.505000	0.000000	0.000000	0.000000	0.000000	-2.354205	16.952503	-0.406239	1.281102	-0.000000	0.000000	0.000000	0.000000	3.815000	0.183120	-0.396760	0.005005	0.982297	0.005798	-1.000000	-1.000000	-1.000000	-1.000000	-1.000000	-1.000000	-1.000000	146.620690	0.000000	-1.000000	-1.000000	650577.000000	1772311961.605167
-24447.465000	-34594.020000	-34215.480000	-18746.955000	0.000000	0.000000	0.000000	0.000000	-8.377010	13.632092	-3.845922	-0.500734	-0.000000	0.000000	0.000000	0.000000	3.815000	0.183120	-0.396760	0.005005	0.982297	0.005798	-1.000000	-1.000000	-1.000000	-1.000000	-1.000000	-1.000000	-1.000000	146.620690	0.000000	-1.000000	-1.000000	650578.000000	1772311961.609319
-24439.230000	-34598.745000	-34203.825000	-18738.090000	0.000000	0.000000	0.000000	0.000000	-10.045726	7.042554	-5.281749	-1.759553	-0.000000	0.000000	0.000000	0.000000	3.815000	0.183120	-0.396760	0.005005	0.982297	0.005798	-1.000000	-1.000000	-1.000000	-1.000000	-1.000000	-1.000000	-1.000000	146.620690	0.000000	-1.000000	-1.000000	650579.000000	1772311961.609322
-24444.135000	-34622.100000	-34207.020000	-18749.790000	0.000000	0.000000	0.000000	0.000000	-7.387293	-0.943384	-4.039026	-1.874364	-0.000000	0.000000	0.000000	0.000000	3.815000	0.183120	-0.396760	0.005005	0.982297	0.005798	-1.000000	-1.000000	-1.000000	-1.000000	-1.000000	-1.000000	-1.000000	146.620690	0.000000	-1.000000	-1.000000	650580.000000	1772311961.617024
-24443.055000	-34638.885000	-34208.955000	-18757.575000	0.000000	0.000000	0.000000	0.000000	-2.469046	-8.994697	-1.074880	-1.501203	-0.000000	0.000000	0.000000	0.000000	3.815000	0.183120	-0.396760	0.005005	0.982297	0.005798	-1.000000	-1.000000	-1.000000	-1.000000	-1.000000	-1.000000	-1.000000	146.620690	0.000000	-1.000000	-1.000000	650581.000000	1772311961.617027
-24446.745000	-34653.285000	-34214.355000	-18758.115000	0.000000	0.000000	0.000000	0.000000	1.848353	-15.160347	1.326764	-1.679824	-0.000000	0.000000	0.000000	0.000000	3.815000	0.183120	-0.396760	0.005005	0.982297	0.005798	-1.000000	-1.000000	-1.000000	-1.000000	-1.000000	-1.000000	-1.000000	146.620690	0.000000	-1.000000	-1.000000	650582.000000	1772311961.617031
-24445.260000	-34660.620000	-34215.930000	-18754.695000	0.000000	0.000000	0.000000	0.000000	3.912983	-16.723602	1.741501	-1.910650	-0.000000	0.000000	0.000000	0.000000	3.815000	0.183120	-0.396760	0.005005	0.982297	0.005798	-1.000000	-1.000000	-1.000000	-1.000000	-1.000000	-1.000000	-1.000000	146.620690	0.000000	-1.000000	-1.000000	650583.000000	1772311961.617034
-24443.100000	-34653.240000	-34217.505000	-18754.065000	0.000000	0.000000	0.000000	0.000000	3.876438	-11.979207	0.626545	-0.901767	-0.000000	0.000000	0.000000	0.000000	2.899400	0.839300	-0.213640	0.005127	0.982419	0.003906	-1.000000	-1.000000	-1.000000	-1.000000	-1.000000	-1.000000	-1.000000	146.620690	0.000000	-1.000000	-1.000000	650584.000000	1772311961.621214
-24448.770000	-34656.165000	-34213.995000	-18751.005000	0.000000	0.000000	0.000000	0.000000	2.753242	-1.973926	-0.504688	1.444146	-0.000000	0.000000	0.000000	0.000000	2.899400	0.839300	-0.213640	0.005127	0.982419	0.003906	-1.000000	-1.000000	-1.000000	-1.000000	-1.000000	-1.000000	-1.000000	146.620690	0.000000	-1.000000	-1.000000	650585.000000	1772311961.621217
-24456.240000	-34664.895000	-34217.460000	-18754.290000	0.000000	0.000000	0.000000	0.000000	1.118779	8.974037	-0.536088	3.795714	-0.000000	0.000000	0.000000	0.000000	2.899400	0.839300	-0.213640	0.005127	0.982419	0.003906	-1.000000	-1.000000	-1.000000	-1.000000	-1.000000	-1.000000	-1.000000	146.620690	0.000000	-1.000000	-1.000000	650586.000000	1772311961.627366
-24455.475000	-34658.235000	-34220.520000	-18756.180000	0.000000	0.000000	0.000000	0.000000	-0.773685	15.654527	0.317143	4.560038	-0.000000	0.000000	0.000000	0.000000	2.899400	0.839300	-0.213640	0.005127	0.982419	0.003906	-1.000000	-1.000000	-1.000000	-1.000000	-1.000000	-1.000000	-1.000000	146.620690	0.000000	-1.000000	-1.000000	650587.000000	1772311961.627369
-24435.900000	-34656.165000	-34200.990000	-18738.945000	0.000000	0.000000	0.000000	0.000000	-1.739772	15.938411	1.414137	3.491373	-0.000000	0.000000	0.000000	0.000000	2.899400	0.839300	-0.213640	0.005127	0.982419	0.003906	-1.000000	-1.000000	-1.000000	-1.000000	-1.000000	-1.000000	-1.000000	146.620690	0.000000	-1.000000	-1.000000	650588.000000	1772311961.629175
-24431.580000	-34680.375000	-34195.635000	-18735.255000	0.000000	0.000000	0.000000	0.000000	-0.255982	10.862662	2.907183	2.065366	-0.000000	0.000000	0.000000	0.000000	2.899400	0.839300	-0.213640	0.005127	0.982419	0.003906	-1.000000	-1.000000	-1.000000	-1.000000	-1.000000	-1.000000	-1.000000	146.620690	0.000000	-1.000000	-1.000000	650589.000000	1772311961.629178
-24437.880000	-34672.140000	-34202.205000	-18742.050000	0.000000	0.000000	0.000000	0.000000	2.839723	2.539860	4.338971	1.151392	-0.000000	0.000000	0.000000	0.000000	2.899400	0.839300	-0.213640	0.005127	0.982419	0.003906	-1.000000	-1.000000	-1.000000	-1.000000	-1.000000	-1.000000	-1.000000	146.620690	0.000000	-1.000000	-1.000000	650590.000000	1772311961.633211
-24435.720000	-34678.890000	-34201.620000	-18746.280000	0.000000	0.000000	0.000000	0.000000	4.407775	-5.629518	3.840599	-0.294869	-0.000000	0.000000	0.000000	0.000000	2.899400	0.839300	-0.213640	0.005127	0.982419	0.003906	-1.000000	-1.000000	-1.000000	-1.000000	-1.000000	-1.000000	-1.000000	146.620690	0.000000	-1.000000	-1.000000	650591.000000	1772311961.633213
-24428.295000	-34689.600000	-34195.950000	-18748.125000	0.000000	0.000000	0.000000	0.000000	2.852395	-10.249827	0.785266	-2.980131	-0.000000	0.000000	0.000000	0.000000	2.899400	0.839300	-0.213640	0.005127	0.982419	0.003906	-1.000000	-1.000000	-1.000000	-1.000000	-1.000000	-1.000000	-1.000000	146.620690	0.000000	-1.000000	-1.000000	650592.000000	1772311961.641207
-24423.615000	-34702.110000	-34193.745000	-18744.930000	0.000000	0.000000	0.000000	0.000000	-0.258743	-10.714911	-2.901597	-5.583766	-0.000000	0.000000	0.000000	0.000000	2.899400	0.839300	-0.213640	0.005127	0.982419	0.003906	-1.000000	-1.000000	-1.000000	-1.000000	-1.000000	-1.000000	-1.000000	146.620690	0.000000	-1.000000	-1.000000	650593.000000	1772311961.641211
-24425.730000	-34707.645000	-34189.335000	-18727.515000	0.000000	0.000000	0.000000	0.000000	-2.721996	-8.468667	-4.936225	-5.805599	-0.000000	0.000000	0.000000	0.000000	2.090620	0.824040	0.076300	0.005737	0.983030	0.003540	-1.000000	-1.000000	-1.000000	-1.000000	-1.000000	-1.000000	-1.000000	146.620690	0.000000	-1.000000	-1.000000	650594.000000	1772311961.641216
-24441.795000	-34726.005000	-34207.110000	-18745.515000	0.000000	0.000000	0.000000	0.000000	-4.149440	-5.002884	-4.953889	-2.917450	-0.000000	0.000000	0.000000	0.000000	2.090620	0.824040	0.076300	0.005737	0.983030	0.003540	-1.000000	-1.000000	-1.000000	-1.000000	-1.000000	-1.000000	-1.000000	146.620690	0.000000	-1.000000	-1.000000	650595.000000	1772311961.641219
-24441.795000	-34755.525000	-34209.540000	-18758.385000	0.000000	0.000000	0.000000	0.000000	-5.333931	-1.906074	-4.379517	0.469940	-0.000000	0.000000	0.000000	0.000000	2.090620	0.824040	0.076300	0.005737	0.983030	0.003540	-1.000000	-1.000000	-1.000000	-1.000000	-1.000000	-1.000000	-1.000000	146.620690	0.000000	-1.000000	-1.000000	650596.000000	1772311961.645320
-24443.055000	-34797.780000	-34210.395000	-18753.300000	0.000000	0.000000	0.000000	0.000000	-5.967499	-1.022811	-4.001171	1.330371	-0.000000	0.000000	0.000000	0.000000	2.090620	0.824040	0.076300	0.005737	0.983030	0.003540	-1.000000	-1.000000	-1.000000	-1.000000	-1.000000	-1.000000	-1.000000	146.620690	0.000000	-1.000000	-1.000000	650597.000000	1772311961.645322
-24414.075000	-34834.860000	-34180.425000	-18736.020000	0.000000	0.000000	0.000000	0.000000	-4.178541	-2.977002	-2.359788	0.578010	-0.000000	0.000000	0.000000	0.000000	2.090620	0.824040	0.076300	0.005737	0.983030	0.003540	-1.000000	-1.000000	-1.000000	-1.000000	-1.000000	-1.000000	-1.000000	146.620690	0.000000	-1.000000	-1.000000	650598.000000	1772311961.649309
-24407.415000	-34850.610000	-34173.270000	-18744.795000	0.000000	0.000000	0.000000	0.000000	1.243251	-5.510433	2.275667	1.113611	-0.000000	0.000000	0.000000	0.000000	2.090620	0.824040	0.076300	0.005737	0.983030	0.003540	-1.000000	-1.000000	-1.000000	-1.000000	-1.000000	-1.000000	-1.000000	146.620690	0.000000	-1.000000	-1.000000	650599.000000	1772311961.649312
-24404.985000	-34871.175000	-34172.640000	-18743.490000	0.000000	0.000000	0.000000	0.000000	8.080009	-4.629567	8.303972	3.003569	-0.000000	0.000000	0.000000	0.000000	2.090620	0.824040	0.076300	0.005737	0.983030	0.003540	-1.000000	-1.000000	-1.000000	-1.000000	-1.000000	-1.000000	-1.000000	146.620690	0.000000	-1.000000	-1.000000	650600.000000	1772311961.654578
-24403.770000	-34880.220000	-34174.665000	-18726.930000	0.000000	0.000000	0.000000	0.000000	11.582744	1.477978	11.137579	4.314055	-0.000000	0.000000	0.000000	0.000000	2.090620	0.824040	0.076300	0.005737	0.983030	0.003540	-1.000000	-1.000000	-1.000000	-1.000000	-1.000000	-1.000000	-1.000000	146.620690	0.000000	-1.000000	-1.000000	650601.000000	1772311961.654581
-24426.765000	-34867.170000	-34188.390000	-18729.720000	0.000000	0.000000	0.000000	0.000000	8.609800	10.931651	7.746886	4.368422	-0.000000	0.000000	0.000000	0.000000	2.090620	0.824040	0.076300	0.005737	0.983030	0.003540	-1.000000	-1.000000	-1.000000	-1.000000	-1.000000	-1.000000	-1.000000	146.620690	0.000000	-1.000000	-1.000000	650602.000000	1772311961.658952
-24449.580000	-34866.990000	-34203.915000	-18751.230000	0.000000	0.000000	0.000000	0.000000	-0.352162	20.040188	-0.801986	2.783701	-0.000000	0.000000	0.000000	0.000000	2.090620	0.824040	0.076300	0.005737	0.983030	0.003540	-1.000000	-1.000000	-1.000000	-1.000000	-1.000000	-1.000000	-1.000000	146.620690	0.000000	-1.000000	-1.000000	650603.000000	1772311961.658955
-24433.065000	-34869.915000	-34185.735000	-18741.870000	0.000000	0.000000	0.000000	0.000000	-10.811259	24.543180	-9.822288	-1.040491	-0.000000	0.000000	0.000000	0.000000	2.929920	1.556520	0.076300	0.005737	0.981504	0.005432	-1.000000	-1.000000	-1.000000	-1.000000	-1.000000	-1.000000	-1.000000	146.620690	0.000000	-1.000000	-1.000000	650604.000000	1772311961.661527
-24443.865000	-34890.435000	-34193.790000	-18732.780000	0.000000	0.000000	0.000000	0.000000	-15.933231	20.875417	-13.556842	-5.167753	-0.000000	0.000000	0.000000	0.000000	2.929920	1.556520	0.076300	0.005737	0.981504	0.005432	-1.000000	-1.000000	-1.000000	-1.000000	-1.000000	-1.000000	-1.000000	146.620690	0.000000	-1.000000	-1.000000	650605.000000	1772311961.661530
-24462.765000	-34902.990000	-34217.910000	-18745.470000	0.000000	0.000000	0.000000	0.000000	-12.728233	8.804190	-10.455977	-6.414596	-0.000000	0.000000	0.000000	0.000000	2.929920	1.556520	0.076300	0.005737	0.981504	0.005432	-1.000000	-1.000000	-1.000000	-1.000000	-1.000000	-1.000000	-1.000000	146.620690	0.000000	-1.000000	-1.000000	650606.000000	1772311961.666734
-24463.665000	-34890.795000	-34220.610000	-18753.975000	0.000000	0.000000	0.000000	0.000000	-4.635067	-6.727019	-4.413332	-4.747732	-0.000000	0.000000	0.000000	0.000000	2.929920	1.556520	0.076300	0.005737	0.981504	0.005432	-1.000000	-1.000000	-1.000000	-1.000000	-1.000000	-1.000000	-1.000000	146.620690	0.000000	-1.000000	-1.000000	650607.000000	1772311961.666737
-24431.580000	-34884.360000	-34191.540000	-18739.440000	0.000000	0.000000	0.000000	0.000000	4.180194	-17.705223	1.368314	-2.200340	-0.000000	0.000000	0.000000	0.000000	2.929920	1.556520	0.076300	0.005737	0.981504	0.005432	-1.000000	-1.000000	-1.000000	-1.000000	-1.000000	-1.000000	-1.000000	146.620690	0.000000	-1.000000	-1.000000	650608.000000	1772311961.674228
-24402.015000	-34896.015000	-34165.980000	-18724.140000	0.000000	0.000000	0.000000	0.000000	12.756292	-19.454055	7.641134	0.898865	-0.000000	0.000000	0.000000	0.000000	2.929920	1.556520	0.076300	0.005737	0.981504	0.005432	-1.000000	-1.000000	-1.000000	-1.000000	-1.000000	-1.000000	-1.000000	146.620690	0.000000	-1.000000	-1.000000	650609.000000	1772311961.674231
-24395.715000	-34925.580000	-34159.860000	-18711.180000	0.000000	0.000000	0.000000	0.000000	19.939084	-14.654404	14.499772	5.056483	-0.000000	0.000000	0.000000	0.000000	2.929920	1.556520	0.076300	0.005737	0.981504	0.005432	-1.000000	-1.000000	-1.000000	-1.000000	-1.000000	-1.000000	-1.000000	146.620690	0.000000	-1.000000	-1.000000	650610.000000	1772311961.674236
-24371.550000	-34903.530000	-34140.420000	-18702.270000	0.000000	0.000000	0.000000	0.000000	21.982746	-8.817586	18.329986	8.927445	-0.000000	0.000000	0.000000	0.000000	2.929920	1.556520	0.076300	0.005737	0.981504	0.005432	-1.000000	-1.000000	-1.000000	-1.000000	-1.000000	-1.000000	-1.000000	146.620690	0.000000	-1.000000	-1.000000	650611.000000	1772311961.674238
-24347.835000	-34893.270000	-34128.495000	-18725.670000	0.000000	0.000000	0.000000	0.000000	16.579112	-3.408804	15.717404	9.383151	-0.000000	0.000000	0.000000	0.000000	2.929920	1.556520	0.076300	0.005737	0.981504	0.005432	-1.000000	-1.000000	-1.000000	-1.000000	-1.000000	-1.000000	-1.000000	146.620690	0.000000	-1.000000	-1.000000	650612.000000	1772311961.677346
-24391.080000	-34900.425000	-34170.930000	-18767.070000	0.000000	0.000000	0.000000	0.000000	4.831575	2.588949	6.216152	3.428417	-0.000000	0.000000	0.000000	0.000000	2.929920	1.556520	0.076300	0.005737	0.981504	0.005432	-1.000000	-1.000000	-1.000000	-1.000000	-1.000000	-1.000000	-1.000000	146.620690	0.000000	-1.000000	-1.000000	650613.000000	1772311961.677349
-24458.625000	-34910.595000	-34227.810000	-18785.115000	0.000000	0.000000	0.000000	0.000000	-12.133415	7.376289	-9.297435	-8.394792	-0.000000	0.000000	0.000000	0.000000	3.402980	1.724380	0.076300	0.005615	0.981321	0.004761	-1.000000	-1.000000	-1.000000	-1.000000	-1.000000	-1.000000	-1.000000	146.620690	0.000000	-1.000000	-1.000000	650614.000000	1772311961.681339
-24439.320000	-34933.905000	-34196.220000	-18722.385000	0.000000	0.000000	0.000000	0.000000	-30.749239	7.535137	-26.134644	-18.408156	-0.000000	0.000000	0.000000	0.000000	3.402980	1.724380	0.076300	0.005615	0.981321	0.004761	-1.000000	-1.000000	-1.000000	-1.000000	-1.000000	-1.000000	-1.000000	146.620690	0.000000	-1.000000	-1.000000	650615.000000	1772311961.681341
-24434.640000	-34960.950000	-34182.855000	-18717.840000	0.000000	0.000000	0.000000	0.000000	-40.335582	2.125944	-33.278830	-16.258205	-0.000000	0.000000	0.000000	0.000000	3.402980	1.724380	0.076300	0.005615	0.981321	0.004761	-1.000000	-1.000000	-1.000000	-1.000000	-1.000000	-1.000000	-1.000000	146.620690	0.000000	-1.000000	-1.000000	650616.000000	1772311961.685438
-24471.405000	-34967.160000	-34224.615000	-18769.185000	0.000000	0.000000	0.000000	0.000000	-32.311120	-5.842566	-23.876203	-2.355817	-0.000000	0.000000	0.000000	0.000000	3.402980	1.724380	0.076300	0.005615	0.981321	0.004761	-1.000000	-1.000000	-1.000000	-1.000000	-1.000000	-1.000000	-1.000000	146.620690	0.000000	-1.000000	-1.000000	650617.000000	1772311961.685441
-24460.290000	-34978.815000	-34227.270000	-18765.315000	0.000000	0.000000	0.000000	0.000000	-11.007308	-10.925096	-4.819830	10.485889	-0.000000	0.000000	0.000000	0.000000	3.402980	1.724380	0.076300	0.005615	0.981321	0.004761	-1.000000	-1.000000	-1.000000	-1.000000	-1.000000	-1.000000	-1.000000	146.620690	0.000000	-1.000000	-1.000000	650618.000000	1772311961.689445
-24409.890000	-34996.320000	-34185.420000	-18722.565000	0.000000	0.000000	0.000000	0.000000	13.172290	-9.614093	12.798108	13.945106	-0.000000	0.000000	0.000000	0.000000	3.402980	1.724380	0.076300	0.005615	0.981321	0.004761	-1.000000	-1.000000	-1.000000	-1.000000	-1.000000	-1.000000	-1.000000	146.620690	0.000000	-1.000000	-1.000000	650619.000000	1772311961.689448
-24410.745000	-35031.285000	-34192.260000	-18735.210000	0.000000	0.000000	0.000000	0.000000	32.860811	-3.619849	24.408537	11.605359	-0.000000	0.000000	0.000000	0.000000	3.402980	1.724380	0.076300	0.005615	0.981321	0.004761	-1.000000	-1.000000	-1.000000	-1.000000	-1.000000	-1.000000	-1.000000	146.620690	0.000000	-1.000000	-1.000000	650620.000000	1772311961.693485
-24446.160000	-35059.095000	-34227.405000	-18756.720000	0.000000	0.000000	0.000000	0.000000	41.209466	2.138786	27.790024	7.736168	-0.000000	0.000000	0.000000	0.000000	3.402980	1.724380	0.076300	0.005615	0.981321	0.004761	-1.000000	-1.000000	-1.000000	-1.000000	-1.000000	-1.000000	-1.000000	146.620690	0.000000	-1.000000	-1.000000	650621.000000	1772311961.693488
-24468.885000	-35078.085000	-34223.445000	-18739.305000	0.000000	0.000000	0.000000	0.000000	32.260031	4.572632	20.443210	2.181047	-0.000000	0.000000	0.000000	0.000000	3.402980	1.724380	0.076300	0.005615	0.981321	0.004761	-1.000000	-1.000000	-1.000000	-1.000000	-1.000000	-1.000000	-1.000000	146.620690	0.000000	-1.000000	-1.000000	650622.000000	1772311961.697526
-24459.975000	-35089.425000	-34187.085000	-18690.705000	0.000000	0.000000	0.000000	0.000000	9.367389	4.715045	6.269685	-2.903383	-0.000000	0.000000	0.000000	0.000000	3.402980	1.724380	0.076300	0.005615	0.981321	0.004761	-1.000000	-1.000000	-1.000000	-1.000000	-1.000000	-1.000000	-1.000000	146.620690	0.000000	-1.000000	-1.000000	650623.000000	1772311961.697529
-24434.955000	-35089.605000	-34153.155000	-18643.905000	0.000000	0.000000	0.000000	0.000000	-13.617139	5.465540	-4.506251	-2.262738	-0.000000	0.000000	0.000000	0.000000	5.600420	2.578940	0.579880	0.006104	0.981687	0.006897	-1.000000	-1.000000	-1.000000	-1.000000	-1.000000	-1.000000	-1.000000	146.620690	0.000000	-1.000000	-1.000000	650624.000000	1772311961.701420
-24421.545000	-35059.995000	-34134.210000	-18628.470000	0.000000	0.000000	0.000000	0.000000	-23.412645	8.817718	-5.672344	4.662932	-0.000000	0.000000	0.000000	0.000000	5.600420	2.578940	0.579880	0.006104	0.981687	0.006897	-1.000000	-1.000000	-1.000000	-1.000000	-1.000000	-1.000000	-1.000000	146.620690	0.000000	-1.000000	-1.000000	650625.000000	1772311961.701422
-24425.235000	-35024.895000	-34156.710000	-18680.580000	0.000000	0.000000	0.000000	0.000000	-18.056563	14.919141	-1.267081	9.761204	-0.000000	0.000000	0.000000	0.000000	5.600420	2.578940	0.579880	0.006104	0.981687	0.006897	-1.000000	-1.000000	-1.000000	-1.000000	-1.000000	-1.000000	-1.000000	146.620690	0.000000	-1.000000	-1.000000	650626.000000	1772311961.709294
-24420.105000	-35023.410000	-34202.655000	-18803.970000	0.000000	0.000000	0.000000	0.000000	-6.020749	20.796723	-1.020093	1.487551	-0.000000	0.000000	0.000000	0.000000	5.600420	2.578940	0.579880	0.006104	0.981687	0.006897	-1.000000	-1.000000	-1.000000	-1.000000	-1.000000	-1.000000	-1.000000	146.620690	0.000000	-1.000000	-1.000000	650627.000000	1772311961.709297
-24374.655000	-35021.070000	-34167.150000	-18760.275000	0.000000	0.000000	0.000000	0.000000	3.991079	20.505870	-9.105753	-21.351644	-0.000000	0.000000	0.000000	0.000000	5.600420	2.578940	0.579880	0.006104	0.981687	0.006897	-1.000000	-1.000000	-1.000000	-1.000000	-1.000000	-1.000000	-1.000000	146.620690	0.000000	-1.000000	-1.000000	650628.000000	1772311961.709650
-24329.430000	-34998.075000	-34114.545000	-18683.190000	0.000000	0.000000	0.000000	0.000000	10.072885	10.726299	-17.272590	-39.766323	-0.000000	0.000000	0.000000	0.000000	5.600420	2.578940	0.579880	0.006104	0.981687	0.006897	-1.000000	-1.000000	-1.000000	-1.000000	-1.000000	-1.000000	-1.000000	146.620690	0.000000	-1.000000	-1.000000	650629.000000	1772311961.709653
-24341.895000	-34975.530000	-34115.895000	-18698.760000	0.000000	0.000000	0.000000	0.000000	12.988276	-4.372754	-14.593291	-32.231360	-0.000000	0.000000	0.000000	0.000000	5.600420	2.578940	0.579880	0.006104	0.981687	0.006897	-1.000000	-1.000000	-1.000000	-1.000000	-1.000000	-1.000000	-1.000000	146.620690	0.000000	-1.000000	-1.000000	650630.000000	1772311961.713434
-24418.575000	-34973.235000	-34191.270000	-18765.495000	0.000000	0.000000	0.000000	0.000000	8.925208	-17.139133	-3.619354	-3.211910	-0.000000	0.000000	0.000000	0.000000	5.600420	2.578940	0.579880	0.006104	0.981687	0.006897	-1.000000	-1.000000	-1.000000	-1.000000	-1.000000	-1.000000	-1.000000	146.620690	0.000000	-1.000000	-1.000000	650631.000000	1772311961.713437
-24484.050000	-34997.940000	-34257.780000	-18796.005000	0.000000	0.000000	0.000000	0.000000	-7.166449	-23.952929	1.514148	21.871327	-0.000000	0.000000	0.000000	0.000000	5.600420	2.578940	0.579880	0.006104	0.981687	0.006897	-1.000000	-1.000000	-1.000000	-1.000000	-1.000000	-1.000000	-1.000000	146.620690	0.000000	-1.000000	-1.000000	650632.000000	1772311961.717509
-24527.340000	-35011.890000	-34299.990000	-18837.090000	0.000000	0.000000	0.000000	0.000000	-30.775183	-26.207167	-6.537738	26.161320	-0.000000	0.000000	0.000000	0.000000	5.600420	2.578940	0.579880	0.006104	0.981687	0.006897	-1.000000	-1.000000	-1.000000	-1.000000	-1.000000	-1.000000	-1.000000	146.620690	0.000000	-1.000000	-1.000000	650633.000000	1772311961.717512
-24521.715000	-35020.755000	-34298.910000	-18822.465000	0.000000	0.000000	0.000000	0.000000	-46.256595	-25.265711	-18.727949	14.157020	-0.000000	0.000000	0.000000	0.000000	9.110220	0.610400	0.381500	0.005371	0.977231	0.011719	-1.000000	-1.000000	-1.000000	-1.000000	-1.000000	-1.000000	-1.000000	146.620690	0.000000	-1.000000	-1.000000	650634.000000	1772311961.721494
-24476.175000	-35025.345000	-34264.845000	-18792.180000	0.000000	0.000000	0.000000	0.000000	-38.340553	-20.023278	-19.061907	2.018196	-0.000000	0.000000	0.000000	0.000000	9.110220	0.610400	0.381500	0.005371	0.977231	0.011719	-1.000000	-1.000000	-1.000000	-1.000000	-1.000000	-1.000000	-1.000000	146.620690	0.000000	-1.000000	-1.000000	650635.000000	1772311961.721497
-24444.765000	-35017.245000	-34263.405000	-18802.305000	0.000000	0.000000	0.000000	0.000000	-5.318216	-9.473796	-0.776715	1.249132	-0.000000	0.000000	0.000000	0.000000	9.110220	0.610400	0.381500	0.005371	0.977231	0.011719	-1.000000	-1.000000	-1.000000	-1.000000	-1.000000	-1.000000	-1.000000	146.620690	0.000000	-1.000000	-1.000000	650636.000000	1772311961.725583
-24440.760000	-34992.045000	-34247.340000	-18781.695000	0.000000	0.000000	0.000000	0.000000	36.833272	5.080425	26.695082	9.693572	-0.000000	0.000000	0.000000	0.000000	9.110220	0.610400	0.381500	0.005371	0.977231	0.011719	-1.000000	-1.000000	-1.000000	-1.000000	-1.000000	-1.000000	-1.000000	146.620690	0.000000	-1.000000	-1.000000	650637.000000	1772311961.725585
-24393.285000	-34964.730000	-34156.980000	-18678.510000	0.000000	0.000000	0.000000	0.000000	65.140331	20.186286	47.835368	19.313127	-0.000000	0.000000	0.000000	0.000000	9.110220	0.610400	0.381500	0.005371	0.977231	0.011719	-1.000000	-1.000000	-1.000000	-1.000000	-1.000000	-1.000000	-1.000000	146.620690	0.000000	-1.000000	-1.000000	650638.000000	1772311961.729514
-24282.585000	-34976.655000	-34075.305000	-18634.905000	0.000000	0.000000	0.000000	0.000000	68.310015	30.420940	55.346889	26.434313	-0.000000	0.000000	0.000000	0.000000	9.110220	0.610400	0.381500	0.005371	0.977231	0.011719	-1.000000	-1.000000	-1.000000	-1.000000	-1.000000	-1.000000	-1.000000	146.620690	0.000000	-1.000000	-1.000000	650639.000000	1772311961.729517
-24356.790000	-34984.080000	-34128.540000	-18718.605000	0.000000	0.000000	0.000000	0.000000	49.849052	29.828474	47.825543	26.034488	-0.000000	0.000000	0.000000	0.000000	9.110220	0.610400	0.381500	0.005371	0.977231	0.011719	-1.000000	-1.000000	-1.000000	-1.000000	-1.000000	-1.000000	-1.000000	146.620690	0.000000	-1.000000	-1.000000	650640.000000	1772311961.733578
-24425.820000	-34966.575000	-34150.365000	-18744.075000	0.000000	0.000000	0.000000	0.000000	14.183348	17.389473	21.937999	8.724568	-0.000000	0.000000	0.000000	0.000000	9.110220	0.610400	0.381500	0.005371	0.977231	0.011719	-1.000000	-1.000000	-1.000000	-1.000000	-1.000000	-1.000000	-1.000000	146.620690	0.000000	-1.000000	-1.000000	650641.000000	1772311961.733582
-24295.005000	-34947.180000	-34062.120000	-18649.080000	0.000000	0.000000	0.000000	0.000000	-30.045694	0.242018	-17.394336	-21.988944	-0.000000	0.000000	0.000000	0.000000	9.110220	0.610400	0.381500	0.005371	0.977231	0.011719	-1.000000	-1.000000	-1.000000	-1.000000	-1.000000	-1.000000	-1.000000	146.620690	0.000000	-1.000000	-1.000000	650642.000000	1772311961.737569
-24209.190000	-34948.755000	-33974.370000	-18589.005000	0.000000	0.000000	0.000000	0.000000	-58.583814	-12.379583	-48.480371	-43.365818	-0.000000	0.000000	0.000000	0.000000	9.110220	0.610400	0.381500	0.005371	0.977231	0.011719	-1.000000	-1.000000	-1.000000	-1.000000	-1.000000	-1.000000	-1.000000	146.620690	0.000000	-1.000000	-1.000000	650643.000000	1772311961.737571
-24302.340000	-34981.605000	-34003.800000	-18635.580000	0.000000	0.000000	0.000000	0.000000	-54.529842	-17.561671	-53.173253	-39.524370	-0.000000	0.000000	0.000000	0.000000	8.164100	1.648080	0.763000	0.006531	0.981748	0.004456	-1.000000	-1.000000	-1.000000	-1.000000	-1.000000	-1.000000	-1.000000	146.620690	0.000000	-1.000000	-1.000000	650644.000000	1772311961.741707
-24504.705000	-35004.510000	-34183.710000	-18783.090000	0.000000	0.000000	0.000000	0.000000	-35.543977	-18.769551	-40.783664	-22.851792	-0.000000	0.000000	0.000000	0.000000	8.164100	1.648080	0.763000	0.006531	0.981748	0.004456	-1.000000	-1.000000	-1.000000	-1.000000	-1.000000	-1.000000	-1.000000	146.620690	0.000000	-1.000000	-1.000000	650645.000000	1772311961.741710
-24562.980000	-35010.045000	-34269.435000	-18844.380000	0.000000	0.000000	0.000000	0.000000	-31.234071	-18.713627	-36.259973	-17.013038	-0.000000	0.000000	0.000000	0.000000	8.164100	1.648080	0.763000	0.006531	0.981748	0.004456	-1.000000	-1.000000	-1.000000	-1.000000	-1.000000	-1.000000	-1.000000	146.620690	0.000000	-1.000000	-1.000000	650646.000000	1772311961.745652
-24389.820000	-34975.440000	-34147.620000	-18759.690000	0.000000	0.000000	0.000000	0.000000	-38.338427	-14.981018	-42.678510	-23.596134	-0.000000	0.000000	0.000000	0.000000	8.164100	1.648080	0.763000	0.006531	0.981748	0.004456	-1.000000	-1.000000	-1.000000	-1.000000	-1.000000	-1.000000	-1.000000	146.620690	0.000000	-1.000000	-1.000000	650647.000000	1772311961.745655
-24370.470000	-34964.910000	-34132.455000	-18801.315000	0.000000	0.000000	0.000000	0.000000	-24.546234	-4.045226	-34.691006	-21.352766	-0.000000	0.000000	0.000000	0.000000	8.164100	1.648080	0.763000	0.006531	0.981748	0.004456	-1.000000	-1.000000	-1.000000	-1.000000	-1.000000	-1.000000	-1.000000	146.620690	0.000000	-1.000000	-1.000000	650648.000000	1772311961.749526
-24450.750000	-34970.985000	-34231.590000	-18822.915000	0.000000	0.000000	0.000000	0.000000	19.314220	11.407948	0.211942	0.438435	-0.000000	0.000000	0.000000	0.000000	8.164100	1.648080	0.763000	0.006531	0.981748	0.004456	-1.000000	-1.000000	-1.000000	-1.000000	-1.000000	-1.000000	-1.000000	146.620690	0.000000	-1.000000	-1.000000	650649.000000	1772311961.749528
-24475.185000	-34973.190000	-34279.290000	-18741.735000	0.000000	0.000000	0.000000	0.000000	61.728643	22.565851	39.402960	30.463291	-0.000000	0.000000	0.000000	0.000000	8.164100	1.648080	0.763000	0.006531	0.981748	0.004456	-1.000000	-1.000000	-1.000000	-1.000000	-1.000000	-1.000000	-1.000000	146.620690	0.000000	-1.000000	-1.000000	650650.000000	1772311961.753640
-24414.615000	-34970.895000	-34195.230000	-18633.645000	0.000000	0.000000	0.000000	0.000000	72.793933	22.932651	57.645460	56.116102	-0.000000	0.000000	0.000000	0.000000	8.164100	1.648080	0.763000	0.006531	0.981748	0.004456	-1.000000	-1.000000	-1.000000	-1.000000	-1.000000	-1.000000	-1.000000	146.620690	0.000000	-1.000000	-1.000000	650651.000000	1772311961.753643
-24390.495000	-34973.370000	-34137.675000	-18587.070000	0.000000	0.000000	0.000000	0.000000	54.841891	13.664681	56.356616	71.461598	-0.000000	0.000000	0.000000	0.000000	8.164100	1.648080	0.763000	0.006531	0.981748	0.004456	-1.000000	-1.000000	-1.000000	-1.000000	-1.000000	-1.000000	-1.000000	146.620690	0.000000	-1.000000	-1.000000	650652.000000	1772311961.757754
-24363.405000	-34983.270000	-34142.355000	-18613.440000	0.000000	0.000000	0.000000	0.000000	27.066270	0.702965	48.474633	68.102907	-0.000000	0.000000	0.000000	0.000000	8.164100	1.648080	0.763000	0.006531	0.981748	0.004456	-1.000000	-1.000000	-1.000000	-1.000000	-1.000000	-1.000000	-1.000000	146.620690	0.000000	-1.000000	-1.000000	650653.000000	1772311961.757756
-24387.525000	-34992.090000	-34234.335000	-18774.945000	0.000000	0.000000	0.000000	0.000000	2.122065	-10.244337	34.403188	35.329558	-0.000000	0.000000	0.000000	0.000000	5.554640	-3.265640	8.408260	-0.007935	0.990537	-0.000427	-1.000000	-1.000000	-1.000000	-1.000000	-1.000000	-1.000000	-1.000000	146.620690	0.000000	-1.000000	-1.000000	650654.000000	1772311961.761715
-24456.600000	-35015.580000	-34298.955000	-18872.865000	0.000000	0.000000	0.000000	0.000000	-18.926984	-16.162157	6.213351	-26.246294	-0.000000	0.000000	0.000000	0.000000	5.554640	-3.265640	8.408260	-0.007935	0.990537	-0.000427	-1.000000	-1.000000	-1.000000	-1.000000	-1.000000	-1.000000	-1.000000	146.620690	0.000000	-1.000000	-1.000000	650655.000000	1772311961.761719
-24410.655000	-35007.255000	-34224.390000	-18740.295000	0.000000	0.000000	0.000000	0.000000	-37.035110	-16.386604	-30.571234	-89.117487	-0.000000	0.000000	0.000000	0.000000	5.554640	-3.265640	8.408260	-0.007935	0.990537	-0.000427	-1.000000	-1.000000	-1.000000	-1.000000	-1.000000	-1.000000	-1.000000	146.620690	0.000000	-1.000000	-1.000000	650656.000000	1772311961.765606
-24391.800000	-34984.845000	-34188.030000	-18702.855000	0.000000	0.000000	0.000000	0.000000	-45.303334	-10.688408	-52.713280	-109.254633	-0.000000	0.000000	0.000000	0.000000	5.554640	-3.265640	8.408260	-0.007935	0.990537	-0.000427	-1.000000	-1.000000	-1.000000	-1.000000	-1.000000	-1.000000	-1.000000	146.620690	0.000000	-1.000000	-1.000000	650657.000000	1772311961.765610
-24429.690000	-34960.095000	-34233.390000	-18823.365000	0.000000	0.000000	0.000000	0.000000	-36.911246	0.519408	-45.011756	-71.497789	-0.000000	0.000000	0.000000	0.000000	5.554640	-3.265640	8.408260	-0.007935	0.990537	-0.000427	-1.000000	-1.000000	-1.000000	-1.000000	-1.000000	-1.000000	-1.000000	146.620690	0.000000	-1.000000	-1.000000	650658.000000	1772311961.769706
-24501.015000	-34942.770000	-34280.010000	-18850.770000	0.000000	0.000000	0.000000	0.000000	-18.761878	13.631133	-19.310739	-9.066694	-0.000000	0.000000	0.000000	0.000000	5.554640	-3.265640	8.408260	-0.007935	0.990537	-0.000427	-1.000000	-1.000000	-1.000000	-1.000000	-1.000000	-1.000000	-1.000000	146.620690	0.000000	-1.000000	-1.000000	650659.000000	1772311961.769709
-24410.520000	-34961.040000	-34202.610000	-18733.050000	0.000000	0.000000	0.000000	0.000000	-2.657584	21.735367	3.490542	38.850024	-0.000000	0.000000	0.000000	0.000000	5.554640	-3.265640	8.408260	-0.007935	0.990537	-0.000427	-1.000000	-1.000000	-1.000000	-1.000000	-1.000000	-1.000000	-1.000000	146.620690	0.000000	-1.000000	-1.000000	650660.000000	1772311961.775136
-24382.440000	-34988.220000	-34197.255000	-18701.730000	0.000000	0.000000	0.000000	0.000000	10.915667	18.460604	16.885936	63.403963	-0.000000	0.000000	0.000000	0.000000	5.554640	-3.265640	8.408260	-0.007935	0.990537	-0.000427	-1.000000	-1.000000	-1.000000	-1.000000	-1.000000	-1.000000	-1.000000	146.620690	0.000000	-1.000000	-1.000000	650661.000000	1772311961.775139
-24513.705000	-35028.135000	-34307.640000	-18773.055000	0.000000	0.000000	0.000000	0.000000	22.966253	3.190702	21.502821	68.847104	-0.000000	0.000000	0.000000	0.000000	5.554640	-3.265640	8.408260	-0.007935	0.990537	-0.000427	-1.000000	-1.000000	-1.000000	-1.000000	-1.000000	-1.000000	-1.000000	146.620690	0.000000	-1.000000	-1.000000	650662.000000	1772311961.777393
-24434.190000	-35047.935000	-34368.345000	-18839.160000	0.000000	0.000000	0.000000	0.000000	25.238476	-16.886093	12.564928	51.556218	-0.000000	0.000000	0.000000	0.000000	5.554640	-3.265640	8.408260	-0.007935	0.990537	-0.000427	-1.000000	-1.000000	-1.000000	-1.000000	-1.000000	-1.000000	-1.000000	146.620690	0.000000	-1.000000	-1.000000	650663.000000	1772311961.777396
-24447.780000	-35035.470000	-34353.495000	-18750.510000	0.000000	0.000000	0.000000	0.000000	16.297460	-30.073644	-8.169987	14.305430	-0.000000	0.000000	0.000000	0.000000	2.304260	3.280900	9.232300	0.010376	0.989988	-0.010681	-1.000000	-1.000000	-1.000000	-1.000000	-1.000000	-1.000000	-1.000000	146.620690	0.000000	-1.000000	-1.000000	650664.000000	1772311961.781762
-24423.615000	-35047.755000	-34350.615000	-18651.555000	0.000000	0.000000	0.000000	0.000000	6.148245	-27.714468	-24.100599	-19.755418	-0.000000	0.000000	0.000000	0.000000	2.304260	3.280900	9.232300	0.010376	0.989988	-0.010681	-1.000000	-1.000000	-1.000000	-1.000000	-1.000000	-1.000000	-1.000000	146.620690	0.000000	-1.000000	-1.000000	650665.000000	1772311961.781764
-24277.455000	-35068.410000	-34319.745000	-18618.840000	0.000000	0.000000	0.000000	0.000000	3.704243	-11.572779	-20.171236	-27.664420	-0.000000	0.000000	0.000000	0.000000	2.304260	3.280900	9.232300	0.010376	0.989988	-0.010681	-1.000000	-1.000000	-1.000000	-1.000000	-1.000000	-1.000000	-1.000000	146.620690	0.000000	-1.000000	-1.000000	650666.000000	1772311961.785653
-24302.295000	-35063.820000	-34268.805000	-18649.755000	0.000000	0.000000	0.000000	0.000000	11.252940	7.999938	2.744208	-13.283459	-0.000000	0.000000	0.000000	0.000000	2.304260	3.280900	9.232300	0.010376	0.989988	-0.010681	-1.000000	-1.000000	-1.000000	-1.000000	-1.000000	-1.000000	-1.000000	146.620690	0.000000	-1.000000	-1.000000	650667.000000	1772311961.785657
-24552.495000	-35057.115000	-34307.910000	-18776.790000	0.000000	0.000000	0.000000	0.000000	14.622585	21.827510	29.912691	-2.260271	-0.000000	0.000000	0.000000	0.000000	2.304260	3.280900	9.232300	0.010376	0.989988	-0.010681	-1.000000	-1.000000	-1.000000	-1.000000	-1.000000	-1.000000	-1.000000	146.620690	0.000000	-1.000000	-1.000000	650668.000000	1772311961.789781
-24651.540000	-35037.045000	-34317.945000	-18839.205000	0.000000	0.000000	0.000000	0.000000	-9.312155	27.090180	42.349543	-14.115683	-0.000000	0.000000	0.000000	0.000000	2.304260	3.280900	9.232300	0.010376	0.989988	-0.010681	-1.000000	-1.000000	-1.000000	-1.000000	-1.000000	-1.000000	-1.000000	146.620690	0.000000	-1.000000	-1.000000	650669.000000	1772311961.789784
-24641.280000	-35022.330000	-34308.540000	-18817.155000	0.000000	0.000000	0.000000	0.000000	-54.829558	25.209604	31.333295	-40.756561	-0.000000	0.000000	0.000000	0.000000	2.304260	3.280900	9.232300	0.010376	0.989988	-0.010681	-1.000000	-1.000000	-1.000000	-1.000000	-1.000000	-1.000000	-1.000000	146.620690	0.000000	-1.000000	-1.000000	650670.000000	1772311961.793841
-24394.320000	-35000.955000	-34181.235000	-18751.995000	0.000000	0.000000	0.000000	0.000000	-77.612623	18.607477	7.942709	-52.931560	-0.000000	0.000000	0.000000	0.000000	2.304260	3.280900	9.232300	0.010376	0.989988	-0.010681	-1.000000	-1.000000	-1.000000	-1.000000	-1.000000	-1.000000	-1.000000	146.620690	0.000000	-1.000000	-1.000000	650671.000000	1772311961.793844
-24385.365000	-35004.510000	-34090.740000	-18657.765000	0.000000	0.000000	0.000000	0.000000	-40.992071	9.067303	-6.546949	-29.456820	-0.000000	0.000000	0.000000	0.000000	2.304260	3.280900	9.232300	0.010376	0.989988	-0.010681	-1.000000	-1.000000	-1.000000	-1.000000	-1.000000	-1.000000	-1.000000	146.620690	0.000000	-1.000000	-1.000000	650672.000000	1772311961.797965
-24673.905000	-35020.080000	-34204.860000	-18712.845000	0.000000	0.000000	0.000000	0.000000	31.281738	-2.649987	-5.739625	20.223744	-0.000000	0.000000	0.000000	0.000000	2.304260	3.280900	9.232300	0.010376	0.989988	-0.010681	-1.000000	-1.000000	-1.000000	-1.000000	-1.000000	-1.000000	-1.000000	146.620690	0.000000	-1.000000	-1.000000	650673.000000	1772311961.797968
-24630.570000	-35006.175000	-34337.565000	-18836.370000	0.000000	0.000000	0.000000	0.000000	73.852064	-14.954529	-8.628789	59.780795	-0.000000	0.000000	0.000000	0.000000	2.151660	2.487380	14.909020	0.018616	1.006284	-0.021667	-1.000000	-1.000000	-1.000000	-1.000000	-1.000000	-1.000000	-1.000000	146.620690	0.000000	-1.000000	-1.000000	650674.000000	1772311961.801830
-24473.970000	-34972.695000	-34268.220000	-18778.320000	0.000000	0.000000	0.000000	0.000000	61.726653	-22.921782	-30.179408	59.331250	-0.000000	0.000000	0.000000	0.000000	2.151660	2.487380	14.909020	0.018616	1.006284	-0.021667	-1.000000	-1.000000	-1.000000	-1.000000	-1.000000	-1.000000	-1.000000	146.620690	0.000000	-1.000000	-1.000000	650675.000000	1772311961.801833
-24310.170000	-34959.915000	-34184.655000	-18705.825000	0.000000	0.000000	0.000000	0.000000	32.835920	-21.380148	-52.034851	27.761245	-0.000000	0.000000	0.000000	0.000000	2.151660	2.487380	14.909020	0.018616	1.006284	-0.021667	-1.000000	-1.000000	-1.000000	-1.000000	-1.000000	-1.000000	-1.000000	146.620690	0.000000	-1.000000	-1.000000	650676.000000	1772311961.805917
-24453.405000	-34971.480000	-34324.065000	-18767.070000	0.000000	0.000000	0.000000	0.000000	21.535865	-11.714462	-48.026222	-3.294488	-0.000000	0.000000	0.000000	0.000000	2.151660	2.487380	14.909020	0.018616	1.006284	-0.021667	-1.000000	-1.000000	-1.000000	-1.000000	-1.000000	-1.000000	-1.000000	146.620690	0.000000	-1.000000	-1.000000	650677.000000	1772311961.805920
-24607.080000	-34987.860000	-34402.005000	-18781.965000	0.000000	0.000000	0.000000	0.000000	13.682919	-1.855863	-23.583623	-18.711760	-0.000000	0.000000	0.000000	0.000000	2.151660	2.487380	14.909020	0.018616	1.006284	-0.021667	-1.000000	-1.000000	-1.000000	-1.000000	-1.000000	-1.000000	-1.000000	146.620690	0.000000	-1.000000	-1.000000	650678.000000	1772311961.809776
-24705.855000	-35020.980000	-34398.765000	-18785.880000	0.000000	0.000000	0.000000	0.000000	-18.695745	1.198757	-1.424072	-22.993018	-0.000000	0.000000	0.000000	0.000000	2.151660	2.487380	14.909020	0.018616	1.006284	-0.021667	-1.000000	-1.000000	-1.000000	-1.000000	-1.000000	-1.000000	-1.000000	146.620690	0.000000	-1.000000	-1.000000	650679.000000	1772311961.809779
-24659.100000	-35030.070000	-34307.775000	-18720.900000	0.000000	0.000000	0.000000	0.000000	-66.636701	-2.859089	13.708612	-20.063993	-0.000000	0.000000	0.000000	0.000000	2.151660	2.487380	14.909020	0.018616	1.006284	-0.021667	-1.000000	-1.000000	-1.000000	-1.000000	-1.000000	-1.000000	-1.000000	146.620690	0.000000	-1.000000	-1.000000	650680.000000	1772311961.813880
-24584.445000	-35024.355000	-34179.120000	-18676.125000	0.000000	0.000000	0.000000	0.000000	-89.038218	-7.903854	33.632289	-8.472457	-0.000000	0.000000	0.000000	0.000000	2.151660	2.487380	14.909020	0.018616	1.006284	-0.021667	-1.000000	-1.000000	-1.000000	-1.000000	-1.000000	-1.000000	-1.000000	146.620690	0.000000	-1.000000	-1.000000	650681.000000	1772311961.813884
-24648.300000	-35034.390000	-34248.555000	-18759.555000	0.000000	0.000000	0.000000	0.000000	-60.773519	-7.102337	59.480385	7.513029	-0.000000	0.000000	0.000000	0.000000	2.151660	2.487380	14.909020	0.018616	1.006284	-0.021667	-1.000000	-1.000000	-1.000000	-1.000000	-1.000000	-1.000000	-1.000000	146.620690	0.000000	-1.000000	-1.000000	650682.000000	1772311961.817877
-24653.790000	-35013.195000	-34185.960000	-18735.120000	0.000000	0.000000	0.000000	0.000000	-0.889676	0.971855	71.898121	15.010694	-0.000000	0.000000	0.000000	0.000000	2.151660	2.487380	14.909020	0.018616	1.006284	-0.021667	-1.000000	-1.000000	-1.000000	-1.000000	-1.000000	-1.000000	-1.000000	146.620690	0.000000	-1.000000	-1.000000	650683.000000	1772311961.817880
-24610.590000	-35011.620000	-34177.365000	-18721.530000	0.000000	0.000000	0.000000	0.000000	51.924470	12.320735	55.093022	8.551129	-0.000000	0.000000	0.000000	0.000000	1.251320	8.759240	33.053160	0.058777	1.091062	-0.068542	-1.000000	-1.000000	-1.000000	-1.000000	-1.000000	-1.000000	-1.000000	146.620690	0.000000	-1.000000	-1.000000	650684.000000	1772311961.821842
-24660.090000	-35039.070000	-34297.875000	-18799.425000	0.000000	0.000000	0.000000	0.000000	74.546244	20.364617	13.366708	-4.480077	-0.000000	0.000000	0.000000	0.000000	1.251320	8.759240	33.053160	0.058777	1.091062	-0.068542	-1.000000	-1.000000	-1.000000	-1.000000	-1.000000	-1.000000	-1.000000	146.620690	0.000000	-1.000000	-1.000000	650685.000000	1772311961.821844
-24589.665000	-35039.970000	-34290.990000	-18788.220000	0.000000	0.000000	0.000000	0.000000	65.435239	19.416850	-37.975221	-16.381718	-0.000000	0.000000	0.000000	0.000000	1.251320	8.759240	33.053160	0.058777	1.091062	-0.068542	-1.000000	-1.000000	-1.000000	-1.000000	-1.000000	-1.000000	-1.000000	146.620690	0.000000	-1.000000	-1.000000	650686.000000	1772311961.826293
-24462.810000	-35054.460000	-34269.975000	-18790.560000	0.000000	0.000000	0.000000	0.000000	39.729949	9.651844	-76.842052	-21.756906	-0.000000	0.000000	0.000000	0.000000	1.251320	8.759240	33.053160	0.058777	1.091062	-0.068542	-1.000000	-1.000000	-1.000000	-1.000000	-1.000000	-1.000000	-1.000000	146.620690	0.000000	-1.000000	-1.000000	650687.000000	1772311961.826296
-24371.955000	-35070.570000	-34161.435000	-18738.945000	0.000000	0.000000	0.000000	0.000000	18.685430	-3.115390	-80.341443	-15.327773	-0.000000	0.000000	0.000000	0.000000	1.251320	8.759240	33.053160	0.058777	1.091062	-0.068542	-1.000000	-1.000000	-1.000000	-1.000000	-1.000000	-1.000000	-1.000000	146.620690	0.000000	-1.000000	-1.000000	650688.000000	1772311961.838450
-24382.890000	-35099.190000	-34119.090000	-18718.920000	0.000000	0.000000	0.000000	0.000000	8.893038	-13.053967	-43.194700	2.758734	-0.000000	0.000000	0.000000	0.000000	1.251320	8.759240	33.053160	0.058777	1.091062	-0.068542	-1.000000	-1.000000	-1.000000	-1.000000	-1.000000	-1.000000	-1.000000	146.620690	0.000000	-1.000000	-1.000000	650689.000000	1772311961.838453
-24416.865000	-35107.470000	-34162.380000	-18728.955000	0.000000	0.000000	0.000000	0.000000	-2.572359	-17.234227	12.148618	23.249327	-0.000000	0.000000	0.000000	0.000000	1.251320	8.759240	33.053160	0.058777	1.091062	-0.068542	-1.000000	-1.000000	-1.000000	-1.000000	-1.000000	-1.000000	-1.000000	146.620690	0.000000	-1.000000	-1.000000	650690.000000	1772311961.838457
-24487.875000	-35080.245000	-34202.925000	-18656.550000	0.000000	0.000000	0.000000	0.000000	-28.421375	-14.189215	49.245209	34.144804	-0.000000	0.000000	0.000000	0.000000	1.251320	8.759240	33.053160	0.058777	1.091062	-0.068542	-1.000000	-1.000000	-1.000000	-1.000000	-1.000000	-1.000000	-1.000000	146.620690	0.000000	-1.000000	-1.000000	650691.000000	1772311961.838459
-24619.410000	-35051.895000	-34240.770000	-18575.190000	0.000000	0.000000	0.000000	0.000000	-65.284387	-3.304511	47.104749	32.717570	-0.000000	0.000000	0.000000	0.000000	1.251320	8.759240	33.053160	0.058777	1.091062	-0.068542	-1.000000	-1.000000	-1.000000	-1.000000	-1.000000	-1.000000	-1.000000	146.620690	0.000000	-1.000000	-1.000000	650692.000000	1772311961.838463
-24636.600000	-35020.080000	-34236.270000	-18497.970000	0.000000	0.000000	0.000000	0.000000	-95.524505	12.466038	15.364435	25.518666	-0.000000	0.000000	0.000000	0.000000	1.251320	8.759240	33.053160	0.058777	1.091062	-0.068542	-1.000000	-1.000000	-1.000000	-1.000000	-1.000000	-1.000000	-1.000000	146.620690	0.000000	-1.000000	-1.000000	650693.000000	1772311961.838465
-24495.120000	-34996.770000	-34218.945000	-18603.630000	0.000000	0.000000	0.000000	0.000000	-94.204395	25.834414	-18.126805	14.298098	-0.000000	0.000000	0.000000	0.000000	38.104220	-5.905620	24.309180	0.034607	1.166501	0.012268	-1.000000	-1.000000	-1.000000	-1.000000	-1.000000	-1.000000	-1.000000	146.620690	0.000000	-1.000000	-1.000000	650694.000000	1772311961.842050
-24514.695000	-34994.295000	-34277.220000	-18759.195000	0.000000	0.000000	0.000000	0.000000	-46.542867	29.117585	-31.982921	-10.359596	-0.000000	0.000000	0.000000	0.000000	38.104220	-5.905620	24.309180	0.034607	1.166501	0.012268	-1.000000	-1.000000	-1.000000	-1.000000	-1.000000	-1.000000	-1.000000	146.620690	0.000000	-1.000000	-1.000000	650695.000000	1772311961.842053
-24647.805000	-35005.905000	-34278.210000	-18793.800000	0.000000	0.000000	0.000000	0.000000	26.133925	18.827865	-25.070429	-51.434466	-0.000000	0.000000	0.000000	0.000000	38.104220	-5.905620	24.309180	0.034607	1.166501	0.012268	-1.000000	-1.000000	-1.000000	-1.000000	-1.000000	-1.000000	-1.000000	146.620690	0.000000	-1.000000	-1.000000	650696.000000	1772311961.845924
-24717.645000	-35015.445000	-34339.905000	-18822.825000	0.000000	0.000000	0.000000	0.000000	76.431109	-1.810652	-9.077619	-87.457645	-0.000000	0.000000	0.000000	0.000000	38.104220	-5.905620	24.309180	0.034607	1.166501	0.012268	-1.000000	-1.000000	-1.000000	-1.000000	-1.000000	-1.000000	-1.000000	146.620690	0.000000	-1.000000	-1.000000	650697.000000	1772311961.845927
-24600.015000	-35003.475000	-34390.485000	-18920.385000	0.000000	0.000000	0.000000	0.000000	80.488875	-23.354725	4.115098	-90.380175	-0.000000	0.000000	0.000000	0.000000	38.104220	-5.905620	24.309180	0.034607	1.166501	0.012268	-1.000000	-1.000000	-1.000000	-1.000000	-1.000000	-1.000000	-1.000000	146.620690	0.000000	-1.000000	-1.000000	650698.000000	1772311961.849965
-24549.795000	-34997.715000	-34355.790000	-18882.270000	0.000000	0.000000	0.000000	0.000000	58.428323	-34.980499	10.064379	-54.161801	-0.000000	0.000000	0.000000	0.000000	38.104220	-5.905620	24.309180	0.034607	1.166501	0.012268	-1.000000	-1.000000	-1.000000	-1.000000	-1.000000	-1.000000	-1.000000	146.620690	0.000000	-1.000000	-1.000000	650699.000000	1772311961.849968
-24501.510000	-34998.795000	-34242.075000	-18774.180000	0.000000	0.000000	0.000000	0.000000	39.613226	-31.755255	15.781555	7.864773	-0.000000	0.000000	0.000000	0.000000	38.104220	-5.905620	24.309180	0.034607	1.166501	0.012268	-1.000000	-1.000000	-1.000000	-1.000000	-1.000000	-1.000000	-1.000000	146.620690	0.000000	-1.000000	-1.000000	650700.000000	1772311961.854015
-24543.720000	-34975.260000	-34076.025000	-18684.180000	0.000000	0.000000	0.000000	0.000000	29.262539	-17.132139	32.258897	76.369778	-0.000000	0.000000	0.000000	0.000000	38.104220	-5.905620	24.309180	0.034607	1.166501	0.012268	-1.000000	-1.000000	-1.000000	-1.000000	-1.000000	-1.000000	-1.000000	146.620690	0.000000	-1.000000	-1.000000	650701.000000	1772311961.854018
-24588.090000	-34985.790000	-34031.115000	-18644.940000	0.000000	0.000000	0.000000	0.000000	13.960354	0.980812	57.549868	126.575671	-0.000000	0.000000	0.000000	0.000000	38.104220	-5.905620	24.309180	0.034607	1.166501	0.012268	-1.000000	-1.000000	-1.000000	-1.000000	-1.000000	-1.000000	-1.000000	146.620690	0.000000	-1.000000	-1.000000	650702.000000	1772311961.858043
-24420.285000	-34989.930000	-34124.265000	-18730.305000	0.000000	0.000000	0.000000	0.000000	-11.070047	14.393596	68.675047	132.124198	-0.000000	0.000000	0.000000	0.000000	38.104220	-5.905620	24.309180	0.034607	1.166501	0.012268	-1.000000	-1.000000	-1.000000	-1.000000	-1.000000	-1.000000	-1.000000	146.620690	0.000000	-1.000000	-1.000000	650703.000000	1772311961.858046
-24404.265000	-34996.500000	-34202.070000	-18740.115000	0.000000	0.000000	0.000000	0.000000	-30.459044	18.171939	39.587189	82.333731	-0.000000	0.000000	0.000000	0.000000	-9.339120	-21.135100	45.688440	-0.005432	1.140378	0.033691	-1.000000	-1.000000	-1.000000	-1.000000	-1.000000	-1.000000	-1.000000	146.620690	0.000000	-1.000000	-1.000000	650704.000000	1772311961.861951
-24388.155000	-34997.940000	-34232.625000	-18722.475000	0.000000	0.000000	0.000000	0.000000	-31.874686	13.293367	-26.849836	-1.589964	-0.000000	0.000000	0.000000	0.000000	-9.339120	-21.135100	45.688440	-0.005432	1.140378	0.033691	-1.000000	-1.000000	-1.000000	-1.000000	-1.000000	-1.000000	-1.000000	146.620690	0.000000	-1.000000	-1.000000	650705.000000	1772311961.861954
-24410.790000	-34990.380000	-34345.530000	-18791.190000	0.000000	0.000000	0.000000	0.000000	-23.591672	5.112917	-95.370629	-77.704819	-0.000000	0.000000	0.000000	0.000000	-9.339120	-21.135100	45.688440	-0.005432	1.140378	0.033691	-1.000000	-1.000000	-1.000000	-1.000000	-1.000000	-1.000000	-1.000000	146.620690	0.000000	-1.000000	-1.000000	650706.000000	1772311961.866009
-24479.370000	-34969.500000	-34380.360000	-18788.490000	0.000000	0.000000	0.000000	0.000000	-20.711764	-0.536718	-128.841211	-114.841301	-0.000000	0.000000	0.000000	0.000000	-9.339120	-21.135100	45.688440	-0.005432	1.140378	0.033691	-1.000000	-1.000000	-1.000000	-1.000000	-1.000000	-1.000000	-1.000000	146.620690	0.000000	-1.000000	-1.000000	650707.000000	1772311961.866012
-24619.860000	-34953.525000	-34338.150000	-18784.215000	0.000000	0.000000	0.000000	0.000000	-30.496344	-0.663184	-110.436466	-105.920732	-0.000000	0.000000	0.000000	0.000000	-9.339120	-21.135100	45.688440	-0.005432	1.140378	0.033691	-1.000000	-1.000000	-1.000000	-1.000000	-1.000000	-1.000000	-1.000000	146.620690	0.000000	-1.000000	-1.000000	650708.000000	1772311961.869957
-24532.875000	-34955.820000	-34295.220000	-18779.580000	0.000000	0.000000	0.000000	0.000000	-45.736782	3.006036	-45.692203	-61.983402	-0.000000	0.000000	0.000000	0.000000	-9.339120	-21.135100	45.688440	-0.005432	1.140378	0.033691	-1.000000	-1.000000	-1.000000	-1.000000	-1.000000	-1.000000	-1.000000	146.620690	0.000000	-1.000000	-1.000000	650709.000000	1772311961.869959
-24725.475000	-34948.440000	-34271.595000	-18683.820000	0.000000	0.000000	0.000000	0.000000	-48.786945	5.637403	38.925744	-3.415788	-0.000000	0.000000	0.000000	0.000000	-9.339120	-21.135100	45.688440	-0.005432	1.140378	0.033691	-1.000000	-1.000000	-1.000000	-1.000000	-1.000000	-1.000000	-1.000000	146.620690	0.000000	-1.000000	-1.000000	650710.000000	1772311961.873971
-24666.480000	-34922.565000	-34287.795000	-18667.935000	0.000000	0.000000	0.000000	0.000000	-31.249712	4.429562	105.312132	49.285686	-0.000000	0.000000	0.000000	0.000000	-9.339120	-21.135100	45.688440	-0.005432	1.140378	0.033691	-1.000000	-1.000000	-1.000000	-1.000000	-1.000000	-1.000000	-1.000000	146.620690	0.000000	-1.000000	-1.000000	650711.000000	1772311961.873974
-24445.890000	-34909.110000	-34323.075000	-18745.515000	0.000000	0.000000	0.000000	0.000000	6.069633	1.055091	123.987525	77.401887	-0.000000	0.000000	0.000000	0.000000	-9.339120	-21.135100	45.688440	-0.005432	1.140378	0.033691	-1.000000	-1.000000	-1.000000	-1.000000	-1.000000	-1.000000	-1.000000	146.620690	0.000000	-1.000000	-1.000000	650712.000000	1772311961.878665
-24333.750000	-34899.975000	-34307.370000	-18789.345000	0.000000	0.000000	0.000000	0.000000	61.858776	-1.846981	91.555327	67.412975	-0.000000	0.000000	0.000000	0.000000	-9.339120	-21.135100	45.688440	-0.005432	1.140378	0.033691	-1.000000	-1.000000	-1.000000	-1.000000	-1.000000	-1.000000	-1.000000	146.620690	0.000000	-1.000000	-1.000000	650713.000000	1772311961.878667
-24265.170000	-34906.995000	-34212.015000	-18727.650000	0.000000	0.000000	0.000000	0.000000	117.176650	-4.050412	33.099228	26.549267	-0.000000	0.000000	0.000000	0.000000	-14.405440	-13.810300	37.249660	0.010498	1.016843	-0.000305	-1.000000	-1.000000	-1.000000	-1.000000	-1.000000	-1.000000	-1.000000	146.620690	0.000000	-1.000000	-1.000000	650714.000000	1772311961.882050
-24235.290000	-34925.490000	-34110.855000	-18611.685000	0.000000	0.000000	0.000000	0.000000	135.551776	-7.013081	-15.046773	-14.271878	-0.000000	0.000000	0.000000	0.000000	-14.405440	-13.810300	37.249660	0.010498	1.016843	-0.000305	-1.000000	-1.000000	-1.000000	-1.000000	-1.000000	-1.000000	-1.000000	146.620690	0.000000	-1.000000	-1.000000	650715.000000	1772311961.882053
-24436.620000	-34945.740000	-34216.695000	-18615.465000	0.000000	0.000000	0.000000	0.000000	92.198579	-11.384961	-35.019445	-27.499923	-0.000000	0.000000	0.000000	0.000000	-14.405440	-13.810300	37.249660	0.010498	1.016843	-0.000305	-1.000000	-1.000000	-1.000000	-1.000000	-1.000000	-1.000000	-1.000000	146.620690	0.000000	-1.000000	-1.000000	650716.000000	1772311961.886048
-24672.600000	-34934.670000	-34333.830000	-18698.805000	0.000000	0.000000	0.000000	0.000000	-8.934955	-14.927887	-40.980676	-16.909300	-0.000000	0.000000	0.000000	0.000000	-14.405440	-13.810300	37.249660	0.010498	1.016843	-0.000305	-1.000000	-1.000000	-1.000000	-1.000000	-1.000000	-1.000000	-1.000000	146.620690	0.000000	-1.000000	-1.000000	650717.000000	1772311961.886052
-24450.795000	-34867.530000	-34222.995000	-18711.810000	0.000000	0.000000	0.000000	0.000000	-124.492969	-12.190111	-50.845876	-7.754816	-0.000000	0.000000	0.000000	0.000000	-14.405440	-13.810300	37.249660	0.010498	1.016843	-0.000305	-1.000000	-1.000000	-1.000000	-1.000000	-1.000000	-1.000000	-1.000000	146.620690	0.000000	-1.000000	-1.000000	650718.000000	1772311961.890039
-24083.370000	-34803.855000	-34075.080000	-18678.870000	0.000000	0.000000	0.000000	0.000000	-175.561948	1.422862	-53.552953	-12.280405	-0.000000	0.000000	0.000000	0.000000	-14.405440	-13.810300	37.249660	0.010498	1.016843	-0.000305	-1.000000	-1.000000	-1.000000	-1.000000	-1.000000	-1.000000	-1.000000	146.620690	0.000000	-1.000000	-1.000000	650719.000000	1772311961.890042
-24294.330000	-34781.715000	-34122.465000	-18762.570000	0.000000	0.000000	0.000000	0.000000	-117.081036	22.018819	-30.008031	-21.422482	-0.000000	0.000000	0.000000	0.000000	-14.405440	-13.810300	37.249660	0.010498	1.016843	-0.000305	-1.000000	-1.000000	-1.000000	-1.000000	-1.000000	-1.000000	-1.000000	146.620690	0.000000	-1.000000	-1.000000	650720.000000	1772311961.894149
-24576.615000	-34785.180000	-34193.520000	-18850.320000	0.000000	0.000000	0.000000	0.000000	-7.157822	35.993209	7.365980	-26.412066	-0.000000	0.000000	0.000000	0.000000	-14.405440	-13.810300	37.249660	0.010498	1.016843	-0.000305	-1.000000	-1.000000	-1.000000	-1.000000	-1.000000	-1.000000	-1.000000	146.620690	0.000000	-1.000000	-1.000000	650721.000000	1772311961.894153
-24586.920000	-34807.095000	-34211.070000	-18780.390000	0.000000	0.000000	0.000000	0.000000	54.614956	30.684577	27.121301	-25.081006	-0.000000	0.000000	0.000000	0.000000	-14.405440	-13.810300	37.249660	0.010498	1.016843	-0.000305	-1.000000	-1.000000	-1.000000	-1.000000	-1.000000	-1.000000	-1.000000	146.620690	0.000000	-1.000000	-1.000000	650722.000000	1772311961.899607
-24274.890000	-34830.585000	-34333.695000	-18835.155000	0.000000	0.000000	0.000000	0.000000	47.802668	5.862977	16.598738	-13.118740	-0.000000	0.000000	0.000000	0.000000	-14.405440	-13.810300	37.249660	0.010498	1.016843	-0.000305	-1.000000	-1.000000	-1.000000	-1.000000	-1.000000	-1.000000	-1.000000	146.620690	0.000000	-1.000000	-1.000000	650723.000000	1772311961.899610
-24026.445000	-34837.515000	-34437.240000	-18865.800000	0.000000	0.000000	0.000000	0.000000	35.026860	-25.446011	-13.109091	8.333074	-0.000000	0.000000	0.000000	0.000000	5.524120	-10.407320	4.547480	0.048401	0.887205	0.006287	-1.000000	-1.000000	-1.000000	-1.000000	-1.000000	-1.000000	-1.000000	146.620690	0.000000	-1.000000	-1.000000	650724.000000	1772311961.902101
-23955.795000	-34808.265000	-34405.605000	-18823.230000	0.000000	0.000000	0.000000	0.000000	61.511272	-45.380626	-39.917410	28.751281	-0.000000	0.000000	0.000000	0.000000	5.524120	-10.407320	4.547480	0.048401	0.887205	0.006287	-1.000000	-1.000000	-1.000000	-1.000000	-1.000000	-1.000000	-1.000000	146.620690	0.000000	-1.000000	-1.000000	650725.000000	1772311961.902105
-23865.165000	-34785.945000	-34273.215000	-18788.040000	0.000000	0.000000	0.000000	0.000000	101.085555	-42.347042	-38.428880	41.405020	-0.000000	0.000000	0.000000	0.000000	5.524120	-10.407320	4.547480	0.048401	0.887205	0.006287	-1.000000	-1.000000	-1.000000	-1.000000	-1.000000	-1.000000	-1.000000	146.620690	0.000000	-1.000000	-1.000000	650726.000000	1772311961.906458
-24020.865000	-34792.515000	-34197.525000	-18713.835000	0.000000	0.000000	0.000000	0.000000	98.299844	-19.105175	2.896391	46.756192	-0.000000	0.000000	0.000000	0.000000	5.524120	-10.407320	4.547480	0.048401	0.887205	0.006287	-1.000000	-1.000000	-1.000000	-1.000000	-1.000000	-1.000000	-1.000000	146.620690	0.000000	-1.000000	-1.000000	650727.000000	1772311961.906461
-24374.295000	-34774.830000	-34295.355000	-18741.780000	0.000000	0.000000	0.000000	0.000000	22.943585	9.512626	61.405274	44.207495	-0.000000	0.000000	0.000000	0.000000	5.524120	-10.407320	4.547480	0.048401	0.887205	0.006287	-1.000000	-1.000000	-1.000000	-1.000000	-1.000000	-1.000000	-1.000000	146.620690	0.000000	-1.000000	-1.000000	650728.000000	1772311961.910162
-24264.405000	-34775.370000	-34290.945000	-18765.855000	0.000000	0.000000	0.000000	0.000000	-101.757916	28.645635	92.572753	28.786804	-0.000000	0.000000	0.000000	0.000000	5.524120	-10.407320	4.547480	0.048401	0.887205	0.006287	-1.000000	-1.000000	-1.000000	-1.000000	-1.000000	-1.000000	-1.000000	146.620690	0.000000	-1.000000	-1.000000	650729.000000	1772311961.910165
-23966.685000	-34768.755000	-34258.275000	-18735.570000	0.000000	0.000000	0.000000	0.000000	-192.968980	32.197625	73.769978	-0.205164	-0.000000	0.000000	0.000000	0.000000	5.524120	-10.407320	4.547480	0.048401	0.887205	0.006287	-1.000000	-1.000000	-1.000000	-1.000000	-1.000000	-1.000000	-1.000000	146.620690	0.000000	-1.000000	-1.000000	650730.000000	1772311961.914134
-24089.760000	-34777.620000	-34209.315000	-18698.895000	0.000000	0.000000	0.000000	0.000000	-174.304333	22.586627	23.753100	-30.444274	-0.000000	0.000000	0.000000	0.000000	5.524120	-10.407320	4.547480	0.048401	0.887205	0.006287	-1.000000	-1.000000	-1.000000	-1.000000	-1.000000	-1.000000	-1.000000	146.620690	0.000000	-1.000000	-1.000000	650731.000000	1772311961.914137
-24242.220000	-34791.480000	-34286.220000	-18773.910000	0.000000	0.000000	0.000000	0.000000	-65.457200	6.484288	-24.910839	-47.326527	-0.000000	0.000000	0.000000	0.000000	5.524120	-10.407320	4.547480	0.048401	0.887205	0.006287	-1.000000	-1.000000	-1.000000	-1.000000	-1.000000	-1.000000	-1.000000	146.620690	0.000000	-1.000000	-1.000000	650732.000000	1772311961.918036
-24300.225000	-34816.005000	-34384.410000	-18835.425000	0.000000	0.000000	0.000000	0.000000	43.442027	-9.314686	-57.070210	-49.899075	-0.000000	0.000000	0.000000	0.000000	5.524120	-10.407320	4.547480	0.048401	0.887205	0.006287	-1.000000	-1.000000	-1.000000	-1.000000	-1.000000	-1.000000	-1.000000	146.620690	0.000000	-1.000000	-1.000000	650733.000000	1772311961.918038
-24324.120000	-34816.590000	-34321.995000	-18821.070000	0.000000	0.000000	0.000000	0.000000	92.359471	-19.617980	-71.661544	-44.580933	-0.000000	0.000000	0.000000	0.000000	35.296380	-0.427280	20.173720	0.045959	0.822996	0.026306	-1.000000	-1.000000	-1.000000	-1.000000	-1.000000	-1.000000	-1.000000	146.620690	0.000000	-1.000000	-1.000000	650734.000000	1772311961.922297
-24180.750000	-34827.165000	-34313.445000	-18872.370000	0.000000	0.000000	0.000000	0.000000	88.749500	-21.144315	-64.165661	-32.182555	-0.000000	0.000000	0.000000	0.000000	35.296380	-0.427280	20.173720	0.045959	0.822996	0.026306	-1.000000	-1.000000	-1.000000	-1.000000	-1.000000	-1.000000	-1.000000	146.620690	0.000000	-1.000000	-1.000000	650735.000000	1772311961.922300
-24161.940000	-34845.840000	-34275.600000	-18843.615000	0.000000	0.000000	0.000000	0.000000	71.094372	-14.214627	-32.207653	-11.604240	-0.000000	0.000000	0.000000	0.000000	35.296380	-0.427280	20.173720	0.045959	0.822996	0.026306	-1.000000	-1.000000	-1.000000	-1.000000	-1.000000	-1.000000	-1.000000	146.620690	0.000000	-1.000000	-1.000000	650736.000000	1772311961.926217
-24215.220000	-34847.280000	-34256.340000	-18827.505000	0.000000	0.000000	0.000000	0.000000	59.620923	-3.103375	11.910620	14.172180	-0.000000	0.000000	0.000000	0.000000	35.296380	-0.427280	20.173720	0.045959	0.822996	0.026306	-1.000000	-1.000000	-1.000000	-1.000000	-1.000000	-1.000000	-1.000000	146.620690	0.000000	-1.000000	-1.000000	650737.000000	1772311961.926220
-24211.620000	-34837.245000	-34342.740000	-18872.955000	0.000000	0.000000	0.000000	0.000000	45.074645	7.629732	45.835489	37.521009	-0.000000	0.000000	0.000000	0.000000	35.296380	-0.427280	20.173720	0.045959	0.822996	0.026306	-1.000000	-1.000000	-1.000000	-1.000000	-1.000000	-1.000000	-1.000000	146.620690	0.000000	-1.000000	-1.000000	650738.000000	1772311961.930182
-24166.080000	-34824.600000	-34395.030000	-18904.005000	0.000000	0.000000	0.000000	0.000000	18.218050	15.770534	50.590022	47.203667	-0.000000	0.000000	0.000000	0.000000	35.296380	-0.427280	20.173720	0.045959	0.822996	0.026306	-1.000000	-1.000000	-1.000000	-1.000000	-1.000000	-1.000000	-1.000000	146.620690	0.000000	-1.000000	-1.000000	650739.000000	1772311961.930185
-24019.785000	-34797.555000	-34312.275000	-18858.645000	0.000000	0.000000	0.000000	0.000000	-10.060999	20.520235	27.480763	38.561202	-0.000000	0.000000	0.000000	0.000000	35.296380	-0.427280	20.173720	0.045959	0.822996	0.026306	-1.000000	-1.000000	-1.000000	-1.000000	-1.000000	-1.000000	-1.000000	146.620690	0.000000	-1.000000	-1.000000	650740.000000	1772311961.934124
-23921.685000	-34782.705000	-34231.905000	-18792.765000	0.000000	0.000000	0.000000	0.000000	-21.340238	21.275726	1.401589	21.677626	-0.000000	0.000000	0.000000	0.000000	35.296380	-0.427280	20.173720	0.045959	0.822996	0.026306	-1.000000	-1.000000	-1.000000	-1.000000	-1.000000	-1.000000	-1.000000	146.620690	0.000000	-1.000000	-1.000000	650741.000000	1772311961.934127
-23980.005000	-34817.130000	-34230.780000	-18756.180000	0.000000	0.000000	0.000000	0.000000	-14.577878	16.452658	-5.278341	10.619461	-0.000000	0.000000	0.000000	0.000000	35.296380	-0.427280	20.173720	0.045959	0.822996	0.026306	-1.000000	-1.000000	-1.000000	-1.000000	-1.000000	-1.000000	-1.000000	146.620690	0.000000	-1.000000	-1.000000	650742.000000	1772311961.938170
-24077.475000	-34857.765000	-34303.185000	-18793.890000	0.000000	0.000000	0.000000	0.000000	-11.773832	3.760305	2.612214	6.916110	-0.000000	0.000000	0.000000	0.000000	35.296380	-0.427280	20.173720	0.045959	0.822996	0.026306	-1.000000	-1.000000	-1.000000	-1.000000	-1.000000	-1.000000	-1.000000	146.620690	0.000000	-1.000000	-1.000000	650743.000000	1772311961.938172
-24140.205000	-34887.240000	-34287.345000	-18834.165000	0.000000	0.000000	0.000000	0.000000	-31.675176	-15.195464	4.754404	-0.204554	-0.000000	0.000000	0.000000	0.000000	27.696900	1.464960	12.482680	0.047790	0.845091	0.003418	-1.000000	-1.000000	-1.000000	-1.000000	-1.000000	-1.000000	-1.000000	146.758621	0.000000	-1.000000	-1.000000	650744.000000	1772311961.942284
-24049.665000	-34913.295000	-34199.055000	-18738.090000	0.000000	0.000000	0.000000	0.000000	-62.596444	-32.146982	-4.566854	-15.561102	-0.000000	0.000000	0.000000	0.000000	27.696900	1.464960	12.482680	0.047790	0.845091	0.003418	-1.000000	-1.000000	-1.000000	-1.000000	-1.000000	-1.000000	-1.000000	146.758621	0.000000	-1.000000	-1.000000	650745.000000	1772311961.942286
-23868.405000	-34903.305000	-34120.665000	-18648.270000	0.000000	0.000000	0.000000	0.000000	-69.118628	-36.983548	-11.215351	-26.747031	-0.000000	0.000000	0.000000	0.000000	27.696900	1.464960	12.482680	0.047790	0.845091	0.003418	-1.000000	-1.000000	-1.000000	-1.000000	-1.000000	-1.000000	-1.000000	146.758621	0.000000	-1.000000	-1.000000	650746.000000	1772311961.946206
-23845.905000	-34890.390000	-34067.160000	-18570.240000	0.000000	0.000000	0.000000	0.000000	-30.114024	-24.868829	-3.960609	-19.605701	-0.000000	0.000000	0.000000	0.000000	27.696900	1.464960	12.482680	0.047790	0.845091	0.003418	-1.000000	-1.000000	-1.000000	-1.000000	-1.000000	-1.000000	-1.000000	146.758621	0.000000	-1.000000	-1.000000	650747.000000	1772311961.946209
-23803.380000	-34889.580000	-34187.805000	-18696.555000	0.000000	0.000000	0.000000	0.000000	33.095229	-0.342490	8.116769	-0.997227	-0.000000	0.000000	0.000000	0.000000	27.696900	1.464960	12.482680	0.047790	0.845091	0.003418	-1.000000	-1.000000	-1.000000	-1.000000	-1.000000	-1.000000	-1.000000	146.758621	0.000000	-1.000000	-1.000000	650748.000000	1772311961.950229
-23739.345000	-34889.040000	-34290.720000	-18858.285000	0.000000	0.000000	0.000000	0.000000	77.615639	24.338799	3.535678	2.838373	-0.000000	0.000000	0.000000	0.000000	27.696900	1.464960	12.482680	0.047790	0.845091	0.003418	-1.000000	-1.000000	-1.000000	-1.000000	-1.000000	-1.000000	-1.000000	146.758621	0.000000	-1.000000	-1.000000	650749.000000	1772311961.950233
-24062.805000	-34891.155000	-34229.520000	-18781.335000	0.000000	0.000000	0.000000	0.000000	73.474686	37.154930	-23.021914	-20.807052	-0.000000	0.000000	0.000000	0.000000	27.696900	1.464960	12.482680	0.047790	0.845091	0.003418	-1.000000	-1.000000	-1.000000	-1.000000	-1.000000	-1.000000	-1.000000	146.758621	0.000000	-1.000000	-1.000000	650750.000000	1772311961.954344
-24158.880000	-34892.730000	-34207.290000	-18735.390000	0.000000	0.000000	0.000000	0.000000	14.529866	33.751923	-47.217897	-47.214296	-0.000000	0.000000	0.000000	0.000000	27.696900	1.464960	12.482680	0.047790	0.845091	0.003418	-1.000000	-1.000000	-1.000000	-1.000000	-1.000000	-1.000000	-1.000000	146.758621	0.000000	-1.000000	-1.000000	650751.000000	1772311961.954347
-23952.870000	-34878.780000	-34211.655000	-18719.415000	0.000000	0.000000	0.000000	0.000000	-64.802055	18.614745	-43.122809	-42.941751	-0.000000	0.000000	0.000000	0.000000	27.696900	1.464960	12.482680	0.047790	0.845091	0.003418	-1.000000	-1.000000	-1.000000	-1.000000	-1.000000	-1.000000	-1.000000	146.758621	0.000000	-1.000000	-1.000000	650752.000000	1772311961.963566
-23759.505000	-34884.720000	-34190.235000	-18622.800000	0.000000	0.000000	0.000000	0.000000	-96.205644	0.685632	-11.993729	-4.716240	-0.000000	0.000000	0.000000	0.000000	27.696900	1.464960	12.482680	0.047790	0.845091	0.003418	-1.000000	-1.000000	-1.000000	-1.000000	-1.000000	-1.000000	-1.000000	146.758621	0.000000	-1.000000	-1.000000	650753.000000	1772311961.963569
-23770.665000	-34896.555000	-34249.905000	-18657.000000	0.000000	0.000000	0.000000	0.000000	-46.015567	-13.069088	24.073939	42.956356	-0.000000	0.000000	0.000000	0.000000	-6.928040	4.593260	6.088740	0.059387	0.924558	-0.043762	-1.000000	-1.000000	-1.000000	-1.000000	-1.000000	-1.000000	-1.000000	146.758621	0.000000	-1.000000	-1.000000	650754.000000	1772311961.963573
-24009.030000	-34902.675000	-34323.705000	-18799.830000	0.000000	0.000000	0.000000	0.000000	38.473468	-20.346085	41.849456	67.279689	-0.000000	0.000000	0.000000	0.000000	-6.928040	4.593260	6.088740	0.059387	0.924558	-0.043762	-1.000000	-1.000000	-1.000000	-1.000000	-1.000000	-1.000000	-1.000000	146.758621	0.000000	-1.000000	-1.000000	650755.000000	1772311961.963575
-24046.200000	-34877.790000	-34397.505000	-18902.205000	0.000000	0.000000	0.000000	0.000000	78.881548	-20.796586	31.593183	46.933347	-0.000000	0.000000	0.000000	0.000000	-6.928040	4.593260	6.088740	0.059387	0.924558	-0.043762	-1.000000	-1.000000	-1.000000	-1.000000	-1.000000	-1.000000	-1.000000	146.758621	0.000000	-1.000000	-1.000000	650756.000000	1772311961.966260
-24017.265000	-34838.955000	-34308.630000	-18778.140000	0.000000	0.000000	0.000000	0.000000	50.681007	-13.725793	5.477415	-4.363736	-0.000000	0.000000	0.000000	0.000000	-6.928040	4.593260	6.088740	0.059387	0.924558	-0.043762	-1.000000	-1.000000	-1.000000	-1.000000	-1.000000	-1.000000	-1.000000	146.758621	0.000000	-1.000000	-1.000000	650757.000000	1772311961.966263
-23968.305000	-34788.555000	-34215.030000	-18688.680000	0.000000	0.000000	0.000000	0.000000	-3.476400	0.087530	-9.345622	-41.674349	-0.000000	0.000000	0.000000	0.000000	-6.928040	4.593260	6.088740	0.059387	0.924558	-0.043762	-1.000000	-1.000000	-1.000000	-1.000000	-1.000000	-1.000000	-1.000000	146.758621	0.000000	-1.000000	-1.000000	650758.000000	1772311961.970352
-23986.125000	-34748.100000	-34307.370000	-18777.915000	0.000000	0.000000	0.000000	0.000000	-33.276027	15.879575	1.084056	-35.662277	-0.000000	0.000000	0.000000	0.000000	-6.928040	4.593260	6.088740	0.059387	0.924558	-0.043762	-1.000000	-1.000000	-1.000000	-1.000000	-1.000000	-1.000000	-1.000000	146.758621	0.000000	-1.000000	-1.000000	650759.000000	1772311961.970354
-24084.540000	-34727.625000	-34386.390000	-18890.595000	0.000000	0.000000	0.000000	0.000000	-27.989470	25.807227	18.646321	-5.277371	-0.000000	0.000000	0.000000	0.000000	-6.928040	4.593260	6.088740	0.059387	0.924558	-0.043762	-1.000000	-1.000000	-1.000000	-1.000000	-1.000000	-1.000000	-1.000000	146.758621	0.000000	-1.000000	-1.000000	650760.000000	1772311961.974398
-24022.215000	-34709.040000	-34216.875000	-18744.930000	0.000000	0.000000	0.000000	0.000000	-7.882014	23.474684	20.868630	15.091233	-0.000000	0.000000	0.000000	0.000000	-6.928040	4.593260	6.088740	0.059387	0.924558	-0.043762	-1.000000	-1.000000	-1.000000	-1.000000	-1.000000	-1.000000	-1.000000	146.758621	0.000000	-1.000000	-1.000000	650761.000000	1772311961.974400
-24057.720000	-34699.140000	-34135.290000	-18617.985000	0.000000	0.000000	0.000000	0.000000	9.332079	8.834385	14.045127	22.129877	-0.000000	0.000000	0.000000	0.000000	-6.928040	4.593260	6.088740	0.059387	0.924558	-0.043762	-1.000000	-1.000000	-1.000000	-1.000000	-1.000000	-1.000000	-1.000000	146.758621	0.000000	-1.000000	-1.000000	650762.000000	1772311961.978523
-23996.790000	-34697.790000	-34113.420000	-18607.455000	0.000000	0.000000	0.000000	0.000000	19.656576	-11.468949	14.109719	30.949266	-0.000000	0.000000	0.000000	0.000000	-6.928040	4.593260	6.088740	0.059387	0.924558	-0.043762	-1.000000	-1.000000	-1.000000	-1.000000	-1.000000	-1.000000	-1.000000	146.758621	0.000000	-1.000000	-1.000000	650763.000000	1772311961.978526
-23947.020000	-34706.070000	-34299.990000	-18912.420000	0.000000	0.000000	0.000000	0.000000	25.192616	-28.699341	13.515280	33.214371	-0.000000	0.000000	0.000000	0.000000	-10.682000	5.630940	3.174080	0.080078	0.958677	-0.049255	-1.000000	-1.000000	-1.000000	-1.000000	-1.000000	-1.000000	-1.000000	146.758621	0.000000	-1.000000	-1.000000	650764.000000	1772311961.982232
-23983.920000	-34700.805000	-34356.780000	-18994.590000	0.000000	0.000000	0.000000	0.000000	26.746789	-36.457658	-8.291604	3.017847	-0.000000	0.000000	0.000000	0.000000	-10.682000	5.630940	3.174080	0.080078	0.958677	-0.049255	-1.000000	-1.000000	-1.000000	-1.000000	-1.000000	-1.000000	-1.000000	146.758621	0.000000	-1.000000	-1.000000	650765.000000	1772311961.982236
-23971.680000	-34685.865000	-34245.225000	-18821.430000	0.000000	0.000000	0.000000	0.000000	19.961235	-32.096193	-46.599071	-50.825098	-0.000000	0.000000	0.000000	0.000000	-10.682000	5.630940	3.174080	0.080078	0.958677	-0.049255	-1.000000	-1.000000	-1.000000	-1.000000	-1.000000	-1.000000	-1.000000	146.758621	0.000000	-1.000000	-1.000000	650766.000000	1772311961.986642
