Channel1	Channel2	Channel3	Channel4	Channel5	Channel6	Channel7	Channel8	FilteredChannel1	FilteredChannel2	FilteredChannel3	FilteredChannel4	FilteredChannel5	FilteredChannel6	FilteredChannel7	FilteredChannel8	GyroX	GyroY	GyroZ	AccX	AccY	AccZ	PPG1	PPG2	rawPPG1	rawPPG2	rawPPG3	Hr	Hrv	Battery	Trigger	PhysicalTrigger	AutoTrigger	NumMeasurements	Timestamp
-22567.680000	-32023.485000	-31199.445000	-15692.085000	0.000000	0.000000	0.000000	0.000000	11.771351	-30.504913	6.100319	-1.451859	-0.000000	0.000000	-0.000000	0.000000	4.913720	0.564620	1.876980	-0.005859	0.981992	-0.010193	-1.000000	-1.000000	-1.000000	-1.000000	-1.000000	-1.000000	-1.000000	146.827586	0.000000	-1.000000	-1.000000	579497.000000	1772311818.999825
-22566.915000	-32043.015000	-31191.210000	-15687.135000	0.000000	0.000000	0.000000	0.000000	-2.111464	-11.723189	-3.645003	-13.016313	-0.000000	0.000000	-0.000000	0.000000	4.913720	0.564620	1.876980	-0.005859	0.981992	-0.010193	-1.000000	-1.000000	-1.000000	-1.000000	-1.000000	-1.000000	-1.000000	146.827586	0.000000	-1.000000	-1.000000	579498.000000	1772311818.999828
-22551.390000	-32037.705000	-31178.430000	-15675.480000	0.000000	0.000000	0.000000	0.000000	-9.413365	10.163488	-5.436824	-15.312999	-0.000000	0.000000	-0.000000	0.000000	7.233240	0.625660	2.289000	-0.005066	0.977781	-0.006958	-1.000000	-1.000000	-1.000000	-1.000000	-1.000000	-1.000000	-1.000000	146.827586	0.000000	-1.000000	-1.000000	579499.000000	1772311819.003826
-22542.480000	-32029.020000	-31170.060000	-15665.085000	0.000000	0.000000	0.000000	0.000000	-8.681762	27.943764	-1.452270	-10.172243	0.000000	0.000000	-0.000000	0.000000	7.233240	0.625660	2.289000	-0.005066	0.977781	-0.006958	-1.000000	-1.000000	-1.000000	-1.000000	-1.000000	-1.000000	-1.000000	146.827586	0.000000	-1.000000	-1.000000	579500.000000	1772311819.003830
-22573.440000	-32049.090000	-31195.080000	-15691.905000	0.000000	0.000000	0.000000	0.000000	-3.699008	37.063381	2.554341	-3.187536	0.000000	0.000000	-0.000000	0.000000	7.233240	0.625660	2.289000	-0.005066	0.977781	-0.006958	-1.000000	-1.000000	-1.000000	-1.000000	-1.000000	-1.000000	-1.000000	146.827586	0.000000	-1.000000	-1.000000	579501.000000	1772311819.007788
-22582.980000	-32056.605000	-31205.295000	-15707.520000	0.000000	0.000000	0.000000	0.000000	-0.764549	34.759637	1.519938	-0.216110	0.000000	0.000000	-0.000000	0.000000	7.233240	0.625660	2.289000	-0.005066	0.977781	-0.006958	-1.000000	-1.000000	-1.000000	-1.000000	-1.000000	-1.000000	-1.000000	146.827586	0.000000	-1.000000	-1.000000	579502.000000	1772311819.007790
-22542.570000	-32075.730000	-31184.415000	-15683.220000	0.000000	0.000000	0.000000	0.000000	-1.823527	21.771301	-4.246154	-2.380377	0.000000	0.000000	-0.000000	0.000000	7.233240	0.625660	2.289000	-0.005066	0.977781	-0.006958	-1.000000	-1.000000	-1.000000	-1.000000	-1.000000	-1.000000	-1.000000	146.827586	0.000000	-1.000000	-1.000000	579503.000000	1772311819.011706
-22524.030000	-32111.370000	-31170.015000	-15675.525000	0.000000	0.000000	0.000000	0.000000	-2.008163	3.054080	-8.645232	-4.525974	0.000000	0.000000	-0.000000	0.000000	7.233240	0.625660	2.289000	-0.005066	0.977781	-0.006958	-1.000000	-1.000000	-1.000000	-1.000000	-1.000000	-1.000000	-1.000000	146.827586	0.000000	-1.000000	-1.000000	579504.000000	1772311819.011709
-22562.325000	-32097.195000	-31204.530000	-15697.845000	0.000000	0.000000	0.000000	0.000000	1.483926	-14.251734	-7.523753	-2.537164	0.000000	0.000000	-0.000000	0.000000	7.233240	0.625660	2.289000	-0.005066	0.977781	-0.006958	-1.000000	-1.000000	-1.000000	-1.000000	-1.000000	-1.000000	-1.000000	146.827586	0.000000	-1.000000	-1.000000	579505.000000	1772311819.015799
-22566.825000	-32073.075000	-31201.605000	-15685.245000	0.000000	0.000000	0.000000	0.000000	3.897388	-22.364021	-3.665614	1.601959	0.000000	0.000000	-0.000000	0.000000	7.233240	0.625660	2.289000	-0.005066	0.977781	-0.006958	-1.000000	-1.000000	-1.000000	-1.000000	-1.000000	-1.000000	-1.000000	146.827586	0.000000	-1.000000	-1.000000	579506.000000	1772311819.015801
-22554.180000	-32048.730000	-31191.345000	-15688.890000	0.000000	0.000000	0.000000	0.000000	1.344056	-16.958336	-0.787252	4.527885	0.000000	0.000000	-0.000000	0.000000	7.233240	0.625660	2.289000	-0.005066	0.977781	-0.006958	-1.000000	-1.000000	-1.000000	-1.000000	-1.000000	-1.000000	-1.000000	146.827586	0.000000	-1.000000	-1.000000	579507.000000	1772311819.019702
-22547.340000	-32027.940000	-31191.615000	-15685.695000	0.000000	0.000000	0.000000	0.000000	-2.870152	-1.935763	1.413744	5.391690	0.000000	0.000000	-0.000000	0.000000	7.233240	0.625660	2.289000	-0.005066	0.977781	-0.006958	-1.000000	-1.000000	-1.000000	-1.000000	-1.000000	-1.000000	-1.000000	146.827586	0.000000	-1.000000	-1.000000	579508.000000	1772311819.019705
-22548.240000	-31998.465000	-31195.710000	-15683.445000	0.000000	0.000000	0.000000	0.000000	-4.010684	13.080039	3.791701	4.667533	0.000000	0.000000	-0.000000	0.000000	10.926160	-2.731540	5.035800	-0.009644	0.978696	-0.003906	-1.000000	-1.000000	-1.000000	-1.000000	-1.000000	-1.000000	-1.000000	146.827586	0.000000	-1.000000	-1.000000	579509.000000	1772311819.027983
-22539.555000	-31979.205000	-31176.090000	-15675.030000	0.000000	0.000000	0.000000	0.000000	-1.595297	19.955956	5.629640	3.216987	0.000000	0.000000	-0.000000	0.000000	10.926160	-2.731540	5.035800	-0.009644	0.978696	-0.003906	-1.000000	-1.000000	-1.000000	-1.000000	-1.000000	-1.000000	-1.000000	146.827586	0.000000	-1.000000	-1.000000	579510.000000	1772311819.027986
-22531.365000	-31984.380000	-31149.990000	-15675.975000	0.000000	0.000000	0.000000	0.000000	2.069456	15.725958	6.921952	1.832613	0.000000	0.000000	-0.000000	0.000000	10.926160	-2.731540	5.035800	-0.009644	0.978696	-0.003906	-1.000000	-1.000000	-1.000000	-1.000000	-1.000000	-1.000000	-1.000000	146.827586	0.000000	-1.000000	-1.000000	579511.000000	1772311819.028225
-22543.695000	-31995.090000	-31173.570000	-15691.590000	0.000000	0.000000	0.000000	0.000000	4.466387	2.060398	7.645277	0.256246	0.000000	0.000000	-0.000000	0.000000	10.926160	-2.731540	5.035800	-0.009644	0.978696	-0.003906	-1.000000	-1.000000	-1.000000	-1.000000	-1.000000	-1.000000	-1.000000	146.827586	0.000000	-1.000000	-1.000000	579512.000000	1772311819.028228
-22555.395000	-31983.705000	-31196.520000	-15693.525000	0.000000	0.000000	0.000000	0.000000	3.539407	-15.155202	5.095405	-2.353645	0.000000	0.000000	-0.000000	0.000000	10.926160	-2.731540	5.035800	-0.009644	0.978696	-0.003906	-1.000000	-1.000000	-1.000000	-1.000000	-1.000000	-1.000000	-1.000000	146.827586	0.000000	-1.000000	-1.000000	579513.000000	1772311819.031736
-22564.350000	-31995.765000	-31196.520000	-15677.460000	0.000000	0.000000	0.000000	0.000000	-0.910799	-27.578248	-2.554247	-5.025069	0.000000	0.000000	-0.000000	0.000000	10.926160	-2.731540	5.035800	-0.009644	0.978696	-0.003906	-1.000000	-1.000000	-1.000000	-1.000000	-1.000000	-1.000000	-1.000000	146.827586	0.000000	-1.000000	-1.000000	579514.000000	1772311819.031739
-22582.890000	-31989.645000	-31211.820000	-15680.430000	0.000000	0.000000	0.000000	0.000000	-6.430444	-29.573173	-11.572673	-5.144176	0.000000	0.000000	-0.000000	0.000000	10.926160	-2.731540	5.035800	-0.009644	0.978696	-0.003906	-1.000000	-1.000000	-1.000000	-1.000000	-1.000000	-1.000000	-1.000000	146.827586	0.000000	-1.000000	-1.000000	579515.000000	1772311819.035849
-22573.035000	-31971.105000	-31206.870000	-15692.040000	0.000000	0.000000	0.000000	0.000000	-9.506263	-20.876737	-15.892925	-2.396424	0.000000	0.000000	-0.000000	0.000000	10.926160	-2.731540	5.035800	-0.009644	0.978696	-0.003906	-1.000000	-1.000000	-1.000000	-1.000000	-1.000000	-1.000000	-1.000000	146.827586	0.000000	-1.000000	-1.000000	579516.000000	1772311819.035852
-22529.835000	-31927.500000	-31168.035000	-15671.115000	0.000000	0.000000	0.000000	0.000000	-6.746879	-4.612725	-11.849038	0.862353	0.000000	0.000000	-0.000000	0.000000	10.926160	-2.731540	5.035800	-0.009644	0.978696	-0.003906	-1.000000	-1.000000	-1.000000	-1.000000	-1.000000	-1.000000	-1.000000	146.827586	0.000000	-1.000000	-1.000000	579517.000000	1772311819.039854
-22512.690000	-31898.520000	-31164.120000	-15688.125000	0.000000	0.000000	0.000000	0.000000	3.050526	14.140137	0.010983	3.000199	0.000000	0.000000	-0.000000	0.000000	10.926160	-2.731540	5.035800	-0.009644	0.978696	-0.003906	-1.000000	-1.000000	-1.000000	-1.000000	-1.000000	-1.000000	-1.000000	146.827586	0.000000	-1.000000	-1.000000	579518.000000	1772311819.039857
-22580.280000	-31888.980000	-31234.275000	-15748.560000	0.000000	0.000000	0.000000	0.000000	13.890106	28.153253	12.188299	2.259202	0.000000	0.000000	-0.000000	0.000000	14.283360	-1.388660	5.310480	-0.005981	0.978269	-0.005066	-1.000000	-1.000000	-1.000000	-1.000000	-1.000000	-1.000000	-1.000000	146.827586	0.000000	-1.000000	-1.000000	579519.000000	1772311819.043870
-22609.125000	-31907.970000	-31255.965000	-15740.505000	0.000000	0.000000	0.000000	0.000000	14.555726	29.946811	13.740992	-3.050486	0.000000	0.000000	-0.000000	0.000000	14.283360	-1.388660	5.310480	-0.005981	0.978269	-0.005066	-1.000000	-1.000000	-1.000000	-1.000000	-1.000000	-1.000000	-1.000000	146.827586	0.000000	-1.000000	-1.000000	579520.000000	1772311819.043873
-22589.055000	-31894.695000	-31232.025000	-15710.625000	0.000000	0.000000	0.000000	0.000000	2.368636	17.354968	3.436062	-8.626456	0.000000	0.000000	-0.000000	0.000000	14.283360	-1.388660	5.310480	-0.005981	0.978269	-0.005066	-1.000000	-1.000000	-1.000000	-1.000000	-1.000000	-1.000000	-1.000000	146.827586	0.000000	-1.000000	-1.000000	579521.000000	1772311819.047778
-22577.625000	-31904.010000	-31219.020000	-15705.495000	0.000000	0.000000	0.000000	0.000000	-11.222937	-2.936284	-7.030819	-6.592178	0.000000	0.000000	-0.000000	0.000000	14.283360	-1.388660	5.310480	-0.005981	0.978269	-0.005066	-1.000000	-1.000000	-1.000000	-1.000000	-1.000000	-1.000000	-1.000000	146.827586	0.000000	-1.000000	-1.000000	579522.000000	1772311819.047781
-22560.930000	-31925.115000	-31207.905000	-15705.540000	0.000000	0.000000	0.000000	0.000000	-13.887566	-20.536428	-7.168062	3.581842	0.000000	0.000000	-0.000000	0.000000	14.283360	-1.388660	5.310480	-0.005981	0.978269	-0.005066	-1.000000	-1.000000	-1.000000	-1.000000	-1.000000	-1.000000	-1.000000	146.827586	0.000000	-1.000000	-1.000000	579523.000000	1772311819.051856
-22513.320000	-31916.565000	-31169.205000	-15668.145000	0.000000	0.000000	0.000000	0.000000	-3.891480	-28.593524	2.506549	14.601853	0.000000	0.000000	-0.000000	0.000000	14.283360	-1.388660	5.310480	-0.005981	0.978269	-0.005066	-1.000000	-1.000000	-1.000000	-1.000000	-1.000000	-1.000000	-1.000000	146.827586	0.000000	-1.000000	-1.000000	579524.000000	1772311819.051859
-22538.970000	-31928.490000	-31192.425000	-15690.600000	0.000000	0.000000	0.000000	0.000000	11.004118	-25.211126	13.866124	19.609169	0.000000	0.000000	-0.000000	0.000000	14.283360	-1.388660	5.310480	-0.005981	0.978269	-0.005066	-1.000000	-1.000000	-1.000000	-1.000000	-1.000000	-1.000000	-1.000000	146.827586	0.000000	-1.000000	-1.000000	579525.000000	1772311819.055974
-22604.130000	-31915.125000	-31256.100000	-15753.915000	0.000000	0.000000	0.000000	0.000000	18.113176	-12.800909	16.469144	14.262304	0.000000	0.000000	-0.000000	0.000000	14.283360	-1.388660	5.310480	-0.005981	0.978269	-0.005066	-1.000000	-1.000000	-1.000000	-1.000000	-1.000000	-1.000000	-1.000000	146.827586	0.000000	-1.000000	-1.000000	579526.000000	1772311819.055977
-22589.280000	-31897.350000	-31240.260000	-15734.745000	0.000000	0.000000	0.000000	0.000000	9.398028	3.433508	5.135613	-1.480690	0.000000	0.000000	-0.000000	0.000000	14.283360	-1.388660	5.310480	-0.005981	0.978269	-0.005066	-1.000000	-1.000000	-1.000000	-1.000000	-1.000000	-1.000000	-1.000000	146.827586	0.000000	-1.000000	-1.000000	579527.000000	1772311819.059856
-22580.055000	-31886.100000	-31226.085000	-15714.450000	0.000000	0.000000	0.000000	0.000000	-8.111776	17.961876	-12.032281	-18.045754	0.000000	0.000000	-0.000000	0.000000	14.283360	-1.388660	5.310480	-0.005981	0.978269	-0.005066	-1.000000	-1.000000	-1.000000	-1.000000	-1.000000	-1.000000	-1.000000	146.827586	0.000000	-1.000000	-1.000000	579528.000000	1772311819.059859
-22589.730000	-31847.310000	-31231.665000	-15713.640000	0.000000	0.000000	0.000000	0.000000	-19.429766	26.486690	-20.911422	-22.851258	0.000000	0.000000	-0.000000	0.000000	12.726840	-0.625660	3.143560	0.001526	0.979185	-0.014099	-1.000000	-1.000000	-1.000000	-1.000000	-1.000000	-1.000000	-1.000000	146.827586	0.000000	-1.000000	-1.000000	579529.000000	1772311819.063605
-22582.800000	-31798.395000	-31222.170000	-15702.165000	0.000000	0.000000	0.000000	0.000000	-17.610048	27.871425	-16.271969	-13.561077	0.000000	0.000000	-0.000000	0.000000	12.726840	-0.625660	3.143560	0.001526	0.979185	-0.014099	-1.000000	-1.000000	-1.000000	-1.000000	-1.000000	-1.000000	-1.000000	146.827586	0.000000	-1.000000	-1.000000	579530.000000	1772311819.063608
-22574.790000	-31777.515000	-31215.645000	-15695.460000	0.000000	0.000000	0.000000	0.000000	-6.336052	23.560541	-3.460622	1.787593	0.000000	0.000000	-0.000000	0.000000	12.726840	-0.625660	3.143560	0.001526	0.979185	-0.014099	-1.000000	-1.000000	-1.000000	-1.000000	-1.000000	-1.000000	-1.000000	146.827586	0.000000	-1.000000	-1.000000	579531.000000	1772311819.067837
-22578.570000	-31768.965000	-31225.500000	-15712.695000	0.000000	0.000000	0.000000	0.000000	6.720438	14.109774	8.912252	13.270702	0.000000	0.000000	-0.000000	0.000000	12.726840	-0.625660	3.143560	0.001526	0.979185	-0.014099	-1.000000	-1.000000	-1.000000	-1.000000	-1.000000	-1.000000	-1.000000	146.827586	0.000000	-1.000000	-1.000000	579532.000000	1772311819.067840
-22574.520000	-31769.505000	-31227.030000	-15725.655000	0.000000	0.000000	0.000000	0.000000	14.817575	-0.543380	14.325638	14.773417	0.000000	0.000000	-0.000000	0.000000	12.726840	-0.625660	3.143560	0.001526	0.979185	-0.014099	-1.000000	-1.000000	-1.000000	-1.000000	-1.000000	-1.000000	-1.000000	146.827586	0.000000	-1.000000	-1.000000	579533.000000	1772311819.071941
-22557.420000	-31775.940000	-31217.355000	-15720.435000	0.000000	0.000000	0.000000	0.000000	15.442701	-17.718509	11.624163	7.036108	0.000000	0.000000	-0.000000	0.000000	12.726840	-0.625660	3.143560	0.001526	0.979185	-0.014099	-1.000000	-1.000000	-1.000000	-1.000000	-1.000000	-1.000000	-1.000000	146.827586	0.000000	-1.000000	-1.000000	579534.000000	1772311819.071944
-22558.635000	-31767.480000	-31216.320000	-15711.705000	0.000000	0.000000	0.000000	0.000000	10.681908	-31.437717	4.798446	-2.983673	0.000000	0.000000	-0.000000	0.000000	12.726840	-0.625660	3.143560	0.001526	0.979185	-0.014099	-1.000000	-1.000000	-1.000000	-1.000000	-1.000000	-1.000000	-1.000000	146.827586	0.000000	-1.000000	-1.000000	579535.000000	1772311819.076048
-22545.360000	-31738.635000	-31204.665000	-15705.405000	0.000000	0.000000	0.000000	0.000000	3.962533	-35.056542	-1.264887	-8.066418	0.000000	0.000000	-0.000000	0.000000	12.726840	-0.625660	3.143560	0.001526	0.979185	-0.014099	-1.000000	-1.000000	-1.000000	-1.000000	-1.000000	-1.000000	-1.000000	146.827586	0.000000	-1.000000	-1.000000	579536.000000	1772311819.076051
-22532.040000	-31728.015000	-31190.535000	-15700.005000	0.000000	0.000000	0.000000	0.000000	-1.986650	-25.643149	-3.901751	-6.265924	0.000000	0.000000	-0.000000	0.000000	12.726840	-0.625660	3.143560	0.001526	0.979185	-0.014099	-1.000000	-1.000000	-1.000000	-1.000000	-1.000000	-1.000000	-1.000000	146.827586	0.000000	-1.000000	-1.000000	579537.000000	1772311819.080072
-22555.125000	-31733.595000	-31211.595000	-15707.430000	0.000000	0.000000	0.000000	0.000000	-5.972383	-7.782474	-3.560627	-0.940806	0.000000	0.000000	-0.000000	0.000000	12.726840	-0.625660	3.143560	0.001526	0.979185	-0.014099	-1.000000	-1.000000	-1.000000	-1.000000	-1.000000	-1.000000	-1.000000	146.827586	0.000000	-1.000000	-1.000000	579538.000000	1772311819.080075
-22573.305000	-31745.700000	-31237.065000	-15725.880000	0.000000	0.000000	0.000000	0.000000	-9.256066	8.564421	-3.645491	2.729785	0.000000	0.000000	-0.000000	0.000000	8.194620	0.488320	5.356260	0.000305	0.986448	-0.026672	-1.000000	-1.000000	-1.000000	-1.000000	-1.000000	-1.000000	-1.000000	146.827586	0.000000	-1.000000	-1.000000	579539.000000	1772311819.117417
-22618.890000	-31761.630000	-31280.175000	-15765.930000	0.000000	0.000000	0.000000	0.000000	-13.551228	15.559477	-7.347980	1.146348	0.000000	0.000000	-0.000000	0.000000	8.194620	0.488320	5.356260	0.000305	0.986448	-0.026672	-1.000000	-1.000000	-1.000000	-1.000000	-1.000000	-1.000000	-1.000000	146.827586	0.000000	-1.000000	-1.000000	579540.000000	1772311819.117420
-22599.540000	-31781.295000	-31253.265000	-15750.990000	0.000000	0.000000	0.000000	0.000000	-17.324972	12.367688	-12.842414	-4.794304	0.000000	0.000000	-0.000000	0.000000	8.194620	0.488320	5.356260	0.000305	0.986448	-0.026672	-1.000000	-1.000000	-1.000000	-1.000000	-1.000000	-1.000000	-1.000000	146.827586	0.000000	-1.000000	-1.000000	579541.000000	1772311819.117425
-22542.075000	-31807.035000	-31199.355000	-15694.785000	0.000000	0.000000	0.000000	0.000000	-14.440385	3.717422	-12.338871	-8.119562	0.000000	0.000000	-0.000000	0.000000	8.194620	0.488320	5.356260	0.000305	0.986448	-0.026672	-1.000000	-1.000000	-1.000000	-1.000000	-1.000000	-1.000000	-1.000000	146.827586	0.000000	-1.000000	-1.000000	579542.000000	1772311819.117428
-22528.755000	-31820.625000	-31177.530000	-15665.670000	0.000000	0.000000	0.000000	0.000000	-0.223952	-4.238268	0.010952	-1.442536	0.000000	0.000000	-0.000000	0.000000	8.194620	0.488320	5.356260	0.000305	0.986448	-0.026672	-1.000000	-1.000000	-1.000000	-1.000000	-1.000000	-1.000000	-1.000000	146.827586	0.000000	-1.000000	-1.000000	579543.000000	1772311819.117431
-22554.270000	-31804.740000	-31195.170000	-15684.840000	0.000000	0.000000	0.000000	0.000000	18.855428	-6.467824	18.132254	12.451397	0.000000	0.000000	-0.000000	0.000000	8.194620	0.488320	5.356260	0.000305	0.986448	-0.026672	-1.000000	-1.000000	-1.000000	-1.000000	-1.000000	-1.000000	-1.000000	146.827586	0.000000	-1.000000	-1.000000	579544.000000	1772311819.117434
-22578.750000	-31783.500000	-31227.165000	-15716.700000	0.000000	0.000000	0.000000	0.000000	28.166145	-0.454072	27.242598	20.589379	0.000000	0.000000	-0.000000	0.000000	8.194620	0.488320	5.356260	0.000305	0.986448	-0.026672	-1.000000	-1.000000	-1.000000	-1.000000	-1.000000	-1.000000	-1.000000	146.827586	0.000000	-1.000000	-1.000000	579545.000000	1772311819.117437
-22591.485000	-31766.355000	-31236.120000	-15722.325000	0.000000	0.000000	0.000000	0.000000	19.920696	11.644983	18.627242	13.616876	0.000000	0.000000	-0.000000	0.000000	8.194620	0.488320	5.356260	0.000305	0.986448	-0.026672	-1.000000	-1.000000	-1.000000	-1.000000	-1.000000	-1.000000	-1.000000	146.827586	0.000000	-1.000000	-1.000000	579546.000000	1772311819.117440
-22588.605000	-31744.890000	-31233.915000	-15716.610000	0.000000	0.000000	0.000000	0.000000	0.689630	23.077543	-1.656701	-3.849009	0.000000	0.000000	-0.000000	0.000000	8.194620	0.488320	5.356260	0.000305	0.986448	-0.026672	-1.000000	-1.000000	-1.000000	-1.000000	-1.000000	-1.000000	-1.000000	146.827586	0.000000	-1.000000	-1.000000	579547.000000	1772311819.117444
-22570.830000	-31740.255000	-31222.395000	-15701.940000	0.000000	0.000000	0.000000	0.000000	-15.519930	26.752520	-19.036386	-18.430659	0.000000	0.000000	-0.000000	0.000000	8.194620	0.488320	5.356260	0.000305	0.986448	-0.026672	-1.000000	-1.000000	-1.000000	-1.000000	-1.000000	-1.000000	-1.000000	146.827586	0.000000	-1.000000	-1.000000	579548.000000	1772311819.117446
-22551.885000	-31732.425000	-31209.165000	-15690.915000	0.000000	0.000000	0.000000	0.000000	-18.727647	19.646632	-22.964815	-20.539920	0.000000	0.000000	-0.000000	0.000000	5.554640	-0.122080	5.142620	0.002258	0.986936	-0.030029	-1.000000	-1.000000	-1.000000	-1.000000	-1.000000	-1.000000	-1.000000	146.827586	0.000000	-1.000000	-1.000000	579549.000000	1772311819.117450
-22530.375000	-31681.935000	-31187.340000	-15679.980000	0.000000	0.000000	0.000000	0.000000	-8.974821	5.226322	-13.158522	-10.722467	0.000000	0.000000	-0.000000	0.000000	5.554640	-0.122080	5.142620	0.002258	0.986936	-0.030029	-1.000000	-1.000000	-1.000000	-1.000000	-1.000000	-1.000000	-1.000000	146.827586	0.000000	-1.000000	-1.000000	579550.000000	1772311819.117452
-22569.255000	-31689.135000	-31217.760000	-15712.470000	0.000000	0.000000	0.000000	0.000000	4.807585	-8.751208	2.073193	2.527785	0.000000	0.000000	-0.000000	0.000000	5.554640	-0.122080	5.142620	0.002258	0.986936	-0.030029	-1.000000	-1.000000	-1.000000	-1.000000	-1.000000	-1.000000	-1.000000	146.827586	0.000000	-1.000000	-1.000000	579551.000000	1772311819.117456
-22584.420000	-31712.040000	-31235.760000	-15736.230000	0.000000	0.000000	0.000000	0.000000	11.208518	-18.021011	11.571153	9.262228	0.000000	0.000000	-0.000000	0.000000	5.554640	-0.122080	5.142620	0.002258	0.986936	-0.030029	-1.000000	-1.000000	-1.000000	-1.000000	-1.000000	-1.000000	-1.000000	146.827586	0.000000	-1.000000	-1.000000	579552.000000	1772311819.117458
-22544.730000	-31736.790000	-31198.725000	-15706.395000	0.000000	0.000000	0.000000	0.000000	6.727938	-24.176122	10.521120	6.505352	0.000000	0.000000	-0.000000	0.000000	5.554640	-0.122080	5.142620	0.002258	0.986936	-0.030029	-1.000000	-1.000000	-1.000000	-1.000000	-1.000000	-1.000000	-1.000000	146.827586	0.000000	-1.000000	-1.000000	579553.000000	1772311819.117462
-22507.515000	-31740.030000	-31155.210000	-15664.635000	0.000000	0.000000	0.000000	0.000000	-0.426036	-28.042290	5.180520	1.469982	0.000000	0.000000	-0.000000	0.000000	5.554640	-0.122080	5.142620	0.002258	0.986936	-0.030029	-1.000000	-1.000000	-1.000000	-1.000000	-1.000000	-1.000000	-1.000000	146.827586	0.000000	-1.000000	-1.000000	579554.000000	1772311819.117464
-22500.540000	-31727.520000	-31158.315000	-15660.180000	0.000000	0.000000	0.000000	0.000000	-1.318840	-26.129352	3.745317	2.371656	0.000000	0.000000	-0.000000	0.000000	5.554640	-0.122080	5.142620	0.002258	0.986936	-0.030029	-1.000000	-1.000000	-1.000000	-1.000000	-1.000000	-1.000000	-1.000000	146.827586	0.000000	-1.000000	-1.000000	579555.000000	1772311819.117467
-22566.150000	-31730.985000	-31227.120000	-15716.205000	0.000000	0.000000	0.000000	0.000000	1.813473	-15.311699	4.345466	6.972647	0.000000	0.000000	-0.000000	0.000000	5.554640	-0.122080	5.142620	0.002258	0.986936	-0.030029	-1.000000	-1.000000	-1.000000	-1.000000	-1.000000	-1.000000	-1.000000	146.827586	0.000000	-1.000000	-1.000000	579556.000000	1772311819.117469
-22574.565000	-31728.510000	-31240.395000	-15738.165000	0.000000	0.000000	0.000000	0.000000	-0.290909	1.634776	-1.263393	5.627508	0.000000	0.000000	-0.000000	0.000000	5.554640	-0.122080	5.142620	0.002258	0.986936	-0.030029	-1.000000	-1.000000	-1.000000	-1.000000	-1.000000	-1.000000	-1.000000	146.827586	0.000000	-1.000000	-1.000000	579557.000000	1772311819.119950
-22564.440000	-31717.485000	-31234.005000	-15736.545000	0.000000	0.000000	0.000000	0.000000	-9.244003	17.506612	-13.082886	-4.465607	0.000000	0.000000	-0.000000	0.000000	5.554640	-0.122080	5.142620	0.002258	0.986936	-0.030029	-1.000000	-1.000000	-1.000000	-1.000000	-1.000000	-1.000000	-1.000000	146.827586	0.000000	-1.000000	-1.000000	579558.000000	1772311819.119954
-22572.000000	-31736.115000	-31231.755000	-15728.490000	0.000000	0.000000	0.000000	0.000000	-16.202433	25.958664	-20.744025	-14.632707	0.000000	0.000000	-0.000000	0.000000	4.227020	0.534100	2.899400	0.008179	0.982664	-0.030090	-1.000000	-1.000000	-1.000000	-1.000000	-1.000000	-1.000000	-1.000000	146.827586	0.000000	-1.000000	-1.000000	579559.000000	1772311819.124073
-22586.985000	-31722.255000	-31241.025000	-15719.805000	0.000000	0.000000	0.000000	0.000000	-14.217609	24.458214	-16.585253	-15.219522	0.000000	0.000000	-0.000000	0.000000	4.227020	0.534100	2.899400	0.008179	0.982664	-0.030090	-1.000000	-1.000000	-1.000000	-1.000000	-1.000000	-1.000000	-1.000000	146.827586	0.000000	-1.000000	-1.000000	579560.000000	1772311819.124075
-22588.785000	-31716.315000	-31230.405000	-15702.165000	0.000000	0.000000	0.000000	0.000000	-5.049945	15.568309	-3.139996	-5.012012	0.000000	0.000000	-0.000000	0.000000	4.227020	0.534100	2.899400	0.008179	0.982664	-0.030090	-1.000000	-1.000000	-1.000000	-1.000000	-1.000000	-1.000000	-1.000000	146.827586	0.000000	-1.000000	-1.000000	579561.000000	1772311819.130359
-22556.700000	-31708.845000	-31217.535000	-15720.705000	0.000000	0.000000	0.000000	0.000000	6.208437	5.025088	11.873699	9.018704	0.000000	0.000000	-0.000000	0.000000	4.227020	0.534100	2.899400	0.008179	0.982664	-0.030090	-1.000000	-1.000000	-1.000000	-1.000000	-1.000000	-1.000000	-1.000000	146.827586	0.000000	-1.000000	-1.000000	579562.000000	1772311819.130361
-22544.055000	-31698.855000	-31202.775000	-15708.105000	0.000000	0.000000	0.000000	0.000000	16.306673	-2.764532	22.082577	17.715670	0.000000	0.000000	-0.000000	0.000000	4.227020	0.534100	2.899400	0.008179	0.982664	-0.030090	-1.000000	-1.000000	-1.000000	-1.000000	-1.000000	-1.000000	-1.000000	146.827586	0.000000	-1.000000	-1.000000	579563.000000	1772311819.132163
-22537.575000	-31670.865000	-31185.270000	-15692.355000	0.000000	0.000000	0.000000	0.000000	22.485397	-6.110368	24.525269	17.141206	0.000000	0.000000	-0.000000	0.000000	4.227020	0.534100	2.899400	0.008179	0.982664	-0.030090	-1.000000	-1.000000	-1.000000	-1.000000	-1.000000	-1.000000	-1.000000	146.827586	0.000000	-1.000000	-1.000000	579564.000000	1772311819.132166
-22534.560000	-31661.280000	-31199.265000	-15710.220000	0.000000	0.000000	0.000000	0.000000	21.451104	-5.262091	18.976103	9.916196	0.000000	0.000000	-0.000000	0.000000	4.227020	0.534100	2.899400	0.008179	0.982664	-0.030090	-1.000000	-1.000000	-1.000000	-1.000000	-1.000000	-1.000000	-1.000000	146.827586	0.000000	-1.000000	-1.000000	579565.000000	1772311819.140549
-22588.470000	-31646.430000	-31253.130000	-15744.015000	0.000000	0.000000	0.000000	0.000000	11.457178	-2.450644	6.025524	-0.540874	0.000000	0.000000	-0.000000	0.000000	4.227020	0.534100	2.899400	0.008179	0.982664	-0.030090	-1.000000	-1.000000	-1.000000	-1.000000	-1.000000	-1.000000	-1.000000	146.827586	0.000000	-1.000000	-1.000000	579566.000000	1772311819.140554
-22589.595000	-31614.120000	-31257.765000	-15745.995000	0.000000	0.000000	0.000000	0.000000	-5.585545	-0.281731	-11.936279	-11.776658	0.000000	0.000000	-0.000000	0.000000	4.227020	0.534100	2.899400	0.008179	0.982664	-0.030090	-1.000000	-1.000000	-1.000000	-1.000000	-1.000000	-1.000000	-1.000000	146.827586	0.000000	-1.000000	-1.000000	579567.000000	1772311819.140559
-22552.965000	-31615.650000	-31214.160000	-15708.420000	0.000000	0.000000	0.000000	0.000000	-21.414716	0.226004	-26.397574	-18.579033	0.000000	0.000000	-0.000000	0.000000	4.227020	0.534100	2.899400	0.008179	0.982664	-0.030090	-1.000000	-1.000000	-1.000000	-1.000000	-1.000000	-1.000000	-1.000000	146.827586	0.000000	-1.000000	-1.000000	579568.000000	1772311819.140561
-22558.050000	-31612.815000	-31230.045000	-15720.660000	0.000000	0.000000	0.000000	0.000000	-25.346593	-1.460187	-27.029576	-15.376263	0.000000	0.000000	-0.000000	0.000000	-1.587040	0.946120	-0.061040	0.012817	0.985471	-0.037353	-1.000000	-1.000000	-1.000000	-1.000000	-1.000000	-1.000000	-1.000000	146.827586	0.000000	-1.000000	-1.000000	579569.000000	1772311819.144133
-22537.755000	-31630.185000	-31212.225000	-15706.395000	0.000000	0.000000	0.000000	0.000000	-15.193454	-5.822197	-13.399199	-3.766040	0.000000	0.000000	-0.000000	0.000000	-1.587040	0.946120	-0.061040	0.012817	0.985471	-0.037353	-1.000000	-1.000000	-1.000000	-1.000000	-1.000000	-1.000000	-1.000000	146.827586	0.000000	-1.000000	-1.000000	579570.000000	1772311819.144137
-22531.275000	-31652.955000	-31209.435000	-15693.570000	0.000000	0.000000	0.000000	0.000000	1.217119	-11.932860	4.838955	8.653072	0.000000	0.000000	-0.000000	0.000000	-1.587040	0.946120	-0.061040	0.012817	0.985471	-0.037353	-1.000000	-1.000000	-1.000000	-1.000000	-1.000000	-1.000000	-1.000000	146.827586	0.000000	-1.000000	-1.000000	579571.000000	1772311819.148153
-22562.595000	-31654.845000	-31231.170000	-15705.945000	0.000000	0.000000	0.000000	0.000000	13.475959	-16.928728	17.206286	15.377121	0.000000	0.000000	-0.000000	0.000000	-1.587040	0.946120	-0.061040	0.012817	0.985471	-0.037353	-1.000000	-1.000000	-1.000000	-1.000000	-1.000000	-1.000000	-1.000000	146.827586	0.000000	-1.000000	-1.000000	579572.000000	1772311819.148157
-22574.520000	-31653.855000	-31252.725000	-15737.130000	0.000000	0.000000	0.000000	0.000000	14.554346	-16.705981	17.787378	13.131265	0.000000	0.000000	-0.000000	0.000000	-1.587040	0.946120	-0.061040	0.012817	0.985471	-0.037353	-1.000000	-1.000000	-1.000000	-1.000000	-1.000000	-1.000000	-1.000000	146.827586	0.000000	-1.000000	-1.000000	579573.000000	1772311819.152033
-22561.020000	-31649.760000	-31232.610000	-15723.540000	0.000000	0.000000	0.000000	0.000000	5.659928	-8.956620	8.276618	3.018259	0.000000	0.000000	-0.000000	0.000000	-1.587040	0.946120	-0.061040	0.012817	0.985471	-0.037353	-1.000000	-1.000000	-1.000000	-1.000000	-1.000000	-1.000000	-1.000000	146.827586	0.000000	-1.000000	-1.000000	579574.000000	1772311819.152037
-22545.630000	-31655.430000	-31215.060000	-15693.255000	0.000000	0.000000	0.000000	0.000000	-4.241550	3.803686	-2.395194	-7.580472	0.000000	0.000000	-0.000000	0.000000	-1.587040	0.946120	-0.061040	0.012817	0.985471	-0.037353	-1.000000	-1.000000	-1.000000	-1.000000	-1.000000	-1.000000	-1.000000	146.827586	0.000000	-1.000000	-1.000000	579575.000000	1772311819.156170
-22538.205000	-31639.500000	-31218.345000	-15713.640000	0.000000	0.000000	0.000000	0.000000	-7.131789	15.781249	-6.243685	-10.758294	0.000000	0.000000	-0.000000	0.000000	-1.587040	0.946120	-0.061040	0.012817	0.985471	-0.037353	-1.000000	-1.000000	-1.000000	-1.000000	-1.000000	-1.000000	-1.000000	146.827586	0.000000	-1.000000	-1.000000	579576.000000	1772311819.156173
-22559.355000	-31631.850000	-31221.990000	-15732.900000	0.000000	0.000000	0.000000	0.000000	-3.166598	22.395646	-3.474713	-6.995100	0.000000	0.000000	-0.000000	0.000000	-1.587040	0.946120	-0.061040	0.012817	0.985471	-0.037353	-1.000000	-1.000000	-1.000000	-1.000000	-1.000000	-1.000000	-1.000000	146.827586	0.000000	-1.000000	-1.000000	579577.000000	1772311819.160138
-22561.470000	-31639.140000	-31226.445000	-15725.790000	0.000000	0.000000	0.000000	0.000000	1.449275	21.950008	0.349997	-2.514458	0.000000	0.000000	-0.000000	0.000000	-1.587040	0.946120	-0.061040	0.012817	0.985471	-0.037353	-1.000000	-1.000000	-1.000000	-1.000000	-1.000000	-1.000000	-1.000000	146.827586	0.000000	-1.000000	-1.000000	579578.000000	1772311819.160140
-22570.290000	-31639.680000	-31245.345000	-15738.705000	0.000000	0.000000	0.000000	0.000000	2.141223	14.738447	0.958167	-0.406248	0.000000	0.000000	-0.000000	0.000000	-8.530340	2.563680	0.671440	0.013611	0.996579	-0.046142	-1.000000	-1.000000	-1.000000	-1.000000	-1.000000	-1.000000	-1.000000	146.827586	0.000000	-1.000000	-1.000000	579579.000000	1772311819.164150
-22582.980000	-31666.995000	-31257.405000	-15743.970000	0.000000	0.000000	0.000000	0.000000	-0.617818	2.941080	-2.208035	0.157507	0.000000	0.000000	-0.000000	0.000000	-8.530340	2.563680	0.671440	0.013611	0.996579	-0.046142	-1.000000	-1.000000	-1.000000	-1.000000	-1.000000	-1.000000	-1.000000	146.827586	0.000000	-1.000000	-1.000000	579580.000000	1772311819.164153
-22558.410000	-31668.975000	-31229.145000	-15720.615000	0.000000	0.000000	0.000000	0.000000	-3.388444	-9.563358	-5.960187	0.935714	0.000000	0.000000	-0.000000	0.000000	-8.530340	2.563680	0.671440	0.013611	0.996579	-0.046142	-1.000000	-1.000000	-1.000000	-1.000000	-1.000000	-1.000000	-1.000000	146.827586	0.000000	-1.000000	-1.000000	579581.000000	1772311819.168197
-22536.495000	-31635.945000	-31207.590000	-15711.525000	0.000000	0.000000	0.000000	0.000000	-2.234043	-17.268570	-5.118801	3.681846	-0.000000	0.000000	-0.000000	0.000000	-8.530340	2.563680	0.671440	0.013611	0.996579	-0.046142	-1.000000	-1.000000	-1.000000	-1.000000	-1.000000	-1.000000	-1.000000	146.827586	0.000000	-1.000000	-1.000000	579582.000000	1772311819.168200
-22533.660000	-31636.485000	-31207.005000	-15716.115000	0.000000	0.000000	0.000000	0.000000	3.686507	-15.412283	1.832333	7.800170	-0.000000	0.000000	-0.000000	0.000000	-8.530340	2.563680	0.671440	0.013611	0.996579	-0.046142	-1.000000	-1.000000	-1.000000	-1.000000	-1.000000	-1.000000	-1.000000	146.827586	0.000000	-1.000000	-1.000000	579583.000000	1772311819.172203
-22556.880000	-31611.240000	-31233.105000	-15736.770000	0.000000	0.000000	0.000000	0.000000	9.490174	-5.135812	9.258278	9.310427	-0.000000	0.000000	-0.000000	0.000000	-8.530340	2.563680	0.671440	0.013611	0.996579	-0.046142	-1.000000	-1.000000	-1.000000	-1.000000	-1.000000	-1.000000	-1.000000	146.827586	0.000000	-1.000000	-1.000000	579584.000000	1772311819.172206
-22543.290000	-31620.555000	-31221.405000	-15716.925000	0.000000	0.000000	0.000000	0.000000	9.168238	6.613024	10.071700	5.447987	-0.000000	0.000000	-0.000000	0.000000	-8.530340	2.563680	0.671440	0.013611	0.996579	-0.046142	-1.000000	-1.000000	-1.000000	-1.000000	-1.000000	-1.000000	-1.000000	146.827586	0.000000	-1.000000	-1.000000	579585.000000	1772311819.176283
-22521.555000	-31641.075000	-31187.115000	-15672.645000	0.000000	0.000000	0.000000	0.000000	3.098834	12.148101	4.525519	-0.377841	-0.000000	0.000000	-0.000000	0.000000	-8.530340	2.563680	0.671440	0.013611	0.996579	-0.046142	-1.000000	-1.000000	-1.000000	-1.000000	-1.000000	-1.000000	-1.000000	146.827586	0.000000	-1.000000	-1.000000	579586.000000	1772311819.176286
-22487.805000	-31641.525000	-31148.550000	-15656.175000	0.000000	0.000000	0.000000	0.000000	-2.381891	8.046451	-0.211990	-1.949901	-0.000000	0.000000	-0.000000	0.000000	-8.530340	2.563680	0.671440	0.013611	0.996579	-0.046142	-1.000000	-1.000000	-1.000000	-1.000000	-1.000000	-1.000000	-1.000000	146.827586	0.000000	-1.000000	-1.000000	579587.000000	1772311819.180195
-22497.390000	-31661.595000	-31156.650000	-15675.975000	0.000000	0.000000	0.000000	0.000000	-3.061811	-2.230230	0.266596	0.892690	-0.000000	0.000000	-0.000000	0.000000	-8.530340	2.563680	0.671440	0.013611	0.996579	-0.046142	-1.000000	-1.000000	-1.000000	-1.000000	-1.000000	-1.000000	-1.000000	146.827586	0.000000	-1.000000	-1.000000	579588.000000	1772311819.180198
-22547.655000	-31665.150000	-31213.440000	-15731.415000	0.000000	0.000000	0.000000	0.000000	-2.323350	-11.629276	1.280642	0.813233	-0.000000	0.000000	-0.000000	0.000000	-10.056340	4.593260	4.303320	0.017639	0.994993	-0.041138	-1.000000	-1.000000	-1.000000	-1.000000	-1.000000	-1.000000	-1.000000	146.827586	0.000000	-1.000000	-1.000000	579589.000000	1772311819.184268
-22575.330000	-31683.600000	-31252.230000	-15776.325000	0.000000	0.000000	0.000000	0.000000	-6.629919	-15.043800	-5.077687	-8.212437	-0.000000	0.000000	-0.000000	0.000000	-10.056340	4.593260	4.303320	0.017639	0.994993	-0.041138	-1.000000	-1.000000	-1.000000	-1.000000	-1.000000	-1.000000	-1.000000	146.827586	0.000000	-1.000000	-1.000000	579590.000000	1772311819.184271
-22518.540000	-31720.500000	-31203.270000	-15732.630000	0.000000	0.000000	0.000000	0.000000	-14.522192	-12.157349	-17.182485	-21.347286	-0.000000	0.000000	-0.000000	0.000000	-10.056340	4.593260	4.303320	0.017639	0.994993	-0.041138	-1.000000	-1.000000	-1.000000	-1.000000	-1.000000	-1.000000	-1.000000	146.827586	0.000000	-1.000000	-1.000000	579591.000000	1772311819.188218
-22505.625000	-31756.455000	-31188.690000	-15691.320000	0.000000	0.000000	0.000000	0.000000	-15.595056	-6.766712	-22.351398	-24.408436	-0.000000	0.000000	-0.000000	0.000000	-10.056340	4.593260	4.303320	0.017639	0.994993	-0.041138	-1.000000	-1.000000	-1.000000	-1.000000	-1.000000	-1.000000	-1.000000	146.827586	0.000000	-1.000000	-1.000000	579592.000000	1772311819.188221
-22544.595000	-31733.955000	-31223.745000	-15716.340000	0.000000	0.000000	0.000000	0.000000	-5.373611	-1.582186	-13.096909	-9.906913	-0.000000	0.000000	-0.000000	0.000000	-10.056340	4.593260	4.303320	0.017639	0.994993	-0.041138	-1.000000	-1.000000	-1.000000	-1.000000	-1.000000	-1.000000	-1.000000	146.827586	0.000000	-1.000000	-1.000000	579593.000000	1772311819.192424
-22574.430000	-31735.125000	-31262.580000	-15750.945000	0.000000	0.000000	0.000000	0.000000	6.854867	5.001529	2.301724	11.634611	-0.000000	0.000000	-0.000000	0.000000	-10.056340	4.593260	4.303320	0.017639	0.994993	-0.041138	-1.000000	-1.000000	-1.000000	-1.000000	-1.000000	-1.000000	-1.000000	146.827586	0.000000	-1.000000	-1.000000	579594.000000	1772311819.192427
-22570.110000	-31754.655000	-31260.375000	-15752.520000	0.000000	0.000000	0.000000	0.000000	10.764469	13.530184	11.338199	23.366105	-0.000000	0.000000	-0.000000	0.000000	-10.056340	4.593260	4.303320	0.017639	0.994993	-0.041138	-1.000000	-1.000000	-1.000000	-1.000000	-1.000000	-1.000000	-1.000000	146.827586	0.000000	-1.000000	-1.000000	579595.000000	1772311819.196384
-22501.215000	-31741.515000	-31193.730000	-15692.580000	0.000000	0.000000	0.000000	0.000000	8.222125	19.802049	12.778427	21.157080	-0.000000	0.000000	-0.000000	0.000000	-10.056340	4.593260	4.303320	0.017639	0.994993	-0.041138	-1.000000	-1.000000	-1.000000	-1.000000	-1.000000	-1.000000	-1.000000	146.827586	0.000000	-1.000000	-1.000000	579596.000000	1772311819.196387
-22481.685000	-31753.530000	-31163.940000	-15662.970000	0.000000	0.000000	0.000000	0.000000	8.591636	19.923757	14.769321	14.512162	-0.000000	0.000000	-0.000000	0.000000	-10.056340	4.593260	4.303320	0.017639	0.994993	-0.041138	-1.000000	-1.000000	-1.000000	-1.000000	-1.000000	-1.000000	-1.000000	146.827586	0.000000	-1.000000	-1.000000	579597.000000	1772311819.200222
-22540.095000	-31768.380000	-31209.885000	-15701.715000	0.000000	0.000000	0.000000	0.000000	13.099173	13.555421	19.455708	10.450490	-0.000000	0.000000	-0.000000	0.000000	-10.056340	4.593260	4.303320	0.017639	0.994993	-0.041138	-1.000000	-1.000000	-1.000000	-1.000000	-1.000000	-1.000000	-1.000000	146.827586	0.000000	-1.000000	-1.000000	579598.000000	1772311819.200225
-22579.965000	-31761.855000	-31257.855000	-15727.680000	0.000000	0.000000	0.000000	0.000000	11.524047	3.064548	17.515774	4.902579	-0.000000	0.000000	-0.000000	0.000000	-9.766400	3.952340	3.616620	0.016663	0.985349	-0.029480	-1.000000	-1.000000	-1.000000	-1.000000	-1.000000	-1.000000	-1.000000	146.827586	0.000000	-1.000000	-1.000000	579599.000000	1772311819.204283
-22561.515000	-31765.905000	-31243.680000	-15716.880000	0.000000	0.000000	0.000000	0.000000	-1.561728	-6.947114	2.699860	-6.524482	-0.000000	0.000000	-0.000000	0.000000	-9.766400	3.952340	3.616620	0.016663	0.985349	-0.029480	-1.000000	-1.000000	-1.000000	-1.000000	-1.000000	-1.000000	-1.000000	146.827586	0.000000	-1.000000	-1.000000	579600.000000	1772311819.204287
-22527.270000	-31769.010000	-31201.065000	-15689.790000	0.000000	0.000000	0.000000	0.000000	-16.195793	-12.368393	-15.697793	-18.111964	-0.000000	0.000000	-0.000000	0.000000	-9.766400	3.952340	3.616620	0.016663	0.985349	-0.029480	-1.000000	-1.000000	-1.000000	-1.000000	-1.000000	-1.000000	-1.000000	146.827586	0.000000	-1.000000	-1.000000	579601.000000	1772311819.208363
-22545.765000	-31783.095000	-31204.530000	-15692.715000	0.000000	0.000000	0.000000	0.000000	-19.307636	-12.644414	-22.688468	-20.654876	-0.000000	0.000000	-0.000000	0.000000	-9.766400	3.952340	3.616620	0.016663	0.985349	-0.029480	-1.000000	-1.000000	-1.000000	-1.000000	-1.000000	-1.000000	-1.000000	146.827586	0.000000	-1.000000	-1.000000	579602.000000	1772311819.208366
-22563.135000	-31789.890000	-31232.520000	-15726.960000	0.000000	0.000000	0.000000	0.000000	-10.577532	-9.979703	-15.507046	-13.549577	-0.000000	0.000000	-0.000000	0.000000	-9.766400	3.952340	3.616620	0.016663	0.985349	-0.029480	-1.000000	-1.000000	-1.000000	-1.000000	-1.000000	-1.000000	-1.000000	146.827586	0.000000	-1.000000	-1.000000	579603.000000	1772311819.212412
-22516.830000	-31821.435000	-31200.165000	-15712.245000	0.000000	0.000000	0.000000	0.000000	1.199148	-6.974785	-3.499165	-4.200367	-0.000000	0.000000	-0.000000	0.000000	-9.766400	3.952340	3.616620	0.016663	0.985349	-0.029480	-1.000000	-1.000000	-1.000000	-1.000000	-1.000000	-1.000000	-1.000000	146.827586	0.000000	-1.000000	-1.000000	579604.000000	1772311819.212415
-22478.355000	-31843.440000	-31171.680000	-15676.470000	0.000000	0.000000	0.000000	0.000000	11.084618	-5.400199	6.049706	2.890359	-0.000000	0.000000	-0.000000	0.000000	-9.766400	3.952340	3.616620	0.016663	0.985349	-0.029480	-1.000000	-1.000000	-1.000000	-1.000000	-1.000000	-1.000000	-1.000000	146.827586	0.000000	-1.000000	-1.000000	579605.000000	1772311819.216512
-22483.440000	-31837.815000	-31179.330000	-15700.230000	0.000000	0.000000	0.000000	0.000000	18.079686	-4.753901	11.839736	8.470011	-0.000000	0.000000	-0.000000	0.000000	-9.766400	3.952340	3.616620	0.016663	0.985349	-0.029480	-1.000000	-1.000000	-1.000000	-1.000000	-1.000000	-1.000000	-1.000000	146.827586	0.000000	-1.000000	-1.000000	579606.000000	1772311819.216514
-22506.615000	-31807.170000	-31198.185000	-15742.080000	0.000000	0.000000	0.000000	0.000000	18.315873	-1.539289	12.221571	10.760732	-0.000000	0.000000	-0.000000	0.000000	-9.766400	3.952340	3.616620	0.016663	0.985349	-0.029480	-1.000000	-1.000000	-1.000000	-1.000000	-1.000000	-1.000000	-1.000000	146.827586	0.000000	-1.000000	-1.000000	579607.000000	1772311819.220351
-22503.555000	-31768.380000	-31181.040000	-15721.830000	0.000000	0.000000	0.000000	0.000000	8.346114	7.320617	5.833397	6.485474	-0.000000	0.000000	-0.000000	0.000000	-9.766400	3.952340	3.616620	0.016663	0.985349	-0.029480	-1.000000	-1.000000	-1.000000	-1.000000	-1.000000	-1.000000	-1.000000	146.827586	0.000000	-1.000000	-1.000000	579608.000000	1772311819.220354
-22506.255000	-31757.760000	-31179.555000	-15696.180000	0.000000	0.000000	0.000000	0.000000	-7.634554	19.398909	-3.547257	-0.626592	-0.000000	0.000000	-0.000000	0.000000	-8.621900	2.899400	1.815940	0.012695	0.979185	-0.016357	-1.000000	-1.000000	-1.000000	-1.000000	-1.000000	-1.000000	-1.000000	146.827586	0.000000	-1.000000	-1.000000	579609.000000	1772311819.224423
-22502.835000	-31744.665000	-31212.945000	-15708.465000	0.000000	0.000000	0.000000	0.000000	-20.216617	26.778185	-10.490253	-3.214462	-0.000000	0.000000	-0.000000	0.000000	-8.621900	2.899400	1.815940	0.012695	0.979185	-0.016357	-1.000000	-1.000000	-1.000000	-1.000000	-1.000000	-1.000000	-1.000000	146.827586	0.000000	-1.000000	-1.000000	579610.000000	1772311819.224426
-22478.625000	-31726.890000	-31194.900000	-15699.555000	0.000000	0.000000	0.000000	0.000000	-22.465117	23.001125	-13.137499	-0.288650	-0.000000	0.000000	-0.000000	0.000000	-8.621900	2.899400	1.815940	0.012695	0.979185	-0.016357	-1.000000	-1.000000	-1.000000	-1.000000	-1.000000	-1.000000	-1.000000	146.827586	0.000000	-1.000000	-1.000000	579611.000000	1772311819.228459
-22521.060000	-31691.475000	-31198.635000	-15708.780000	0.000000	0.000000	0.000000	0.000000	-14.619933	9.506975	-11.193447	3.436118	-0.000000	0.000000	-0.000000	0.000000	-8.621900	2.899400	1.815940	0.012695	0.979185	-0.016357	-1.000000	-1.000000	-1.000000	-1.000000	-1.000000	-1.000000	-1.000000	146.827586	0.000000	-1.000000	-1.000000	579612.000000	1772311819.228462
-22550.490000	-31648.680000	-31196.115000	-15722.055000	0.000000	0.000000	0.000000	0.000000	-4.272082	-5.668010	-4.875591	3.855213	-0.000000	0.000000	-0.000000	0.000000	-8.621900	2.899400	1.815940	0.012695	0.979185	-0.016357	-1.000000	-1.000000	-1.000000	-1.000000	-1.000000	-1.000000	-1.000000	146.827586	0.000000	-1.000000	-1.000000	579613.000000	1772311819.232527
-22562.415000	-31621.545000	-31210.605000	-15733.260000	0.000000	0.000000	0.000000	0.000000	0.988482	-14.936565	2.925955	0.074906	-0.000000	0.000000	-0.000000	0.000000	-8.621900	2.899400	1.815940	0.012695	0.979185	-0.016357	-1.000000	-1.000000	-1.000000	-1.000000	-1.000000	-1.000000	-1.000000	146.827586	0.000000	-1.000000	-1.000000	579614.000000	1772311819.232529
-22561.425000	-31614.300000	-31185.945000	-15741.090000	0.000000	0.000000	0.000000	0.000000	1.438973	-16.998785	8.560056	-5.506204	-0.000000	0.000000	-0.000000	0.000000	-8.621900	2.899400	1.815940	0.012695	0.979185	-0.016357	-1.000000	-1.000000	-1.000000	-1.000000	-1.000000	-1.000000	-1.000000	146.827586	0.000000	-1.000000	-1.000000	579615.000000	1772311819.236386
-22526.955000	-31576.545000	-31156.290000	-15725.250000	0.000000	0.000000	0.000000	0.000000	3.098387	-15.429936	11.537593	-8.650687	-0.000000	0.000000	-0.000000	0.000000	-8.621900	2.899400	1.815940	0.012695	0.979185	-0.016357	-1.000000	-1.000000	-1.000000	-1.000000	-1.000000	-1.000000	-1.000000	146.827586	0.000000	-1.000000	-1.000000	579616.000000	1772311819.236389
-22526.460000	-31521.195000	-31195.215000	-15727.455000	0.000000	0.000000	0.000000	0.000000	9.825279	-12.212965	12.472765	-6.323567	-0.000000	0.000000	-0.000000	0.000000	-8.621900	2.899400	1.815940	0.012695	0.979185	-0.016357	-1.000000	-1.000000	-1.000000	-1.000000	-1.000000	-1.000000	-1.000000	146.827586	0.000000	-1.000000	-1.000000	579617.000000	1772311819.243872
-22526.235000	-31479.255000	-31248.540000	-15719.175000	0.000000	0.000000	0.000000	0.000000	18.305219	-6.321767	8.161008	0.490230	-0.000000	0.000000	-0.000000	0.000000	-8.621900	2.899400	1.815940	0.012695	0.979185	-0.016357	-1.000000	-1.000000	-1.000000	-1.000000	-1.000000	-1.000000	-1.000000	146.827586	0.000000	-1.000000	-1.000000	579618.000000	1772311819.243875
-22537.620000	-31465.305000	-31261.860000	-15724.440000	0.000000	0.000000	0.000000	0.000000	21.065587	1.097483	-3.943544	7.427719	-0.000000	0.000000	-0.000000	0.000000	-5.447820	2.639980	-0.839300	0.012634	0.974180	-0.007385	-1.000000	-1.000000	-1.000000	-1.000000	-1.000000	-1.000000	-1.000000	146.827586	0.000000	-1.000000	-1.000000	579619.000000	1772311819.244466
-22560.705000	-31480.245000	-31237.020000	-15717.330000	0.000000	0.000000	0.000000	0.000000	13.892217	4.610516	-17.171923	10.447187	-0.000000	0.000000	-0.000000	0.000000	-5.447820	2.639980	-0.839300	0.012634	0.974180	-0.007385	-1.000000	-1.000000	-1.000000	-1.000000	-1.000000	-1.000000	-1.000000	146.827586	0.000000	-1.000000	-1.000000	579620.000000	1772311819.244469
-22506.390000	-31482.720000	-31193.415000	-15685.695000	0.000000	0.000000	0.000000	0.000000	0.418621	-0.218375	-19.303105	9.113754	-0.000000	0.000000	-0.000000	0.000000	-5.447820	2.639980	-0.839300	0.012634	0.974180	-0.007385	-1.000000	-1.000000	-1.000000	-1.000000	-1.000000	-1.000000	-1.000000	146.827586	0.000000	-1.000000	-1.000000	579621.000000	1772311819.248533
-22525.515000	-31499.010000	-31246.920000	-15732.675000	0.000000	0.000000	0.000000	0.000000	-10.267294	-11.105921	-6.843342	5.257979	-0.000000	0.000000	-0.000000	0.000000	-5.447820	2.639980	-0.839300	0.012634	0.974180	-0.007385	-1.000000	-1.000000	-1.000000	-1.000000	-1.000000	-1.000000	-1.000000	146.827586	0.000000	-1.000000	-1.000000	579622.000000	1772311819.248536
-22568.850000	-31498.965000	-31293.495000	-15777.675000	0.000000	0.000000	0.000000	0.000000	-13.951535	-20.410189	8.422689	-1.774889	-0.000000	0.000000	-0.000000	0.000000	-5.447820	2.639980	-0.839300	0.012634	0.974180	-0.007385	-1.000000	-1.000000	-1.000000	-1.000000	-1.000000	-1.000000	-1.000000	146.827586	0.000000	-1.000000	-1.000000	579623.000000	1772311819.252683
-22544.640000	-31482.450000	-31264.605000	-15758.775000	0.000000	0.000000	0.000000	0.000000	-14.052270	-20.854712	13.307749	-12.028798	-0.000000	0.000000	-0.000000	0.000000	-5.447820	2.639980	-0.839300	0.012634	0.974180	-0.007385	-1.000000	-1.000000	-1.000000	-1.000000	-1.000000	-1.000000	-1.000000	146.827586	0.000000	-1.000000	-1.000000	579624.000000	1772311819.252685
-22543.965000	-31448.520000	-31230.180000	-15707.880000	0.000000	0.000000	0.000000	0.000000	-12.165291	-9.664189	9.410736	-17.969235	-0.000000	0.000000	-0.000000	0.000000	-5.447820	2.639980	-0.839300	0.012634	0.974180	-0.007385	-1.000000	-1.000000	-1.000000	-1.000000	-1.000000	-1.000000	-1.000000	146.827586	0.000000	-1.000000	-1.000000	579625.000000	1772311819.256560
-22491.180000	-31420.755000	-31188.870000	-15671.430000	0.000000	0.000000	0.000000	0.000000	-5.764144	9.654860	7.411080	-10.628702	-0.000000	0.000000	-0.000000	0.000000	-5.447820	2.639980	-0.839300	0.012634	0.974180	-0.007385	-1.000000	-1.000000	-1.000000	-1.000000	-1.000000	-1.000000	-1.000000	146.827586	0.000000	-1.000000	-1.000000	579626.000000	1772311819.256564
-22433.760000	-31408.605000	-31165.065000	-15671.160000	0.000000	0.000000	0.000000	0.000000	6.374762	28.145066	11.672211	7.582727	-0.000000	0.000000	-0.000000	0.000000	-5.447820	2.639980	-0.839300	0.012634	0.974180	-0.007385	-1.000000	-1.000000	-1.000000	-1.000000	-1.000000	-1.000000	-1.000000	146.827586	0.000000	-1.000000	-1.000000	579627.000000	1772311819.260475
-22474.980000	-31408.290000	-31179.015000	-15677.550000	0.000000	0.000000	0.000000	0.000000	19.500652	35.903466	16.229077	22.899134	-0.000000	0.000000	-0.000000	0.000000	-5.447820	2.639980	-0.839300	0.012634	0.974180	-0.007385	-1.000000	-1.000000	-1.000000	-1.000000	-1.000000	-1.000000	-1.000000	146.827586	0.000000	-1.000000	-1.000000	579628.000000	1772311819.260481
-22533.165000	-31418.910000	-31206.825000	-15690.240000	0.000000	0.000000	0.000000	0.000000	21.923900	28.210474	11.833675	23.237413	-0.000000	0.000000	-0.000000	0.000000	-1.007160	4.867940	-3.753960	0.019104	0.975156	-0.003967	-1.000000	-1.000000	-1.000000	-1.000000	-1.000000	-1.000000	-1.000000	146.827586	0.000000	-1.000000	-1.000000	579629.000000	1772311819.264774
-22573.305000	-31423.365000	-31252.725000	-15732.990000	0.000000	0.000000	0.000000	0.000000	5.814347	8.692579	-4.743607	7.737027	-0.000000	0.000000	-0.000000	0.000000	-1.007160	4.867940	-3.753960	0.019104	0.975156	-0.003967	-1.000000	-1.000000	-1.000000	-1.000000	-1.000000	-1.000000	-1.000000	146.827586	0.000000	-1.000000	-1.000000	579630.000000	1772311819.264777
-22525.605000	-31417.245000	-31235.670000	-15723.270000	0.000000	0.000000	0.000000	0.000000	-19.597303	-12.682699	-26.076026	-14.292553	-0.000000	0.000000	-0.000000	0.000000	-1.007160	4.867940	-3.753960	0.019104	0.975156	-0.003967	-1.000000	-1.000000	-1.000000	-1.000000	-1.000000	-1.000000	-1.000000	146.827586	0.000000	-1.000000	-1.000000	579631.000000	1772311819.268613
-22532.445000	-31392.540000	-31253.625000	-15740.415000	0.000000	0.000000	0.000000	0.000000	-33.923419	-25.180824	-38.442727	-29.672710	-0.000000	0.000000	-0.000000	0.000000	-1.007160	4.867940	-3.753960	0.019104	0.975156	-0.003967	-1.000000	-1.000000	-1.000000	-1.000000	-1.000000	-1.000000	-1.000000	146.827586	0.000000	-1.000000	-1.000000	579632.000000	1772311819.268615
-22565.295000	-31373.370000	-31291.830000	-15789.555000	0.000000	0.000000	0.000000	0.000000	-27.099097	-23.370407	-34.104697	-30.854465	-0.000000	0.000000	-0.000000	0.000000	-1.007160	4.867940	-3.753960	0.019104	0.975156	-0.003967	-1.000000	-1.000000	-1.000000	-1.000000	-1.000000	-1.000000	-1.000000	146.827586	0.000000	-1.000000	-1.000000	579633.000000	1772311819.272602
-22448.295000	-31339.575000	-31163.715000	-15689.925000	0.000000	0.000000	0.000000	0.000000	-5.544593	-9.909403	-15.113381	-18.754018	-0.000000	0.000000	-0.000000	0.000000	-1.007160	4.867940	-3.753960	0.019104	0.975156	-0.003967	-1.000000	-1.000000	-1.000000	-1.000000	-1.000000	-1.000000	-1.000000	146.827586	0.000000	-1.000000	-1.000000	579634.000000	1772311819.272606
-22482.000000	-31333.590000	-31195.665000	-15711.210000	0.000000	0.000000	0.000000	0.000000	19.852311	6.714269	12.726048	2.858723	-0.000000	0.000000	-0.000000	0.000000	-1.007160	4.867940	-3.753960	0.019104	0.975156	-0.003967	-1.000000	-1.000000	-1.000000	-1.000000	-1.000000	-1.000000	-1.000000	146.827586	0.000000	-1.000000	-1.000000	579635.000000	1772311819.276433
-22501.305000	-31341.555000	-31228.785000	-15736.005000	0.000000	0.000000	0.000000	0.000000	36.579984	16.879480	36.820436	24.883889	-0.000000	0.000000	-0.000000	0.000000	-1.007160	4.867940	-3.753960	0.019104	0.975156	-0.003967	-1.000000	-1.000000	-1.000000	-1.000000	-1.000000	-1.000000	-1.000000	146.827586	0.000000	-1.000000	-1.000000	579636.000000	1772311819.276436
-22469.220000	-31333.815000	-31187.880000	-15714.585000	0.000000	0.000000	0.000000	0.000000	34.167052	15.257404	41.974152	34.173765	-0.000000	0.000000	-0.000000	0.000000	-1.007160	4.867940	-3.753960	0.019104	0.975156	-0.003967	-1.000000	-1.000000	-1.000000	-1.000000	-1.000000	-1.000000	-1.000000	146.827586	0.000000	-1.000000	-1.000000	579637.000000	1772311819.280741
-22557.555000	-31342.455000	-31239.270000	-15776.595000	0.000000	0.000000	0.000000	0.000000	14.286819	4.340937	26.561154	25.947169	-0.000000	0.000000	-0.000000	0.000000	-1.007160	4.867940	-3.753960	0.019104	0.975156	-0.003967	-1.000000	-1.000000	-1.000000	-1.000000	-1.000000	-1.000000	-1.000000	146.827586	0.000000	-1.000000	-1.000000	579638.000000	1772311819.280745
-22563.945000	-31336.470000	-31231.350000	-15781.095000	0.000000	0.000000	0.000000	0.000000	-12.842243	-8.272792	1.456740	5.891627	-0.000000	0.000000	-0.000000	0.000000	4.104940	4.898460	3.158820	0.009216	0.984678	-0.001038	-1.000000	-1.000000	-1.000000	-1.000000	-1.000000	-1.000000	-1.000000	146.827586	0.000000	-1.000000	-1.000000	579639.000000	1772311819.284590
-22415.265000	-31325.850000	-31086.540000	-15678.450000	0.000000	0.000000	0.000000	0.000000	-31.867381	-15.413225	-17.820786	-13.073310	-0.000000	0.000000	-0.000000	0.000000	4.104940	4.898460	3.158820	0.009216	0.984678	-0.001038	-1.000000	-1.000000	-1.000000	-1.000000	-1.000000	-1.000000	-1.000000	146.827586	0.000000	-1.000000	-1.000000	579640.000000	1772311819.284594
-22357.170000	-31316.490000	-31015.170000	-15653.520000	0.000000	0.000000	0.000000	0.000000	-25.863035	-13.833784	-16.352601	-16.162849	-0.000000	0.000000	-0.000000	0.000000	4.104940	4.898460	3.158820	0.009216	0.984678	-0.001038	-1.000000	-1.000000	-1.000000	-1.000000	-1.000000	-1.000000	-1.000000	146.827586	0.000000	-1.000000	-1.000000	579641.000000	1772311819.290012
-22411.530000	-31307.040000	-31076.190000	-15672.690000	0.000000	0.000000	0.000000	0.000000	2.502869	-5.415188	3.069524	-2.709361	-0.000000	0.000000	-0.000000	0.000000	4.104940	4.898460	3.158820	0.009216	0.984678	-0.001038	-1.000000	-1.000000	-1.000000	-1.000000	-1.000000	-1.000000	-1.000000	146.827586	0.000000	-1.000000	-1.000000	579642.000000	1772311819.290017
-22477.815000	-31289.445000	-31157.820000	-15657.120000	0.000000	0.000000	0.000000	0.000000	25.224130	4.784515	15.294830	11.261786	-0.000000	0.000000	-0.000000	0.000000	4.104940	4.898460	3.158820	0.009216	0.984678	-0.001038	-1.000000	-1.000000	-1.000000	-1.000000	-1.000000	-1.000000	-1.000000	146.827586	0.000000	-1.000000	-1.000000	579643.000000	1772311819.297585
-22493.565000	-31276.350000	-31252.770000	-15700.275000	0.000000	0.000000	0.000000	0.000000	19.355651	12.143174	-0.385249	11.681720	-0.000000	0.000000	-0.000000	0.000000	4.104940	4.898460	3.158820	0.009216	0.984678	-0.001038	-1.000000	-1.000000	-1.000000	-1.000000	-1.000000	-1.000000	-1.000000	146.827586	0.000000	-1.000000	-1.000000	579644.000000	1772311819.297587
-22535.280000	-31269.330000	-31321.080000	-15783.030000	0.000000	0.000000	0.000000	0.000000	-9.064267	14.213175	-37.099144	-3.422712	-0.000000	0.000000	-0.000000	0.000000	4.104940	4.898460	3.158820	0.009216	0.984678	-0.001038	-1.000000	-1.000000	-1.000000	-1.000000	-1.000000	-1.000000	-1.000000	146.827586	0.000000	-1.000000	-1.000000	579645.000000	1772311819.297591
-22577.580000	-31251.825000	-31353.930000	-15862.005000	0.000000	0.000000	0.000000	0.000000	-36.736147	10.913861	-67.449937	-27.406867	-0.000000	0.000000	-0.000000	0.000000	4.104940	4.898460	3.158820	0.009216	0.984678	-0.001038	-1.000000	-1.000000	-1.000000	-1.000000	-1.000000	-1.000000	-1.000000	146.827586	0.000000	-1.000000	-1.000000	579646.000000	1772311819.297593
-22517.325000	-31229.280000	-31237.830000	-15802.290000	0.000000	0.000000	0.000000	0.000000	-44.352716	4.666168	-64.439140	-45.866486	-0.000000	0.000000	-0.000000	0.000000	4.104940	4.898460	3.158820	0.009216	0.984678	-0.001038	-1.000000	-1.000000	-1.000000	-1.000000	-1.000000	-1.000000	-1.000000	146.827586	0.000000	-1.000000	-1.000000	579647.000000	1772311819.300482
-22458.825000	-31182.030000	-31161.105000	-15741.990000	0.000000	0.000000	0.000000	0.000000	-24.389715	-0.487666	-18.727809	-40.356086	-0.000000	0.000000	-0.000000	0.000000	4.104940	4.898460	3.158820	0.009216	0.984678	-0.001038	-1.000000	-1.000000	-1.000000	-1.000000	-1.000000	-1.000000	-1.000000	146.827586	0.000000	-1.000000	-1.000000	579648.000000	1772311819.300485
-22391.370000	-31126.365000	-31184.955000	-15748.920000	0.000000	0.000000	0.000000	0.000000	15.989212	-1.079013	49.514810	-6.064654	-0.000000	0.000000	-0.000000	0.000000	3.067260	3.708180	5.524120	0.012329	0.996579	-0.008301	-1.000000	-1.000000	-1.000000	-1.000000	-1.000000	-1.000000	-1.000000	146.827586	0.000000	-1.000000	-1.000000	579649.000000	1772311819.304597
-22390.245000	-31102.830000	-31242.105000	-15768.855000	0.000000	0.000000	0.000000	0.000000	55.449653	2.711280	97.740276	36.776393	-0.000000	0.000000	-0.000000	0.000000	3.067260	3.708180	5.524120	0.012329	0.996579	-0.008301	-1.000000	-1.000000	-1.000000	-1.000000	-1.000000	-1.000000	-1.000000	146.827586	0.000000	-1.000000	-1.000000	579650.000000	1772311819.304600
-22476.105000	-31094.415000	-31311.855000	-15756.840000	0.000000	0.000000	0.000000	0.000000	68.640186	5.648720	93.452417	60.275240	-0.000000	0.000000	-0.000000	0.000000	3.067260	3.708180	5.524120	0.012329	0.996579	-0.008301	-1.000000	-1.000000	-1.000000	-1.000000	-1.000000	-1.000000	-1.000000	146.827586	0.000000	-1.000000	-1.000000	579651.000000	1772311819.308866
-22611.150000	-31087.170000	-31333.725000	-15761.160000	0.000000	0.000000	0.000000	0.000000	41.252577	1.892152	40.801792	53.605385	-0.000000	0.000000	-0.000000	0.000000	3.067260	3.708180	5.524120	0.012329	0.996579	-0.008301	-1.000000	-1.000000	-1.000000	-1.000000	-1.000000	-1.000000	-1.000000	146.827586	0.000000	-1.000000	-1.000000	579652.000000	1772311819.308869
-22611.195000	-31128.795000	-31238.910000	-15681.780000	0.000000	0.000000	0.000000	0.000000	-15.873964	-9.456659	-23.241166	27.386626	-0.000000	0.000000	-0.000000	0.000000	3.067260	3.708180	5.524120	0.012329	0.996579	-0.008301	-1.000000	-1.000000	-1.000000	-1.000000	-1.000000	-1.000000	-1.000000	146.827586	0.000000	-1.000000	-1.000000	579653.000000	1772311819.312708
-22550.715000	-31167.630000	-31208.040000	-15681.105000	0.000000	0.000000	0.000000	0.000000	-66.093728	-24.515399	-57.414944	0.667295	-0.000000	0.000000	-0.000000	0.000000	3.067260	3.708180	5.524120	0.012329	0.996579	-0.008301	-1.000000	-1.000000	-1.000000	-1.000000	-1.000000	-1.000000	-1.000000	146.827586	0.000000	-1.000000	-1.000000	579654.000000	1772311819.312711
-22489.695000	-31173.345000	-31198.005000	-15717.240000	0.000000	0.000000	0.000000	0.000000	-72.946915	-36.180658	-48.387283	-16.402388	-0.000000	0.000000	-0.000000	0.000000	3.067260	3.708180	5.524120	0.012329	0.996579	-0.008301	-1.000000	-1.000000	-1.000000	-1.000000	-1.000000	-1.000000	-1.000000	146.827586	0.000000	-1.000000	-1.000000	579655.000000	1772311819.316564
-22628.250000	-31169.115000	-31234.410000	-15733.485000	0.000000	0.000000	0.000000	0.000000	-35.120023	-35.807011	-16.662490	-26.785485	-0.000000	0.000000	-0.000000	0.000000	3.067260	3.708180	5.524120	0.012329	0.996579	-0.008301	-1.000000	-1.000000	-1.000000	-1.000000	-1.000000	-1.000000	-1.000000	146.827586	0.000000	-1.000000	-1.000000	579656.000000	1772311819.316568
-22694.985000	-31140.135000	-31229.145000	-15729.165000	0.000000	0.000000	0.000000	0.000000	11.289176	-19.013307	8.247740	-33.940852	-0.000000	0.000000	-0.000000	0.000000	3.067260	3.708180	5.524120	0.012329	0.996579	-0.008301	-1.000000	-1.000000	-1.000000	-1.000000	-1.000000	-1.000000	-1.000000	146.827586	0.000000	-1.000000	-1.000000	579657.000000	1772311819.320668
-22663.530000	-31117.545000	-31252.095000	-15751.935000	0.000000	0.000000	0.000000	0.000000	33.179085	9.420194	12.732151	-35.018012	-0.000000	0.000000	-0.000000	0.000000	3.067260	3.708180	5.524120	0.012329	0.996579	-0.008301	-1.000000	-1.000000	-1.000000	-1.000000	-1.000000	-1.000000	-1.000000	146.827586	0.000000	-1.000000	-1.000000	579658.000000	1772311819.320671
-22572.090000	-31106.880000	-31235.670000	-15767.010000	0.000000	0.000000	0.000000	0.000000	32.650205	37.119460	2.417332	-27.460088	-0.000000	0.000000	-0.000000	0.000000	11.048240	6.226080	7.431620	0.050049	1.038511	-0.019592	-1.000000	-1.000000	-1.000000	-1.000000	-1.000000	-1.000000	-1.000000	146.827586	0.000000	-1.000000	-1.000000	579659.000000	1772311819.324710
-22445.280000	-31070.070000	-31190.715000	-15729.255000	0.000000	0.000000	0.000000	0.000000	32.411115	51.488760	-8.378737	-12.619197	-0.000000	0.000000	-0.000000	0.000000	11.048240	6.226080	7.431620	0.050049	1.038511	-0.019592	-1.000000	-1.000000	-1.000000	-1.000000	-1.000000	-1.000000	-1.000000	146.827586	0.000000	-1.000000	-1.000000	579660.000000	1772311819.324714
-22555.710000	-31045.950000	-31241.025000	-15748.380000	0.000000	0.000000	0.000000	0.000000	40.427748	47.765865	-9.828324	6.076472	-0.000000	0.000000	-0.000000	0.000000	11.048240	6.226080	7.431620	0.050049	1.038511	-0.019592	-1.000000	-1.000000	-1.000000	-1.000000	-1.000000	-1.000000	-1.000000	146.827586	0.000000	-1.000000	-1.000000	579661.000000	1772311819.329091
-22573.440000	-31027.950000	-31266.990000	-15778.755000	0.000000	0.000000	0.000000	0.000000	39.019344	29.943208	-4.966509	21.794708	0.000000	0.000000	-0.000000	0.000000	11.048240	6.226080	7.431620	0.050049	1.038511	-0.019592	-1.000000	-1.000000	-1.000000	-1.000000	-1.000000	-1.000000	-1.000000	146.827586	0.000000	-1.000000	-1.000000	579662.000000	1772311819.329094
-22492.935000	-31027.545000	-31237.830000	-15750.765000	0.000000	0.000000	0.000000	0.000000	14.559218	5.640551	-1.548815	27.318276	0.000000	0.000000	-0.000000	0.000000	11.048240	6.226080	7.431620	0.050049	1.038511	-0.019592	-1.000000	-1.000000	-1.000000	-1.000000	-1.000000	-1.000000	-1.000000	146.827586	0.000000	-1.000000	-1.000000	579663.000000	1772311819.334483
-22536.270000	-31044.420000	-31284.720000	-15764.355000	0.000000	0.000000	0.000000	0.000000	-19.787476	-18.065171	-0.643622	22.738878	0.000000	0.000000	-0.000000	0.000000	11.048240	6.226080	7.431620	0.050049	1.038511	-0.019592	-1.000000	-1.000000	-1.000000	-1.000000	-1.000000	-1.000000	-1.000000	146.827586	0.000000	-1.000000	-1.000000	579664.000000	1772311819.334486
-22589.640000	-31027.545000	-31301.505000	-15776.505000	0.000000	0.000000	0.000000	0.000000	-45.043725	-35.289242	-0.548505	13.204810	0.000000	0.000000	-0.000000	0.000000	11.048240	6.226080	7.431620	0.050049	1.038511	-0.019592	-1.000000	-1.000000	-1.000000	-1.000000	-1.000000	-1.000000	-1.000000	146.827586	0.000000	-1.000000	-1.000000	579665.000000	1772311819.336675
-22562.280000	-30968.145000	-31240.890000	-15741.765000	0.000000	0.000000	0.000000	0.000000	-54.685572	-39.915948	0.258315	3.359400	0.000000	0.000000	-0.000000	0.000000	11.048240	6.226080	7.431620	0.050049	1.038511	-0.019592	-1.000000	-1.000000	-1.000000	-1.000000	-1.000000	-1.000000	-1.000000	146.827586	0.000000	-1.000000	-1.000000	579666.000000	1772311819.336678
-22590.720000	-30941.055000	-31232.565000	-15727.050000	0.000000	0.000000	0.000000	0.000000	-47.783527	-28.320638	5.512259	-2.468149	0.000000	0.000000	-0.000000	0.000000	11.048240	6.226080	7.431620	0.050049	1.038511	-0.019592	-1.000000	-1.000000	-1.000000	-1.000000	-1.000000	-1.000000	-1.000000	146.827586	0.000000	-1.000000	-1.000000	579667.000000	1772311819.343369
-22610.520000	-30945.735000	-31248.270000	-15750.495000	0.000000	0.000000	0.000000	0.000000	-27.380837	-6.334110	14.485180	-3.131231	0.000000	0.000000	-0.000000	0.000000	11.048240	6.226080	7.431620	0.050049	1.038511	-0.019592	-1.000000	-1.000000	-1.000000	-1.000000	-1.000000	-1.000000	-1.000000	146.827586	0.000000	-1.000000	-1.000000	579668.000000	1772311819.343372
-22571.325000	-30944.115000	-31176.180000	-15689.340000	0.000000	0.000000	0.000000	0.000000	-1.686094	12.246774	20.304497	-1.855484	0.000000	0.000000	-0.000000	0.000000	-1.602300	6.409200	20.036380	0.051575	1.072995	-0.025879	-1.000000	-1.000000	-1.000000	-1.000000	-1.000000	-1.000000	-1.000000	146.827586	0.000000	-1.000000	-1.000000	579669.000000	1772311819.344798
-22552.785000	-30939.930000	-31145.310000	-15708.465000	0.000000	0.000000	0.000000	0.000000	22.205876	17.574636	20.027806	-0.817329	0.000000	0.000000	-0.000000	0.000000	-1.602300	6.409200	20.036380	0.051575	1.072995	-0.025879	-1.000000	-1.000000	-1.000000	-1.000000	-1.000000	-1.000000	-1.000000	146.827586	0.000000	-1.000000	-1.000000	579670.000000	1772311819.344802
-22665.375000	-30931.065000	-31188.690000	-15773.940000	0.000000	0.000000	0.000000	0.000000	37.033179	10.901066	14.253844	-2.294523	0.000000	0.000000	-0.000000	0.000000	-1.602300	6.409200	20.036380	0.051575	1.072995	-0.025879	-1.000000	-1.000000	-1.000000	-1.000000	-1.000000	-1.000000	-1.000000	146.827586	0.000000	-1.000000	-1.000000	579671.000000	1772311819.348768
-22672.215000	-30951.135000	-31192.245000	-15751.170000	0.000000	0.000000	0.000000	0.000000	33.814840	-0.071808	1.119865	-9.284171	0.000000	0.000000	-0.000000	0.000000	-1.602300	6.409200	20.036380	0.051575	1.072995	-0.025879	-1.000000	-1.000000	-1.000000	-1.000000	-1.000000	-1.000000	-1.000000	146.827586	0.000000	-1.000000	-1.000000	579672.000000	1772311819.348771
-22535.865000	-30903.480000	-31088.745000	-15660.630000	0.000000	0.000000	0.000000	0.000000	16.843803	-7.959931	-15.680544	-15.910194	0.000000	0.000000	-0.000000	0.000000	-1.602300	6.409200	20.036380	0.051575	1.072995	-0.025879	-1.000000	-1.000000	-1.000000	-1.000000	-1.000000	-1.000000	-1.000000	146.827586	0.000000	-1.000000	-1.000000	579673.000000	1772311819.352660
-22445.100000	-30809.520000	-31082.175000	-15691.455000	0.000000	0.000000	0.000000	0.000000	7.281558	-6.480555	-23.720920	-11.391113	0.000000	0.000000	-0.000000	0.000000	-1.602300	6.409200	20.036380	0.051575	1.072995	-0.025879	-1.000000	-1.000000	-1.000000	-1.000000	-1.000000	-1.000000	-1.000000	146.827586	0.000000	-1.000000	-1.000000	579674.000000	1772311819.352663
-22494.780000	-30801.105000	-31209.435000	-15834.330000	0.000000	0.000000	0.000000	0.000000	14.958235	6.213531	-20.304338	-0.303927	0.000000	0.000000	-0.000000	0.000000	-1.602300	6.409200	20.036380	0.051575	1.072995	-0.025879	-1.000000	-1.000000	-1.000000	-1.000000	-1.000000	-1.000000	-1.000000	146.827586	0.000000	-1.000000	-1.000000	579675.000000	1772311819.356892
-22606.380000	-30808.530000	-31291.065000	-15882.705000	0.000000	0.000000	0.000000	0.000000	20.955089	20.467644	-19.598232	-0.245095	0.000000	0.000000	-0.000000	0.000000	-1.602300	6.409200	20.036380	0.051575	1.072995	-0.025879	-1.000000	-1.000000	-1.000000	-1.000000	-1.000000	-1.000000	-1.000000	146.827586	0.000000	-1.000000	-1.000000	579676.000000	1772311819.356895
-22670.550000	-30820.095000	-31268.475000	-15816.780000	0.000000	0.000000	0.000000	0.000000	2.389253	21.633622	-28.659929	-12.981775	0.000000	0.000000	-0.000000	0.000000	-1.602300	6.409200	20.036380	0.051575	1.072995	-0.025879	-1.000000	-1.000000	-1.000000	-1.000000	-1.000000	-1.000000	-1.000000	146.827586	0.000000	-1.000000	-1.000000	579677.000000	1772311819.360736
-22636.080000	-30833.280000	-31225.770000	-15761.115000	0.000000	0.000000	0.000000	0.000000	-35.015470	5.679101	-32.555960	-17.635682	0.000000	0.000000	-0.000000	0.000000	-1.602300	6.409200	20.036380	0.051575	1.072995	-0.025879	-1.000000	-1.000000	-1.000000	-1.000000	-1.000000	-1.000000	-1.000000	146.827586	0.000000	-1.000000	-1.000000	579678.000000	1772311819.360740
-22545.315000	-30839.850000	-31274.235000	-15805.620000	0.000000	0.000000	0.000000	0.000000	-59.229668	-17.541826	-15.853726	-0.563345	0.000000	0.000000	-0.000000	0.000000	-22.004920	-3.250380	29.055040	0.026977	1.077573	-0.014221	-1.000000	-1.000000	-1.000000	-1.000000	-1.000000	-1.000000	-1.000000	146.827586	0.000000	-1.000000	-1.000000	579679.000000	1772311819.364831
-22623.120000	-30844.755000	-31284.180000	-15771.780000	0.000000	0.000000	0.000000	0.000000	-47.287711	-33.747808	14.662736	25.956401	0.000000	0.000000	-0.000000	0.000000	-22.004920	-3.250380	29.055040	0.026977	1.077573	-0.014221	-1.000000	-1.000000	-1.000000	-1.000000	-1.000000	-1.000000	-1.000000	146.827586	0.000000	-1.000000	-1.000000	579680.000000	1772311819.364834
-22637.565000	-30852.405000	-31316.220000	-15745.635000	0.000000	0.000000	0.000000	0.000000	-10.785266	-34.422773	39.014940	42.038087	0.000000	0.000000	-0.000000	0.000000	-22.004920	-3.250380	29.055040	0.026977	1.077573	-0.014221	-1.000000	-1.000000	-1.000000	-1.000000	-1.000000	-1.000000	-1.000000	146.827586	0.000000	-1.000000	-1.000000	579681.000000	1772311819.368698
-22486.680000	-30840.525000	-31283.370000	-15781.590000	0.000000	0.000000	0.000000	0.000000	24.479862	-20.480435	45.525116	39.337840	0.000000	0.000000	-0.000000	0.000000	-22.004920	-3.250380	29.055040	0.026977	1.077573	-0.014221	-1.000000	-1.000000	-1.000000	-1.000000	-1.000000	-1.000000	-1.000000	146.827586	0.000000	-1.000000	-1.000000	579682.000000	1772311819.368700
-22488.255000	-30823.830000	-31293.270000	-15798.105000	0.000000	0.000000	0.000000	0.000000	47.707210	0.988910	36.961217	19.561129	0.000000	0.000000	-0.000000	0.000000	-22.004920	-3.250380	29.055040	0.026977	1.077573	-0.014221	-1.000000	-1.000000	-1.000000	-1.000000	-1.000000	-1.000000	-1.000000	146.827586	0.000000	-1.000000	-1.000000	579683.000000	1772311819.372783
-22412.790000	-30822.480000	-31128.795000	-15600.105000	0.000000	0.000000	0.000000	0.000000	56.902536	21.145915	24.619449	-5.108376	0.000000	0.000000	-0.000000	0.000000	-22.004920	-3.250380	29.055040	0.026977	1.077573	-0.014221	-1.000000	-1.000000	-1.000000	-1.000000	-1.000000	-1.000000	-1.000000	146.827586	0.000000	-1.000000	-1.000000	579684.000000	1772311819.372785
-22445.280000	-30829.770000	-31113.180000	-15566.445000	0.000000	0.000000	0.000000	0.000000	47.926274	32.027276	19.320025	-14.818903	0.000000	0.000000	-0.000000	0.000000	-22.004920	-3.250380	29.055040	0.026977	1.077573	-0.014221	-1.000000	-1.000000	-1.000000	-1.000000	-1.000000	-1.000000	-1.000000	146.827586	0.000000	-1.000000	-1.000000	579685.000000	1772311819.376993
-22690.080000	-30828.645000	-31341.285000	-15787.215000	0.000000	0.000000	0.000000	0.000000	15.713967	29.778298	14.933751	-9.348855	0.000000	0.000000	-0.000000	0.000000	-22.004920	-3.250380	29.055040	0.026977	1.077573	-0.014221	-1.000000	-1.000000	-1.000000	-1.000000	-1.000000	-1.000000	-1.000000	146.827586	0.000000	-1.000000	-1.000000	579686.000000	1772311819.376997
-22620.735000	-30805.695000	-31283.640000	-15757.200000	0.000000	0.000000	0.000000	0.000000	-36.660840	17.602295	-7.459039	-13.275970	0.000000	0.000000	-0.000000	0.000000	-22.004920	-3.250380	29.055040	0.026977	1.077573	-0.014221	-1.000000	-1.000000	-1.000000	-1.000000	-1.000000	-1.000000	-1.000000	146.827586	0.000000	-1.000000	-1.000000	579687.000000	1772311819.380841
-22474.440000	-30778.965000	-31215.060000	-15795.675000	0.000000	0.000000	0.000000	0.000000	-79.402981	3.907791	-42.398959	-34.768193	0.000000	0.000000	-0.000000	0.000000	-22.004920	-3.250380	29.055040	0.026977	1.077573	-0.014221	-1.000000	-1.000000	-1.000000	-1.000000	-1.000000	-1.000000	-1.000000	146.827586	0.000000	-1.000000	-1.000000	579688.000000	1772311819.380845
-22627.305000	-30762.270000	-31180.545000	-15725.745000	0.000000	0.000000	0.000000	0.000000	-77.156512	-4.293907	-58.357208	-51.143652	0.000000	0.000000	-0.000000	0.000000	-29.589140	-4.074420	13.856080	0.046570	1.053647	-0.008484	-1.000000	-1.000000	-1.000000	-1.000000	-1.000000	-1.000000	-1.000000	146.827586	0.000000	-1.000000	-1.000000	579689.000000	1772311819.384908
-22523.805000	-30758.940000	-31156.605000	-15664.545000	0.000000	0.000000	0.000000	0.000000	-34.126867	-6.357939	-39.985626	-39.460919	0.000000	0.000000	-0.000000	0.000000	-29.589140	-4.074420	13.856080	0.046570	1.053647	-0.008484	-1.000000	-1.000000	-1.000000	-1.000000	-1.000000	-1.000000	-1.000000	146.827586	0.000000	-1.000000	-1.000000	579690.000000	1772311819.384911
-22510.845000	-30768.615000	-31148.370000	-15653.250000	0.000000	0.000000	0.000000	0.000000	18.253438	-6.613850	-2.909825	-0.506325	0.000000	0.000000	-0.000000	0.000000	-29.589140	-4.074420	13.856080	0.046570	1.053647	-0.008484	-1.000000	-1.000000	-1.000000	-1.000000	-1.000000	-1.000000	-1.000000	146.827586	0.000000	-1.000000	-1.000000	579691.000000	1772311819.388908
-22612.455000	-30772.125000	-31255.740000	-15728.580000	0.000000	0.000000	0.000000	0.000000	53.747951	-8.966317	25.196621	40.516373	0.000000	0.000000	-0.000000	0.000000	-29.589140	-4.074420	13.856080	0.046570	1.053647	-0.008484	-1.000000	-1.000000	-1.000000	-1.000000	-1.000000	-1.000000	-1.000000	146.827586	0.000000	-1.000000	-1.000000	579692.000000	1772311819.388910
-22642.200000	-30785.220000	-31365.045000	-15814.080000	0.000000	0.000000	0.000000	0.000000	56.412913	-13.242222	24.176441	53.504289	0.000000	0.000000	-0.000000	0.000000	-29.589140	-4.074420	13.856080	0.046570	1.053647	-0.008484	-1.000000	-1.000000	-1.000000	-1.000000	-1.000000	-1.000000	-1.000000	146.827586	0.000000	-1.000000	-1.000000	579693.000000	1772311819.392857
-22615.065000	-30803.535000	-31411.665000	-15897.510000	0.000000	0.000000	0.000000	0.000000	29.610446	-16.450335	-4.384482	28.947283	0.000000	0.000000	-0.000000	0.000000	-29.589140	-4.074420	13.856080	0.046570	1.053647	-0.008484	-1.000000	-1.000000	-1.000000	-1.000000	-1.000000	-1.000000	-1.000000	146.827586	0.000000	-1.000000	-1.000000	579694.000000	1772311819.392859
-22520.745000	-30807.855000	-31392.270000	-15890.760000	0.000000	0.000000	0.000000	0.000000	-1.065401	-15.864451	-35.258162	-13.871936	0.000000	0.000000	-0.000000	0.000000	-29.589140	-4.074420	13.856080	0.046570	1.053647	-0.008484	-1.000000	-1.000000	-1.000000	-1.000000	-1.000000	-1.000000	-1.000000	146.827586	0.000000	-1.000000	-1.000000	579695.000000	1772311819.396898
-22573.935000	-30811.770000	-31313.790000	-15758.595000	0.000000	0.000000	0.000000	0.000000	-12.543359	-10.271557	-38.634070	-40.138035	0.000000	0.000000	-0.000000	0.000000	-29.589140	-4.074420	13.856080	0.046570	1.053647	-0.008484	-1.000000	-1.000000	-1.000000	-1.000000	-1.000000	-1.000000	-1.000000	146.827586	0.000000	-1.000000	-1.000000	579696.000000	1772311819.396900
-22664.115000	-30812.040000	-31343.715000	-15767.910000	0.000000	0.000000	0.000000	0.000000	-8.182424	-0.557915	-6.585991	-26.979683	0.000000	0.000000	-0.000000	0.000000	-29.589140	-4.074420	13.856080	0.046570	1.053647	-0.008484	-1.000000	-1.000000	-1.000000	-1.000000	-1.000000	-1.000000	-1.000000	146.827586	0.000000	-1.000000	-1.000000	579697.000000	1772311819.400899
-22549.500000	-30800.070000	-31329.585000	-15836.985000	0.000000	0.000000	0.000000	0.000000	-4.708553	10.322162	38.806506	12.531236	0.000000	0.000000	-0.000000	0.000000	-29.589140	-4.074420	13.856080	0.046570	1.053647	-0.008484	-1.000000	-1.000000	-1.000000	-1.000000	-1.000000	-1.000000	-1.000000	146.827586	0.000000	-1.000000	-1.000000	579698.000000	1772311819.400902
-22504.950000	-30777.840000	-31320.405000	-15799.815000	0.000000	0.000000	0.000000	0.000000	-3.449301	19.141050	66.795236	42.673852	0.000000	0.000000	-0.000000	0.000000	-33.984020	-8.103060	12.436900	0.041626	1.008725	0.008545	-1.000000	-1.000000	-1.000000	-1.000000	-1.000000	-1.000000	-1.000000	146.827586	0.000000	-1.000000	-1.000000	579699.000000	1772311819.404879
-22520.115000	-30752.145000	-31375.755000	-15775.695000	0.000000	0.000000	0.000000	0.000000	3.066932	23.885807	62.421570	44.339083	0.000000	0.000000	-0.000000	0.000000	-33.984020	-8.103060	12.436900	0.041626	1.008725	0.008545	-1.000000	-1.000000	-1.000000	-1.000000	-1.000000	-1.000000	-1.000000	146.827586	0.000000	-1.000000	-1.000000	579700.000000	1772311819.404882
-22391.190000	-30734.955000	-31310.775000	-15700.590000	0.000000	0.000000	0.000000	0.000000	12.575806	23.478083	31.474291	26.686325	0.000000	0.000000	-0.000000	0.000000	-33.984020	-8.103060	12.436900	0.041626	1.008725	0.008545	-1.000000	-1.000000	-1.000000	-1.000000	-1.000000	-1.000000	-1.000000	146.827586	0.000000	-1.000000	-1.000000	579701.000000	1772311819.408929
-22321.530000	-30723.930000	-31121.910000	-15583.590000	0.000000	0.000000	0.000000	0.000000	20.270022	17.309107	-2.605224	9.047683	0.000000	0.000000	-0.000000	0.000000	-33.984020	-8.103060	12.436900	0.041626	1.008725	0.008545	-1.000000	-1.000000	-1.000000	-1.000000	-1.000000	-1.000000	-1.000000	146.827586	0.000000	-1.000000	-1.000000	579702.000000	1772311819.408932
-22390.155000	-30725.055000	-31117.005000	-15642.045000	0.000000	0.000000	0.000000	0.000000	21.756274	5.890167	-15.476006	0.971914	0.000000	0.000000	-0.000000	0.000000	-33.984020	-8.103060	12.436900	0.041626	1.008725	0.008545	-1.000000	-1.000000	-1.000000	-1.000000	-1.000000	-1.000000	-1.000000	146.827586	0.000000	-1.000000	-1.000000	579703.000000	1772311819.412910
-22382.145000	-30729.600000	-31209.075000	-15724.530000	0.000000	0.000000	0.000000	0.000000	8.397299	-8.306204	-10.509477	-7.042903	0.000000	0.000000	-0.000000	0.000000	-33.984020	-8.103060	12.436900	0.041626	1.008725	0.008545	-1.000000	-1.000000	-1.000000	-1.000000	-1.000000	-1.000000	-1.000000	146.827586	0.000000	-1.000000	-1.000000	579704.000000	1772311819.412913
-22222.710000	-30723.345000	-31217.580000	-15729.570000	0.000000	0.000000	0.000000	0.000000	-16.752944	-20.847168	-13.161781	-27.444485	0.000000	0.000000	-0.000000	0.000000	-33.984020	-8.103060	12.436900	0.041626	1.008725	0.008545	-1.000000	-1.000000	-1.000000	-1.000000	-1.000000	-1.000000	-1.000000	146.827586	0.000000	-1.000000	-1.000000	579705.000000	1772311819.416961
-22258.125000	-30699.630000	-31218.165000	-15699.555000	0.000000	0.000000	0.000000	0.000000	-33.987153	-26.457247	-32.984105	-51.976791	0.000000	0.000000	-0.000000	0.000000	-33.984020	-8.103060	12.436900	0.041626	1.008725	0.008545	-1.000000	-1.000000	-1.000000	-1.000000	-1.000000	-1.000000	-1.000000	146.827586	0.000000	-1.000000	-1.000000	579706.000000	1772311819.416964
-22428.270000	-30656.925000	-31212.495000	-15684.570000	0.000000	0.000000	0.000000	0.000000	-36.722963	-21.487940	-53.129223	-58.808898	0.000000	0.000000	-0.000000	0.000000	-33.984020	-8.103060	12.436900	0.041626	1.008725	0.008545	-1.000000	-1.000000	-1.000000	-1.000000	-1.000000	-1.000000	-1.000000	146.827586	0.000000	-1.000000	-1.000000	579707.000000	1772311819.420986
-22494.330000	-30631.230000	-31136.265000	-15655.365000	0.000000	0.000000	0.000000	0.000000	-40.224570	-7.100931	-52.887088	-38.075187	0.000000	0.000000	-0.000000	0.000000	-33.984020	-8.103060	12.436900	0.041626	1.008725	0.008545	-1.000000	-1.000000	-1.000000	-1.000000	-1.000000	-1.000000	-1.000000	146.827586	0.000000	-1.000000	-1.000000	579708.000000	1772311819.420989
-22546.530000	-30626.505000	-31090.590000	-15622.245000	0.000000	0.000000	0.000000	0.000000	-50.184642	9.331046	-25.902585	0.028731	0.000000	0.000000	-0.000000	0.000000	-42.453320	0.289940	23.653000	0.042908	0.995420	-0.016663	-1.000000	-1.000000	-1.000000	-1.000000	-1.000000	-1.000000	-1.000000	146.827586	0.000000	-1.000000	-1.000000	579709.000000	1772311819.425043
-22583.970000	-30625.470000	-31361.805000	-15897.600000	0.000000	0.000000	0.000000	0.000000	-51.193846	18.103194	10.273368	30.872965	0.000000	0.000000	-0.000000	0.000000	-42.453320	0.289940	23.653000	0.042908	0.995420	-0.016663	-1.000000	-1.000000	-1.000000	-1.000000	-1.000000	-1.000000	-1.000000	146.827586	0.000000	-1.000000	-1.000000	579710.000000	1772311819.425045
-22449.870000	-30615.840000	-31431.015000	-15910.380000	0.000000	0.000000	0.000000	0.000000	-26.480061	14.725013	22.894259	29.767306	0.000000	0.000000	-0.000000	0.000000	-42.453320	0.289940	23.653000	0.042908	0.995420	-0.016663	-1.000000	-1.000000	-1.000000	-1.000000	-1.000000	-1.000000	-1.000000	146.827586	0.000000	-1.000000	-1.000000	579711.000000	1772311819.431392
-22388.985000	-30617.955000	-31404.690000	-15808.545000	0.000000	0.000000	0.000000	0.000000	26.126340	3.019941	3.740541	2.881675	0.000000	0.000000	-0.000000	0.000000	-42.453320	0.289940	23.653000	0.042908	0.995420	-0.016663	-1.000000	-1.000000	-1.000000	-1.000000	-1.000000	-1.000000	-1.000000	146.827586	0.000000	-1.000000	-1.000000	579712.000000	1772311819.431394
-22359.510000	-30608.595000	-31392.810000	-15770.295000	0.000000	0.000000	0.000000	0.000000	86.515240	-9.116351	-16.615565	-12.502347	0.000000	0.000000	-0.000000	0.000000	-42.453320	0.289940	23.653000	0.042908	0.995420	-0.016663	-1.000000	-1.000000	-1.000000	-1.000000	-1.000000	-1.000000	-1.000000	146.827586	0.000000	-1.000000	-1.000000	579713.000000	1772311819.433032
-22250.520000	-30581.595000	-31304.475000	-15775.830000	0.000000	0.000000	0.000000	0.000000	121.967086	-14.937071	-7.710060	4.385344	0.000000	0.000000	-0.000000	0.000000	-42.453320	0.289940	23.653000	0.042908	0.995420	-0.016663	-1.000000	-1.000000	-1.000000	-1.000000	-1.000000	-1.000000	-1.000000	146.827586	0.000000	-1.000000	-1.000000	579714.000000	1772311819.433035
-22490.820000	-30578.760000	-31302.360000	-15829.515000	0.000000	0.000000	0.000000	0.000000	108.795726	-11.898385	29.417250	34.817679	0.000000	0.000000	-0.000000	0.000000	-42.453320	0.289940	23.653000	0.042908	0.995420	-0.016663	-1.000000	-1.000000	-1.000000	-1.000000	-1.000000	-1.000000	-1.000000	146.827586	0.000000	-1.000000	-1.000000	579715.000000	1772311819.438073
-22470.300000	-30540.510000	-31254.795000	-15740.685000	0.000000	0.000000	0.000000	0.000000	43.966184	-2.646783	68.205351	49.758130	0.000000	0.000000	-0.000000	0.000000	-42.453320	0.289940	23.653000	0.042908	0.995420	-0.016663	-1.000000	-1.000000	-1.000000	-1.000000	-1.000000	-1.000000	-1.000000	146.827586	0.000000	-1.000000	-1.000000	579716.000000	1772311819.438076
-22133.790000	-30503.925000	-31230.810000	-15720.390000	0.000000	0.000000	0.000000	0.000000	-37.919550	8.036614	81.432122	41.580944	0.000000	0.000000	-0.000000	0.000000	-42.453320	0.289940	23.653000	0.042908	0.995420	-0.016663	-1.000000	-1.000000	-1.000000	-1.000000	-1.000000	-1.000000	-1.000000	146.827586	0.000000	-1.000000	-1.000000	579717.000000	1772311819.440968
-22010.940000	-30482.865000	-31307.715000	-15747.255000	0.000000	0.000000	0.000000	0.000000	-75.906165	16.090815	59.083905	19.940883	0.000000	0.000000	-0.000000	0.000000	-42.453320	0.289940	23.653000	0.042908	0.995420	-0.016663	-1.000000	-1.000000	-1.000000	-1.000000	-1.000000	-1.000000	-1.000000	146.827586	0.000000	-1.000000	-1.000000	579718.000000	1772311819.440972
-21991.005000	-30452.085000	-31338.450000	-15669.810000	0.000000	0.000000	0.000000	0.000000	-49.038872	18.215492	8.610652	-5.055128	0.000000	0.000000	-0.000000	0.000000	-33.617780	7.919940	13.367760	0.013672	0.990110	-0.002075	-1.000000	-1.000000	-1.000000	-1.000000	-1.000000	-1.000000	-1.000000	146.827586	0.000000	-1.000000	-1.000000	579719.000000	1772311819.446398
-22081.500000	-30423.465000	-31296.915000	-15619.140000	0.000000	0.000000	0.000000	0.000000	-2.185857	13.408600	-47.436793	-23.520110	0.000000	0.000000	-0.000000	0.000000	-33.617780	7.919940	13.367760	0.013672	0.990110	-0.002075	-1.000000	-1.000000	-1.000000	-1.000000	-1.000000	-1.000000	-1.000000	146.827586	0.000000	-1.000000	-1.000000	579720.000000	1772311819.446401
-22496.580000	-30436.875000	-31280.040000	-15702.615000	0.000000	0.000000	0.000000	0.000000	3.112060	3.444736	-79.788097	-30.188117	0.000000	0.000000	-0.000000	0.000000	-33.617780	7.919940	13.367760	0.013672	0.990110	-0.002075	-1.000000	-1.000000	-1.000000	-1.000000	-1.000000	-1.000000	-1.000000	146.827586	0.000000	-1.000000	-1.000000	579721.000000	1772311819.448976
-22440.105000	-30433.905000	-31380.075000	-15829.200000	0.000000	0.000000	0.000000	0.000000	-52.055736	-9.172671	-75.627655	-33.900758	0.000000	0.000000	-0.000000	0.000000	-33.617780	7.919940	13.367760	0.013672	0.990110	-0.002075	-1.000000	-1.000000	-1.000000	-1.000000	-1.000000	-1.000000	-1.000000	146.827586	0.000000	-1.000000	-1.000000	579722.000000	1772311819.448979
-22228.290000	-30404.160000	-31312.170000	-15791.310000	0.000000	0.000000	0.000000	0.000000	-114.423089	-20.258699	-46.975373	-43.502984	0.000000	0.000000	-0.000000	0.000000	-33.617780	7.919940	13.367760	0.013672	0.990110	-0.002075	-1.000000	-1.000000	-1.000000	-1.000000	-1.000000	-1.000000	-1.000000	146.827586	0.000000	-1.000000	-1.000000	579723.000000	1772311819.453293
-22684.905000	-30402.180000	-31314.420000	-15793.740000	0.000000	0.000000	0.000000	0.000000	-115.434093	-23.994689	-11.011736	-48.773494	0.000000	0.000000	-0.000000	0.000000	-33.617780	7.919940	13.367760	0.013672	0.990110	-0.002075	-1.000000	-1.000000	-1.000000	-1.000000	-1.000000	-1.000000	-1.000000	146.827586	0.000000	-1.000000	-1.000000	579724.000000	1772311819.453296
-22616.145000	-30403.350000	-31300.830000	-15842.430000	0.000000	0.000000	0.000000	0.000000	-57.025429	-18.567259	21.513563	-34.709803	0.000000	0.000000	-0.000000	0.000000	-33.617780	7.919940	13.367760	0.013672	0.990110	-0.002075	-1.000000	-1.000000	-1.000000	-1.000000	-1.000000	-1.000000	-1.000000	146.827586	0.000000	-1.000000	-1.000000	579725.000000	1772311819.457075
-22402.665000	-30387.330000	-31268.430000	-15859.440000	0.000000	0.000000	0.000000	0.000000	20.643309	-7.973618	42.468120	-4.516981	0.000000	0.000000	-0.000000	0.000000	-33.617780	7.919940	13.367760	0.013672	0.990110	-0.002075	-1.000000	-1.000000	-1.000000	-1.000000	-1.000000	-1.000000	-1.000000	146.827586	0.000000	-1.000000	-1.000000	579726.000000	1772311819.457078
-22139.010000	-30378.465000	-31171.500000	-15844.095000	0.000000	0.000000	0.000000	0.000000	104.047303	2.877727	49.166742	26.542397	0.000000	0.000000	-0.000000	0.000000	-33.617780	7.919940	13.367760	0.013672	0.990110	-0.002075	-1.000000	-1.000000	-1.000000	-1.000000	-1.000000	-1.000000	-1.000000	146.827586	0.000000	-1.000000	-1.000000	579727.000000	1772311819.462312
-22098.780000	-30381.165000	-31031.640000	-15739.515000	0.000000	0.000000	0.000000	0.000000	180.559801	10.725380	47.437469	49.226079	0.000000	0.000000	-0.000000	0.000000	-33.617780	7.919940	13.367760	0.013672	0.990110	-0.002075	-1.000000	-1.000000	-1.000000	-1.000000	-1.000000	-1.000000	-1.000000	146.827586	0.000000	-1.000000	-1.000000	579728.000000	1772311819.462315
-22220.865000	-30394.395000	-31093.605000	-15820.380000	0.000000	0.000000	0.000000	0.000000	206.897126	13.222792	41.215251	60.720922	0.000000	0.000000	-0.000000	0.000000	-15.458380	2.456860	14.603820	0.004578	0.927976	0.011841	-1.000000	-1.000000	-1.000000	-1.000000	-1.000000	-1.000000	-1.000000	146.827586	0.000000	-1.000000	-1.000000	579729.000000	1772311819.465168
-22331.025000	-30400.380000	-31159.665000	-15829.695000	0.000000	0.000000	0.000000	0.000000	143.116563	9.767943	21.847808	54.700302	0.000000	0.000000	-0.000000	0.000000	-15.458380	2.456860	14.603820	0.004578	0.927976	0.011841	-1.000000	-1.000000	-1.000000	-1.000000	-1.000000	-1.000000	-1.000000	146.827586	0.000000	-1.000000	-1.000000	579730.000000	1772311819.465171
-22259.835000	-30388.905000	-31232.655000	-15766.650000	0.000000	0.000000	0.000000	0.000000	6.461678	3.208481	-18.622798	29.253707	0.000000	0.000000	-0.000000	0.000000	-15.458380	2.456860	14.603820	0.004578	0.927976	0.011841	-1.000000	-1.000000	-1.000000	-1.000000	-1.000000	-1.000000	-1.000000	146.827586	0.000000	-1.000000	-1.000000	579731.000000	1772311819.469145
-22232.115000	-30392.415000	-31344.660000	-15819.750000	0.000000	0.000000	0.000000	0.000000	-128.214973	-1.628012	-68.611721	-3.005211	0.000000	0.000000	-0.000000	0.000000	-15.458380	2.456860	14.603820	0.004578	0.927976	0.011841	-1.000000	-1.000000	-1.000000	-1.000000	-1.000000	-1.000000	-1.000000	146.827586	0.000000	-1.000000	-1.000000	579732.000000	1772311819.469147
-22299.435000	-30394.755000	-31304.880000	-15731.460000	0.000000	0.000000	0.000000	0.000000	-191.638170	-2.289457	-101.435129	-26.647536	0.000000	0.000000	-0.000000	0.000000	-15.458380	2.456860	14.603820	0.004578	0.927976	0.011841	-1.000000	-1.000000	-1.000000	-1.000000	-1.000000	-1.000000	-1.000000	146.827586	0.000000	-1.000000	-1.000000	579733.000000	1772311819.473201
-22219.785000	-30394.710000	-31253.715000	-15599.655000	0.000000	0.000000	0.000000	0.000000	-169.511809	-0.126893	-92.176081	-31.387280	0.000000	0.000000	-0.000000	0.000000	-15.458380	2.456860	14.603820	0.004578	0.927976	0.011841	-1.000000	-1.000000	-1.000000	-1.000000	-1.000000	-1.000000	-1.000000	146.827586	0.000000	-1.000000	-1.000000	579734.000000	1772311819.473204
-21868.920000	-30383.145000	-31257.360000	-15504.615000	0.000000	0.000000	0.000000	0.000000	-84.835086	2.576112	-37.481318	-13.689975	0.000000	0.000000	-0.000000	0.000000	-15.458380	2.456860	14.603820	0.004578	0.927976	0.011841	-1.000000	-1.000000	-1.000000	-1.000000	-1.000000	-1.000000	-1.000000	146.827586	0.000000	-1.000000	-1.000000	579735.000000	1772311819.479851
-21816.180000	-30376.575000	-31404.600000	-15649.155000	0.000000	0.000000	0.000000	0.000000	29.787539	4.757297	32.673585	11.280088	0.000000	0.000000	-0.000000	0.000000	-15.458380	2.456860	14.603820	0.004578	0.927976	0.011841	-1.000000	-1.000000	-1.000000	-1.000000	-1.000000	-1.000000	-1.000000	146.827586	0.000000	-1.000000	-1.000000	579736.000000	1772311819.479855
-22047.120000	-30376.890000	-31509.495000	-15820.155000	0.000000	0.000000	0.000000	0.000000	120.570154	5.838361	73.951426	11.836226	0.000000	0.000000	-0.000000	0.000000	-15.458380	2.456860	14.603820	0.004578	0.927976	0.011841	-1.000000	-1.000000	-1.000000	-1.000000	-1.000000	-1.000000	-1.000000	146.827586	0.000000	-1.000000	-1.000000	579737.000000	1772311819.481124
-22246.335000	-30368.565000	-31353.480000	-15749.370000	0.000000	0.000000	0.000000	0.000000	125.174690	5.060785	70.103558	-24.085042	0.000000	0.000000	-0.000000	0.000000	-15.458380	2.456860	14.603820	0.004578	0.927976	0.011841	-1.000000	-1.000000	-1.000000	-1.000000	-1.000000	-1.000000	-1.000000	146.827586	0.000000	-1.000000	-1.000000	579738.000000	1772311819.481127
-22482.495000	-30363.255000	-31270.185000	-15772.455000	0.000000	0.000000	0.000000	0.000000	32.596045	2.511944	48.168031	-65.447326	0.000000	0.000000	-0.000000	0.000000	7.736820	5.157880	-1.663340	0.056274	0.831236	0.059204	-1.000000	-1.000000	-1.000000	-1.000000	-1.000000	-1.000000	-1.000000	146.827586	0.000000	-1.000000	-1.000000	579739.000000	1772311819.485120
-22455.090000	-30355.830000	-31253.670000	-15820.065000	0.000000	0.000000	0.000000	0.000000	-93.552439	-0.577603	38.730133	-73.375007	0.000000	0.000000	-0.000000	0.000000	7.736820	5.157880	-1.663340	0.056274	0.831236	0.059204	-1.000000	-1.000000	-1.000000	-1.000000	-1.000000	-1.000000	-1.000000	146.827586	0.000000	-1.000000	-1.000000	579740.000000	1772311819.485123
-22473.450000	-30343.680000	-31257.990000	-15802.830000	0.000000	0.000000	0.000000	0.000000	-162.637313	-2.823165	39.299005	-41.895094	0.000000	0.000000	-0.000000	0.000000	7.736820	5.157880	-1.663340	0.056274	0.831236	0.059204	-1.000000	-1.000000	-1.000000	-1.000000	-1.000000	-1.000000	-1.000000	146.827586	0.000000	-1.000000	-1.000000	579741.000000	1772311819.508402
-22202.505000	-30310.020000	-31184.550000	-15768.585000	0.000000	0.000000	0.000000	0.000000	-123.235441	-2.994748	30.718166	9.318056	0.000000	0.000000	-0.000000	0.000000	7.736820	5.157880	-1.663340	0.056274	0.831236	0.059204	-1.000000	-1.000000	-1.000000	-1.000000	-1.000000	-1.000000	-1.000000	146.827586	0.000000	-1.000000	-1.000000	579742.000000	1772311819.508407
-21986.505000	-30291.660000	-31173.255000	-15811.470000	0.000000	0.000000	0.000000	0.000000	8.638626	-0.456005	7.235411	55.886106	0.000000	0.000000	-0.000000	0.000000	7.736820	5.157880	-1.663340	0.056274	0.831236	0.059204	-1.000000	-1.000000	-1.000000	-1.000000	-1.000000	-1.000000	-1.000000	146.827586	0.000000	-1.000000	-1.000000	579743.000000	1772311819.508412
-22100.715000	-30297.150000	-31206.735000	-15837.660000	0.000000	0.000000	0.000000	0.000000	158.490366	2.905702	-23.098621	77.260457	-0.000000	0.000000	-0.000000	0.000000	7.736820	5.157880	-1.663340	0.056274	0.831236	0.059204	-1.000000	-1.000000	-1.000000	-1.000000	-1.000000	-1.000000	-1.000000	146.827586	0.000000	-1.000000	-1.000000	579744.000000	1772311819.508415
-22028.625000	-30277.035000	-31165.785000	-15739.155000	0.000000	0.000000	0.000000	0.000000	232.643615	3.387168	-50.067111	67.858955	-0.000000	0.000000	-0.000000	0.000000	7.736820	5.157880	-1.663340	0.056274	0.831236	0.059204	-1.000000	-1.000000	-1.000000	-1.000000	-1.000000	-1.000000	-1.000000	146.827586	0.000000	-1.000000	-1.000000	579745.000000	1772311819.508418
-21890.025000	-30260.880000	-31185.405000	-15701.310000	0.000000	0.000000	0.000000	0.000000	190.581639	0.124395	-63.861479	42.368349	-0.000000	0.000000	-0.000000	0.000000	7.736820	5.157880	-1.663340	0.056274	0.831236	0.059204	-1.000000	-1.000000	-1.000000	-1.000000	-1.000000	-1.000000	-1.000000	146.827586	0.000000	-1.000000	-1.000000	579746.000000	1772311819.508420
-21883.230000	-30251.115000	-31256.820000	-15752.520000	0.000000	0.000000	0.000000	0.000000	72.479076	-4.043758	-60.507030	16.979431	-0.000000	0.000000	-0.000000	0.000000	7.736820	5.157880	-1.663340	0.056274	0.831236	0.059204	-1.000000	-1.000000	-1.000000	-1.000000	-1.000000	-1.000000	-1.000000	146.827586	0.000000	-1.000000	-1.000000	579747.000000	1772311819.508423
-22034.925000	-30240.450000	-31281.930000	-15808.455000	0.000000	0.000000	0.000000	0.000000	-56.474520	-6.503317	-45.905385	-7.364829	-0.000000	0.000000	-0.000000	0.000000	7.736820	5.157880	-1.663340	0.056274	0.831236	0.059204	-1.000000	-1.000000	-1.000000	-1.000000	-1.000000	-1.000000	-1.000000	146.827586	0.000000	-1.000000	-1.000000	579748.000000	1772311819.508426
-22142.970000	-30225.195000	-31263.390000	-15758.595000	0.000000	0.000000	0.000000	0.000000	-155.900323	-6.578734	-26.038114	-32.593955	-0.000000	0.000000	-0.000000	0.000000	27.406960	7.614740	-7.217980	0.054626	0.823789	0.056213	-1.000000	-1.000000	-1.000000	-1.000000	-1.000000	-1.000000	-1.000000	146.827586	0.000000	-1.000000	-1.000000	579749.000000	1772311819.508429
-22171.680000	-30203.505000	-31191.840000	-15668.145000	0.000000	0.000000	0.000000	0.000000	-205.002672	-4.467958	-0.048243	-47.541170	-0.000000	0.000000	-0.000000	0.000000	27.406960	7.614740	-7.217980	0.054626	0.823789	0.056213	-1.000000	-1.000000	-1.000000	-1.000000	-1.000000	-1.000000	-1.000000	146.827586	0.000000	-1.000000	-1.000000	579750.000000	1772311819.508432
-22071.375000	-30174.705000	-31187.205000	-15650.685000	0.000000	0.000000	0.000000	0.000000	-187.757144	-0.571171	31.520171	-39.139440	-0.000000	0.000000	-0.000000	0.000000	27.406960	7.614740	-7.217980	0.054626	0.823789	0.056213	-1.000000	-1.000000	-1.000000	-1.000000	-1.000000	-1.000000	-1.000000	146.827586	0.000000	-1.000000	-1.000000	579751.000000	1772311819.509534
-21966.255000	-30157.830000	-31261.365000	-15711.480000	0.000000	0.000000	0.000000	0.000000	-102.471387	4.032672	56.344803	-14.034792	-0.000000	0.000000	-0.000000	0.000000	27.406960	7.614740	-7.217980	0.054626	0.823789	0.056213	-1.000000	-1.000000	-1.000000	-1.000000	-1.000000	-1.000000	-1.000000	146.827586	0.000000	-1.000000	-1.000000	579752.000000	1772311819.509538
-21918.870000	-30178.710000	-31331.340000	-15788.655000	0.000000	0.000000	0.000000	0.000000	21.255846	6.483224	56.355238	4.292221	-0.000000	0.000000	-0.000000	0.000000	27.406960	7.614740	-7.217980	0.054626	0.823789	0.056213	-1.000000	-1.000000	-1.000000	-1.000000	-1.000000	-1.000000	-1.000000	146.827586	0.000000	-1.000000	-1.000000	579753.000000	1772311819.513297
-21734.280000	-30178.890000	-31314.735000	-15784.605000	0.000000	0.000000	0.000000	0.000000	131.402699	3.461243	28.631210	1.526893	-0.000000	0.000000	-0.000000	0.000000	27.406960	7.614740	-7.217980	0.054626	0.823789	0.056213	-1.000000	-1.000000	-1.000000	-1.000000	-1.000000	-1.000000	-1.000000	146.827586	0.000000	-1.000000	-1.000000	579754.000000	1772311819.513301
-21573.855000	-30152.655000	-31179.105000	-15689.790000	0.000000	0.000000	0.000000	0.000000	187.693287	-3.832622	-4.556074	-10.977808	-0.000000	0.000000	-0.000000	0.000000	27.406960	7.614740	-7.217980	0.054626	0.823789	0.056213	-1.000000	-1.000000	-1.000000	-1.000000	-1.000000	-1.000000	-1.000000	146.827586	0.000000	-1.000000	-1.000000	579755.000000	1772311819.517294
-21756.465000	-30156.390000	-31195.845000	-15755.670000	0.000000	0.000000	0.000000	0.000000	174.303008	-9.300208	-16.207855	-12.259053	-0.000000	0.000000	-0.000000	0.000000	27.406960	7.614740	-7.217980	0.054626	0.823789	0.056213	-1.000000	-1.000000	-1.000000	-1.000000	-1.000000	-1.000000	-1.000000	146.827586	0.000000	-1.000000	-1.000000	579756.000000	1772311819.517297
-22376.115000	-30189.690000	-31224.960000	-15788.295000	0.000000	0.000000	0.000000	0.000000	81.084358	-9.660376	-5.168368	0.015462	-0.000000	0.000000	-0.000000	0.000000	27.406960	7.614740	-7.217980	0.054626	0.823789	0.056213	-1.000000	-1.000000	-1.000000	-1.000000	-1.000000	-1.000000	-1.000000	146.827586	0.000000	-1.000000	-1.000000	579757.000000	1772311819.523288
-22534.560000	-30201.705000	-31349.205000	-15889.590000	0.000000	0.000000	0.000000	0.000000	-81.601336	-7.675787	4.679931	10.019741	-0.000000	0.000000	-0.000000	0.000000	27.406960	7.614740	-7.217980	0.054626	0.823789	0.056213	-1.000000	-1.000000	-1.000000	-1.000000	-1.000000	-1.000000	-1.000000	146.827586	0.000000	-1.000000	-1.000000	579758.000000	1772311819.523292
-22242.150000	-30198.555000	-31339.260000	-15876.765000	0.000000	0.000000	0.000000	0.000000	-232.044666	-5.792441	-4.778004	7.390345	-0.000000	0.000000	-0.000000	0.000000	24.065020	10.025820	4.242280	0.021057	0.929990	0.048462	-1.000000	-1.000000	-1.000000	-1.000000	-1.000000	-1.000000	-1.000000	146.827586	0.000000	-1.000000	-1.000000	579759.000000	1772311819.527358
-22095.855000	-30173.985000	-31280.220000	-15828.345000	0.000000	0.000000	0.000000	0.000000	-251.258751	-2.077649	-24.217392	-0.040362	-0.000000	0.000000	-0.000000	0.000000	24.065020	10.025820	4.242280	0.021057	0.929990	0.048462	-1.000000	-1.000000	-1.000000	-1.000000	-1.000000	-1.000000	-1.000000	146.827586	0.000000	-1.000000	-1.000000	579760.000000	1772311819.527361
-22025.925000	-30142.890000	-31169.430000	-15764.220000	0.000000	0.000000	0.000000	0.000000	-107.504488	6.099687	-27.930195	3.488320	-0.000000	0.000000	-0.000000	0.000000	24.065020	10.025820	4.242280	0.021057	0.929990	0.048462	-1.000000	-1.000000	-1.000000	-1.000000	-1.000000	-1.000000	-1.000000	146.827586	0.000000	-1.000000	-1.000000	579761.000000	1772311819.529363
-21980.475000	-30144.825000	-31167.270000	-15733.395000	0.000000	0.000000	0.000000	0.000000	103.147366	16.811155	-4.649137	21.739092	-0.000000	0.000000	-0.000000	0.000000	24.065020	10.025820	4.242280	0.021057	0.929990	0.048462	-1.000000	-1.000000	-1.000000	-1.000000	-1.000000	-1.000000	-1.000000	146.827586	0.000000	-1.000000	-1.000000	579762.000000	1772311819.529366
-22029.705000	-30162.420000	-31277.880000	-15804.585000	0.000000	0.000000	0.000000	0.000000	247.812142	22.849116	26.212286	39.511147	-0.000000	0.000000	-0.000000	0.000000	24.065020	10.025820	4.242280	0.021057	0.929990	0.048462	-1.000000	-1.000000	-1.000000	-1.000000	-1.000000	-1.000000	-1.000000	146.827586	0.000000	-1.000000	-1.000000	579763.000000	1772311819.533195
-22052.430000	-30160.755000	-31268.160000	-15792.750000	0.000000	0.000000	0.000000	0.000000	254.722443	18.060551	34.420205	37.014871	-0.000000	0.000000	-0.000000	0.000000	24.065020	10.025820	4.242280	0.021057	0.929990	0.048462	-1.000000	-1.000000	-1.000000	-1.000000	-1.000000	-1.000000	-1.000000	146.827586	0.000000	-1.000000	-1.000000	579764.000000	1772311819.533198
-22015.080000	-30146.760000	-31281.975000	-15807.465000	0.000000	0.000000	0.000000	0.000000	143.304902	4.617063	13.476973	11.390775	-0.000000	0.000000	-0.000000	0.000000	24.065020	10.025820	4.242280	0.021057	0.929990	0.048462	-1.000000	-1.000000	-1.000000	-1.000000	-1.000000	-1.000000	-1.000000	146.827586	0.000000	-1.000000	-1.000000	579765.000000	1772311819.538803
-21903.795000	-30130.830000	-31313.250000	-15797.070000	0.000000	0.000000	0.000000	0.000000	-5.906914	-8.539808	-16.692733	-20.829758	-0.000000	0.000000	-0.000000	0.000000	24.065020	10.025820	4.242280	0.021057	0.929990	0.048462	-1.000000	-1.000000	-1.000000	-1.000000	-1.000000	-1.000000	-1.000000	146.827586	0.000000	-1.000000	-1.000000	579766.000000	1772311819.538806
-21821.535000	-30126.240000	-31323.195000	-15768.855000	0.000000	0.000000	0.000000	0.000000	-111.222284	-14.190367	-35.111116	-40.289053	-0.000000	0.000000	-0.000000	0.000000	24.065020	10.025820	4.242280	0.021057	0.929990	0.048462	-1.000000	-1.000000	-1.000000	-1.000000	-1.000000	-1.000000	-1.000000	146.827586	0.000000	-1.000000	-1.000000	579767.000000	1772311819.541384
-21888.315000	-30137.490000	-31302.765000	-15740.415000	0.000000	0.000000	0.000000	0.000000	-140.041397	-12.280929	-33.335012	-37.938197	-0.000000	0.000000	-0.000000	0.000000	24.065020	10.025820	4.242280	0.021057	0.929990	0.048462	-1.000000	-1.000000	-1.000000	-1.000000	-1.000000	-1.000000	-1.000000	146.827586	0.000000	-1.000000	-1.000000	579768.000000	1772311819.541387
-22112.775000	-30139.605000	-31275.765000	-15726.645000	0.000000	0.000000	0.000000	0.000000	-118.193630	-7.726007	-13.722512	-18.377792	-0.000000	0.000000	-0.000000	0.000000	0.320460	7.004340	6.348160	0.025268	1.037473	0.045105	-1.000000	-1.000000	-1.000000	-1.000000	-1.000000	-1.000000	-1.000000	146.827586	0.000000	-1.000000	-1.000000	579769.000000	1772311819.549059
-22072.860000	-30128.355000	-31210.065000	-15665.220000	0.000000	0.000000	0.000000	0.000000	-89.318719	-4.240554	14.517618	5.676706	-0.000000	0.000000	-0.000000	0.000000	0.320460	7.004340	6.348160	0.025268	1.037473	0.045105	-1.000000	-1.000000	-1.000000	-1.000000	-1.000000	-1.000000	-1.000000	146.827586	0.000000	-1.000000	-1.000000	579770.000000	1772311819.549062
-21854.880000	-30118.635000	-31196.610000	-15657.930000	0.000000	0.000000	0.000000	0.000000	-61.474772	-1.580502	39.167408	22.880985	-0.000000	0.000000	-0.000000	0.000000	0.320460	7.004340	6.348160	0.025268	1.037473	0.045105	-1.000000	-1.000000	-1.000000	-1.000000	-1.000000	-1.000000	-1.000000	146.827586	0.000000	-1.000000	-1.000000	579771.000000	1772311819.549067
-21756.285000	-30109.365000	-31215.240000	-15684.030000	0.000000	0.000000	0.000000	0.000000	-11.812573	1.682925	47.933042	26.195635	-0.000000	0.000000	-0.000000	0.000000	0.320460	7.004340	6.348160	0.025268	1.037473	0.045105	-1.000000	-1.000000	-1.000000	-1.000000	-1.000000	-1.000000	-1.000000	146.827586	0.000000	-1.000000	-1.000000	579772.000000	1772311819.549069
-21698.190000	-30099.870000	-31238.460000	-15665.130000	0.000000	0.000000	0.000000	0.000000	59.512604	5.258058	33.755685	13.977228	-0.000000	0.000000	-0.000000	0.000000	0.320460	7.004340	6.348160	0.025268	1.037473	0.045105	-1.000000	-1.000000	-1.000000	-1.000000	-1.000000	-1.000000	-1.000000	146.827586	0.000000	-1.000000	-1.000000	579773.000000	1772311819.553377
-21904.470000	-30085.470000	-31330.305000	-15677.055000	0.000000	0.000000	0.000000	0.000000	110.828833	7.627175	0.542303	-6.505680	-0.000000	0.000000	-0.000000	0.000000	0.320460	7.004340	6.348160	0.025268	1.037473	0.045105	-1.000000	-1.000000	-1.000000	-1.000000	-1.000000	-1.000000	-1.000000	146.827586	0.000000	-1.000000	-1.000000	579774.000000	1772311819.553380
-21671.865000	-30045.690000	-31268.745000	-15673.140000	0.000000	0.000000	0.000000	0.000000	103.704427	8.268134	-36.288701	-23.312380	-0.000000	0.000000	-0.000000	0.000000	0.320460	7.004340	6.348160	0.025268	1.037473	0.045105	-1.000000	-1.000000	-1.000000	-1.000000	-1.000000	-1.000000	-1.000000	146.827586	0.000000	-1.000000	-1.000000	579775.000000	1772311819.557398
-21748.455000	-29992.140000	-31131.675000	-15670.305000	0.000000	0.000000	0.000000	0.000000	48.883607	8.719577	-52.934777	-28.552864	-0.000000	0.000000	-0.000000	0.000000	0.320460	7.004340	6.348160	0.025268	1.037473	0.045105	-1.000000	-1.000000	-1.000000	-1.000000	-1.000000	-1.000000	-1.000000	146.827586	0.000000	-1.000000	-1.000000	579776.000000	1772311819.557401
-22319.235000	-29992.140000	-31124.430000	-15786.000000	0.000000	0.000000	0.000000	0.000000	-23.992348	9.664530	-33.932720	-23.531114	-0.000000	0.000000	-0.000000	0.000000	0.320460	7.004340	6.348160	0.025268	1.037473	0.045105	-1.000000	-1.000000	-1.000000	-1.000000	-1.000000	-1.000000	-1.000000	146.827586	0.000000	-1.000000	-1.000000	579777.000000	1772311819.561432
-22170.330000	-29997.720000	-31195.215000	-15884.595000	0.000000	0.000000	0.000000	0.000000	-101.492099	7.532286	5.455794	-18.271448	-0.000000	0.000000	-0.000000	0.000000	0.320460	7.004340	6.348160	0.025268	1.037473	0.045105	-1.000000	-1.000000	-1.000000	-1.000000	-1.000000	-1.000000	-1.000000	146.827586	0.000000	-1.000000	-1.000000	579778.000000	1772311819.561436
-21877.965000	-30001.095000	-31174.380000	-15751.170000	0.000000	0.000000	0.000000	0.000000	-143.618693	-1.498416	31.287007	-16.168533	-0.000000	0.000000	-0.000000	0.000000	-4.089680	1.419180	8.499820	0.023437	1.048276	0.074524	-1.000000	-1.000000	-1.000000	-1.000000	-1.000000	-1.000000	-1.000000	146.827586	0.000000	-1.000000	-1.000000	579779.000000	1772311819.565395
-21600.855000	-29993.310000	-31229.505000	-15736.005000	0.000000	0.000000	0.000000	0.000000	-90.883189	-14.777880	26.858620	-4.329759	-0.000000	0.000000	-0.000000	0.000000	-4.089680	1.419180	8.499820	0.023437	1.048276	0.074524	-1.000000	-1.000000	-1.000000	-1.000000	-1.000000	-1.000000	-1.000000	146.827586	0.000000	-1.000000	-1.000000	579780.000000	1772311819.565398
-21667.005000	-29981.115000	-31292.865000	-15681.465000	0.000000	0.000000	0.000000	0.000000	45.129648	-24.296447	0.984333	24.544645	-0.000000	0.000000	-0.000000	0.000000	-4.089680	1.419180	8.499820	0.023437	1.048276	0.074524	-1.000000	-1.000000	-1.000000	-1.000000	-1.000000	-1.000000	-1.000000	146.827586	0.000000	-1.000000	-1.000000	579781.000000	1772311819.569436
-21893.760000	-29973.645000	-31300.785000	-15659.055000	0.000000	0.000000	0.000000	0.000000	163.786919	-23.826193	-27.510387	55.811940	-0.000000	0.000000	-0.000000	0.000000	-4.089680	1.419180	8.499820	0.023437	1.048276	0.074524	-1.000000	-1.000000	-1.000000	-1.000000	-1.000000	-1.000000	-1.000000	146.827586	0.000000	-1.000000	-1.000000	579782.000000	1772311819.569439
-21927.555000	-29962.440000	-31375.215000	-15757.020000	0.000000	0.000000	0.000000	0.000000	170.456476	-13.679660	-41.838340	66.126374	-0.000000	0.000000	-0.000000	0.000000	-4.089680	1.419180	8.499820	0.023437	1.048276	0.074524	-1.000000	-1.000000	-1.000000	-1.000000	-1.000000	-1.000000	-1.000000	146.827586	0.000000	-1.000000	-1.000000	579783.000000	1772311819.573514
-21990.555000	-29951.820000	-31288.320000	-15815.520000	0.000000	0.000000	0.000000	0.000000	66.895971	0.576828	-33.873891	41.689227	-0.000000	0.000000	-0.000000	0.000000	-4.089680	1.419180	8.499820	0.023437	1.048276	0.074524	-1.000000	-1.000000	-1.000000	-1.000000	-1.000000	-1.000000	-1.000000	146.827586	0.000000	-1.000000	-1.000000	579784.000000	1772311819.573516
-22334.355000	-29964.555000	-31096.620000	-15676.875000	0.000000	0.000000	0.000000	0.000000	-70.348529	12.094944	-1.833290	-5.648897	-0.000000	0.000000	-0.000000	0.000000	-4.089680	1.419180	8.499820	0.023437	1.048276	0.074524	-1.000000	-1.000000	-1.000000	-1.000000	-1.000000	-1.000000	-1.000000	146.827586	0.000000	-1.000000	-1.000000	579785.000000	1772311819.577340
-22277.520000	-29985.615000	-31160.790000	-15650.910000	0.000000	0.000000	0.000000	0.000000	-167.192481	15.653457	45.881648	-41.344296	-0.000000	0.000000	-0.000000	0.000000	-4.089680	1.419180	8.499820	0.023437	1.048276	0.074524	-1.000000	-1.000000	-1.000000	-1.000000	-1.000000	-1.000000	-1.000000	146.827586	0.000000	-1.000000	-1.000000	579786.000000	1772311819.577343
-21999.015000	-29987.460000	-31272.300000	-15820.785000	0.000000	0.000000	0.000000	0.000000	-174.635786	10.457335	78.339288	-46.353376	-0.000000	0.000000	-0.000000	0.000000	-4.089680	1.419180	8.499820	0.023437	1.048276	0.074524	-1.000000	-1.000000	-1.000000	-1.000000	-1.000000	-1.000000	-1.000000	146.827586	0.000000	-1.000000	-1.000000	579787.000000	1772311819.583399
-22044.375000	-29990.565000	-31379.220000	-15929.730000	0.000000	0.000000	0.000000	0.000000	-79.859470	1.395090	62.314759	-38.121427	-0.000000	0.000000	-0.000000	0.000000	-4.089680	1.419180	8.499820	0.023437	1.048276	0.074524	-1.000000	-1.000000	-1.000000	-1.000000	-1.000000	-1.000000	-1.000000	146.827586	0.000000	-1.000000	-1.000000	579788.000000	1772311819.583402
-22097.655000	-29996.010000	-31305.645000	-15783.165000	0.000000	0.000000	0.000000	0.000000	61.513745	-4.905168	3.447929	-34.253358	-0.000000	0.000000	-0.000000	0.000000	9.827440	1.464960	6.302380	0.040954	0.981504	0.084472	-1.000000	-1.000000	-1.000000	-1.000000	-1.000000	-1.000000	-1.000000	146.827586	0.000000	-1.000000	-1.000000	579789.000000	1772311819.585471
-22012.920000	-29990.115000	-31235.265000	-15669.135000	0.000000	0.000000	0.000000	0.000000	159.931100	-5.234659	-52.479014	-21.603901	-0.000000	0.000000	-0.000000	0.000000	9.827440	1.464960	6.302380	0.040954	0.981504	0.084472	-1.000000	-1.000000	-1.000000	-1.000000	-1.000000	-1.000000	-1.000000	146.827586	0.000000	-1.000000	-1.000000	579790.000000	1772311819.585473
-21816.360000	-29961.990000	-31230.045000	-15706.305000	0.000000	0.000000	0.000000	0.000000	174.089842	-0.142629	-64.932121	13.545466	-0.000000	0.000000	-0.000000	0.000000	9.827440	1.464960	6.302380	0.040954	0.981504	0.084472	-1.000000	-1.000000	-1.000000	-1.000000	-1.000000	-1.000000	-1.000000	146.827586	0.000000	-1.000000	-1.000000	579791.000000	1772311819.590207
-21789.855000	-29937.240000	-31200.795000	-15705.810000	0.000000	0.000000	0.000000	0.000000	125.777191	8.102219	-34.540305	52.160140	-0.000000	0.000000	-0.000000	0.000000	9.827440	1.464960	6.302380	0.040954	0.981504	0.084472	-1.000000	-1.000000	-1.000000	-1.000000	-1.000000	-1.000000	-1.000000	146.827586	0.000000	-1.000000	-1.000000	579792.000000	1772311819.590209
-21749.130000	-29922.165000	-31194.990000	-15731.280000	0.000000	0.000000	0.000000	0.000000	51.464270	15.731904	8.471509	63.631899	-0.000000	0.000000	-0.000000	0.000000	9.827440	1.464960	6.302380	0.040954	0.981504	0.084472	-1.000000	-1.000000	-1.000000	-1.000000	-1.000000	-1.000000	-1.000000	146.827586	0.000000	-1.000000	-1.000000	579793.000000	1772311819.593417
-21806.055000	-29914.515000	-31172.355000	-15664.815000	0.000000	0.000000	0.000000	0.000000	-26.587430	18.007829	35.820739	41.210910	-0.000000	0.000000	-0.000000	0.000000	9.827440	1.464960	6.302380	0.040954	0.981504	0.084472	-1.000000	-1.000000	-1.000000	-1.000000	-1.000000	-1.000000	-1.000000	146.827586	0.000000	-1.000000	-1.000000	579794.000000	1772311819.593419
-22105.215000	-29902.050000	-31217.895000	-15557.715000	0.000000	0.000000	0.000000	0.000000	-99.051098	12.384549	36.460289	5.979046	-0.000000	0.000000	-0.000000	0.000000	9.827440	1.464960	6.302380	0.040954	0.981504	0.084472	-1.000000	-1.000000	-1.000000	-1.000000	-1.000000	-1.000000	-1.000000	146.827586	0.000000	-1.000000	-1.000000	579795.000000	1772311819.597588
-22208.805000	-29886.435000	-31278.420000	-15539.940000	0.000000	0.000000	0.000000	0.000000	-159.997143	1.131818	14.070700	-16.583901	-0.000000	0.000000	-0.000000	0.000000	9.827440	1.464960	6.302380	0.040954	0.981504	0.084472	-1.000000	-1.000000	-1.000000	-1.000000	-1.000000	-1.000000	-1.000000	146.827586	0.000000	-1.000000	-1.000000	579796.000000	1772311819.597591
-22011.075000	-29860.380000	-31309.065000	-15790.860000	0.000000	0.000000	0.000000	0.000000	-184.821119	-9.929107	-18.650208	-25.453554	-0.000000	0.000000	-0.000000	0.000000	9.827440	1.464960	6.302380	0.040954	0.981504	0.084472	-1.000000	-1.000000	-1.000000	-1.000000	-1.000000	-1.000000	-1.000000	146.827586	0.000000	-1.000000	-1.000000	579797.000000	1772311819.601446
-21854.340000	-29839.455000	-31268.745000	-15813.630000	0.000000	0.000000	0.000000	0.000000	-134.955365	-15.471701	-42.890279	-40.392276	-0.000000	0.000000	-0.000000	0.000000	9.827440	1.464960	6.302380	0.040954	0.981504	0.084472	-1.000000	-1.000000	-1.000000	-1.000000	-1.000000	-1.000000	-1.000000	146.827586	0.000000	-1.000000	-1.000000	579798.000000	1772311819.601449
-21943.080000	-29822.715000	-31265.460000	-15726.915000	0.000000	0.000000	0.000000	0.000000	-13.597712	-14.153377	-42.543259	-61.411910	-0.000000	0.000000	-0.000000	0.000000	24.553340	2.685760	6.058220	0.053223	0.945249	0.067871	-1.000000	-1.000000	-1.000000	-1.000000	-1.000000	-1.000000	-1.000000	146.827586	0.000000	-1.000000	-1.000000	579799.000000	1772311819.605544
-21831.570000	-29816.280000	-31232.475000	-15746.220000	0.000000	0.000000	0.000000	0.000000	113.899202	-8.915259	-17.120267	-61.086216	-0.000000	0.000000	-0.000000	0.000000	24.553340	2.685760	6.058220	0.053223	0.945249	0.067871	-1.000000	-1.000000	-1.000000	-1.000000	-1.000000	-1.000000	-1.000000	146.827586	0.000000	-1.000000	-1.000000	579800.000000	1772311819.605547
-21836.655000	-29826.180000	-31257.765000	-15896.295000	0.000000	0.000000	0.000000	0.000000	179.344242	-4.395784	17.189789	-29.289819	-0.000000	0.000000	-0.000000	0.000000	24.553340	2.685760	6.058220	0.053223	0.945249	0.067871	-1.000000	-1.000000	-1.000000	-1.000000	-1.000000	-1.000000	-1.000000	146.827586	0.000000	-1.000000	-1.000000	579801.000000	1772311819.609594
-21955.815000	-29834.280000	-31229.910000	-15858.045000	0.000000	0.000000	0.000000	0.000000	160.079818	-3.705310	40.463845	11.206687	-0.000000	0.000000	-0.000000	0.000000	24.553340	2.685760	6.058220	0.053223	0.945249	0.067871	-1.000000	-1.000000	-1.000000	-1.000000	-1.000000	-1.000000	-1.000000	146.827586	0.000000	-1.000000	-1.000000	579802.000000	1772311819.609597
-21941.955000	-29841.525000	-31230.990000	-15819.120000	0.000000	0.000000	0.000000	0.000000	75.516919	-6.291641	43.037380	40.116087	-0.000000	0.000000	-0.000000	0.000000	24.553340	2.685760	6.058220	0.053223	0.945249	0.067871	-1.000000	-1.000000	-1.000000	-1.000000	-1.000000	-1.000000	-1.000000	146.827586	0.000000	-1.000000	-1.000000	579803.000000	1772311819.614258
-21902.040000	-29831.040000	-31218.390000	-15793.065000	0.000000	0.000000	0.000000	0.000000	-25.845024	-8.360637	28.541021	56.698338	-0.000000	0.000000	-0.000000	0.000000	24.553340	2.685760	6.058220	0.053223	0.945249	0.067871	-1.000000	-1.000000	-1.000000	-1.000000	-1.000000	-1.000000	-1.000000	146.827586	0.000000	-1.000000	-1.000000	579804.000000	1772311819.614261
-21787.470000	-29823.030000	-31205.160000	-15799.230000	0.000000	0.000000	0.000000	0.000000	-89.745389	-5.953619	7.239994	62.716473	-0.000000	0.000000	-0.000000	0.000000	24.553340	2.685760	6.058220	0.053223	0.945249	0.067871	-1.000000	-1.000000	-1.000000	-1.000000	-1.000000	-1.000000	-1.000000	146.827586	0.000000	-1.000000	-1.000000	579805.000000	1772311819.617505
-21616.380000	-29819.025000	-31157.460000	-15756.120000	0.000000	0.000000	0.000000	0.000000	-88.447667	1.438531	-10.237509	54.994710	-0.000000	0.000000	-0.000000	0.000000	24.553340	2.685760	6.058220	0.053223	0.945249	0.067871	-1.000000	-1.000000	-1.000000	-1.000000	-1.000000	-1.000000	-1.000000	146.827586	0.000000	-1.000000	-1.000000	579806.000000	1772311819.617508
-21762.495000	-29818.665000	-31157.505000	-15673.230000	0.000000	0.000000	0.000000	0.000000	-38.394530	10.069733	-17.548490	35.226038	-0.000000	0.000000	-0.000000	0.000000	24.553340	2.685760	6.058220	0.053223	0.945249	0.067871	-1.000000	-1.000000	-1.000000	-1.000000	-1.000000	-1.000000	-1.000000	146.827586	0.000000	-1.000000	-1.000000	579807.000000	1772311819.625854
-21944.250000	-29797.245000	-31340.655000	-15774.930000	0.000000	0.000000	0.000000	0.000000	7.475312	15.429774	-19.561536	9.949511	-0.000000	0.000000	-0.000000	0.000000	24.553340	2.685760	6.058220	0.053223	0.945249	0.067871	-1.000000	-1.000000	-1.000000	-1.000000	-1.000000	-1.000000	-1.000000	146.827586	0.000000	-1.000000	-1.000000	579808.000000	1772311819.625857
-21952.080000	-29767.455000	-31317.975000	-15765.120000	0.000000	0.000000	0.000000	0.000000	6.756410	16.305586	-27.468056	-18.504558	-0.000000	0.000000	-0.000000	0.000000	22.828960	4.913720	6.454980	0.059143	0.960691	0.042480	-1.000000	-1.000000	-1.000000	-1.000000	-1.000000	-1.000000	-1.000000	146.827586	0.000000	-1.000000	-1.000000	579809.000000	1772311819.625860
-22115.070000	-29769.660000	-31376.655000	-15812.775000	0.000000	0.000000	0.000000	0.000000	-30.869910	13.946756	-38.947908	-46.836576	-0.000000	0.000000	-0.000000	0.000000	22.828960	4.913720	6.454980	0.059143	0.960691	0.042480	-1.000000	-1.000000	-1.000000	-1.000000	-1.000000	-1.000000	-1.000000	146.827586	0.000000	-1.000000	-1.000000	579810.000000	1772311819.625862
-21878.055000	-29760.750000	-31286.385000	-15775.830000	0.000000	0.000000	0.000000	0.000000	-60.181845	8.661670	-37.132034	-63.796515	-0.000000	0.000000	-0.000000	0.000000	22.828960	4.913720	6.454980	0.059143	0.960691	0.042480	-1.000000	-1.000000	-1.000000	-1.000000	-1.000000	-1.000000	-1.000000	146.827586	0.000000	-1.000000	-1.000000	579811.000000	1772311819.629579
-21929.940000	-29750.265000	-31314.195000	-15827.895000	0.000000	0.000000	0.000000	0.000000	-43.309862	0.687482	-12.114646	-59.504945	-0.000000	0.000000	-0.000000	0.000000	22.828960	4.913720	6.454980	0.059143	0.960691	0.042480	-1.000000	-1.000000	-1.000000	-1.000000	-1.000000	-1.000000	-1.000000	146.827586	0.000000	-1.000000	-1.000000	579812.000000	1772311819.629582
-22161.015000	-29750.040000	-31305.555000	-15855.210000	0.000000	0.000000	0.000000	0.000000	11.215130	-7.630999	25.596101	-36.746228	-0.000000	0.000000	-0.000000	0.000000	22.828960	4.913720	6.454980	0.059143	0.960691	0.042480	-1.000000	-1.000000	-1.000000	-1.000000	-1.000000	-1.000000	-1.000000	146.827586	0.000000	-1.000000	-1.000000	579813.000000	1772311819.633549
-22145.040000	-29737.170000	-31225.725000	-15792.705000	0.000000	0.000000	0.000000	0.000000	54.665620	-13.235809	55.209584	-6.727946	-0.000000	0.000000	-0.000000	0.000000	22.828960	4.913720	6.454980	0.059143	0.960691	0.042480	-1.000000	-1.000000	-1.000000	-1.000000	-1.000000	-1.000000	-1.000000	146.827586	0.000000	-1.000000	-1.000000	579814.000000	1772311819.633551
-22055.715000	-29727.450000	-31287.240000	-15822.045000	0.000000	0.000000	0.000000	0.000000	61.203560	-14.177282	63.508373	21.738013	-0.000000	0.000000	-0.000000	0.000000	22.828960	4.913720	6.454980	0.059143	0.960691	0.042480	-1.000000	-1.000000	-1.000000	-1.000000	-1.000000	-1.000000	-1.000000	146.827586	0.000000	-1.000000	-1.000000	579815.000000	1772311819.637619
-21990.105000	-29719.080000	-31261.230000	-15792.165000	0.000000	0.000000	0.000000	0.000000	50.425654	-10.425783	47.679100	41.733478	-0.000000	0.000000	-0.000000	0.000000	22.828960	4.913720	6.454980	0.059143	0.960691	0.042480	-1.000000	-1.000000	-1.000000	-1.000000	-1.000000	-1.000000	-1.000000	146.827586	0.000000	-1.000000	-1.000000	579816.000000	1772311819.637621
-21923.640000	-29713.365000	-31217.130000	-15759.945000	0.000000	0.000000	0.000000	0.000000	45.410587	-4.145277	15.647018	47.949529	-0.000000	0.000000	-0.000000	0.000000	22.828960	4.913720	6.454980	0.059143	0.960691	0.042480	-1.000000	-1.000000	-1.000000	-1.000000	-1.000000	-1.000000	-1.000000	146.827586	0.000000	-1.000000	-1.000000	579817.000000	1772311819.641665
-21932.640000	-29726.730000	-31217.130000	-15758.460000	0.000000	0.000000	0.000000	0.000000	44.863324	1.282301	-15.519260	40.839868	-0.000000	0.000000	-0.000000	0.000000	22.828960	4.913720	6.454980	0.059143	0.960691	0.042480	-1.000000	-1.000000	-1.000000	-1.000000	-1.000000	-1.000000	-1.000000	146.827586	0.000000	-1.000000	-1.000000	579818.000000	1772311819.641669
-21911.490000	-29722.275000	-31227.705000	-15761.340000	0.000000	0.000000	0.000000	0.000000	33.726791	3.268426	-33.843299	23.925766	-0.000000	0.000000	-0.000000	0.000000	8.026760	3.174080	4.928980	0.062988	0.986936	0.027710	-1.000000	-1.000000	-1.000000	-1.000000	-1.000000	-1.000000	-1.000000	146.482759	0.000000	-1.000000	-1.000000	579819.000000	1772311819.645674
-21802.680000	-29715.255000	-31201.470000	-15734.340000	0.000000	0.000000	0.000000	0.000000	6.854848	2.231229	-38.489137	2.130300	-0.000000	0.000000	-0.000000	0.000000	8.026760	3.174080	4.928980	0.062988	0.986936	0.027710	-1.000000	-1.000000	-1.000000	-1.000000	-1.000000	-1.000000	-1.000000	146.482759	0.000000	-1.000000	-1.000000	579820.000000	1772311819.645678
