Channel1	Channel2	Channel3	Channel4	Channel5	Channel6	Channel7	Channel8	FilteredChannel1	FilteredChannel2	FilteredChannel3	FilteredChannel4	FilteredChannel5	FilteredChannel6	FilteredChannel7	FilteredChannel8	GyroX	GyroY	GyroZ	AccX	AccY	AccZ	PPG1	PPG2	rawPPG1	rawPPG2	rawPPG3	Hr	Hrv	Battery	Trigger	PhysicalTrigger	AutoTrigger	NumMeasurements	Timestamp	GestureLabel	CueLabel	TrialNumber	SessionId	MarkerColumn
9782.775	24999.57	-5562.36	-15708.779999999999	0.0	0.0	0.0	0.0	0.0	0.0	0.0	0.0	0.0	0.0	0.0	0.0	0.0	0.0	144.34482758620692	0.0	0.058044285	0.494932815	0.880307805	2.79258	-0.24416	0.65618	425731.0	1775936973.570041	5.0	1.0	5.0	-1.0	-1.0	-1.0	1775936973.570041	peace	Peace	3	20260411_124810	Trigger
9956.475	25561.079999999998	-5843.295	-15919.244999999999	0.0	0.0	0.0	0.0	0.0	0.0	0.0	0.0	0.0	0.0	0.0	0.0	0.0	0.0	144.34482758620692	0.0	0.058044285	0.494932815	0.880307805	2.79258	-0.24416	0.65618	425732.0	1775936973.570047	0.0	1.0	0.0	-1.0	-1.0	-1.0	1775936973.570047	peace	Peace	3	20260411_124810	Trigger
10189.529999999999	25948.035	-5965.65	-15996.42	0.0	0.0	0.0	0.0	0.0	0.0	0.0	0.0	0.0	0.0	0.0	0.0	0.0	0.0	144.34482758620692	0.0	0.058044285	0.494932815	0.880307805	2.79258	-0.24416	0.65618	425733.0	1775936973.574127	0.0	1.0	0.0	-1.0	-1.0	-1.0	1775936973.574127	peace	Peace	3	20260411_124810	Trigger
10329.525	25897.05	-5857.605	-15889.68	0.0	0.0	0.0	0.0	0.0	0.0	0.0	0.0	0.0	0.0	0.0	0.0	0.0	0.0	144.34482758620692	0.0	0.058044285	0.494932815	0.880307805	2.79258	-0.24416	0.65618	425734.0	1775936973.574147	0.0	1.0	0.0	-1.0	-1.0	-1.0	1775936973.574147	peace	Peace	3	20260411_124810	Trigger
10362.96	25471.035	-5569.65	-15649.019999999999	0.0	0.0	0.0	0.0	0.0	0.0	0.0	0.0	0.0	0.0	0.0	0.0	0.0	0.0	144.34482758620692	0.0	0.058044285	0.494932815	0.880307805	2.79258	-0.24416	0.65618	425735.0	1775936973.590457	0.0	1.0	0.0	-1.0	-1.0	-1.0	1775936973.590457	peace	Peace	3	20260411_124810	Trigger
10253.52	24904.35	-5267.79	-15416.64	0.0	0.0	0.0	0.0	0.0	0.0	0.0	0.0	0.0	0.0	0.0	0.0	0.0	0.0	144.34482758620692	0.0	0.058044285	0.494932815	0.880307805	2.79258	-0.24416	0.65618	425736.0	1775936973.590476	0.0	1.0	0.0	-1.0	-1.0	-1.0	1775936973.590476	peace	Peace	3	20260411_124810	Trigger
10022.31	24493.23	-5111.6849999999995	-15317.414999999999	0.0	0.0	0.0	0.0	0.0	0.0	0.0	0.0	0.0	0.0	0.0	0.0	0.0	0.0	144.34482758620692	0.0	0.058044285	0.494932815	0.880307805	2.79258	-0.24416	0.65618	425737.0	1775936973.590537	0.0	1.0	0.0	-1.0	-1.0	-1.0	1775936973.590537	peace	Peace	3	20260411_124810	Trigger
9769.635	24485.355	-5210.505	-15423.885	0.0	0.0	0.0	0.0	0.0	0.0	0.0	0.0	0.0	0.0	0.0	0.0	0.0	0.0	144.34482758620692	0.0	0.058044285	0.494932815	0.880307805	2.79258	-0.24416	0.65618	425738.0	1775936973.590543	0.0	1.0	0.0	-1.0	-1.0	-1.0	1775936973.590543	peace	Peace	3	20260411_124810	Trigger
9757.71	24826.545	-5465.5199999999995	-15629.894999999999	0.0	0.0	0.0	0.0	0.0	0.0	0.0	0.0	0.0	0.0	0.0	0.0	0.0	0.0	144.34482758620692	0.0	0.058654635000000004	0.48962277	0.877500195	4.2270199999999996	-0.07629999999999999	1.19028	425739.0	1775936973.590548	0.0	1.0	0.0	-1.0	-1.0	-1.0	1775936973.590548	peace	Peace	3	20260411_124810	Trigger
9903.645	25389.27	-5767.155	-15860.34	0.0	0.0	0.0	0.0	0.0	0.0	0.0	0.0	0.0	0.0	0.0	0.0	0.0	0.0	144.34482758620692	0.0	0.058654635000000004	0.48962277	0.877500195	4.2270199999999996	-0.07629999999999999	1.19028	425740.0	1775936973.590552	0.0	1.0	0.0	-1.0	-1.0	-1.0	1775936973.590552	peace	Peace	3	20260411_124810	Trigger
10121.22	25846.289999999997	-5949.045	-15984.359999999999	0.0	0.0	0.0	0.0	0.0	0.0	0.0	0.0	0.0	0.0	0.0	0.0	0.0	0.0	144.34482758620692	0.0	0.058654635000000004	0.48962277	0.877500195	4.2270199999999996	-0.07629999999999999	1.19028	425741.0	1775936973.590825	0.0	1.0	0.0	-1.0	-1.0	-1.0	1775936973.590825	peace	Peace	3	20260411_124810	Trigger
10311.84	25944.254999999997	-5910.705	-15936.3	0.0	0.0	0.0	0.0	0.0	0.0	0.0	0.0	0.0	0.0	0.0	0.0	0.0	0.0	144.34482758620692	0.0	0.058654635000000004	0.48962277	0.877500195	4.2270199999999996	-0.07629999999999999	1.19028	425742.0	1775936973.590832	0.0	1.0	0.0	-1.0	-1.0	-1.0	1775936973.590832	peace	Peace	3	20260411_124810	Trigger
10380.06	25629.344999999998	-5664.915	-15728.039999999999	0.0	0.0	0.0	0.0	0.0	0.0	0.0	0.0	0.0	0.0	0.0	0.0	0.0	0.0	144.34482758620692	0.0	0.058654635000000004	0.48962277	0.877500195	4.2270199999999996	-0.07629999999999999	1.19028	425743.0	1775936973.594484	0.0	1.0	0.0	-1.0	-1.0	-1.0	1775936973.594484	peace	Peace	3	20260411_124810	Trigger
10308.69	25067.565	-5347.98	-15478.47	0.0	0.0	0.0	0.0	0.0	0.0	0.0	0.0	0.0	0.0	0.0	0.0	0.0	0.0	144.34482758620692	0.0	0.058654635000000004	0.48962277	0.877500195	4.2270199999999996	-0.07629999999999999	1.19028	425744.0	1775936973.594504	0.0	1.0	0.0	-1.0	-1.0	-1.0	1775936973.594504	peace	Peace	3	20260411_124810	Trigger
10118.34	24568.695	-5137.785	-15326.505	0.0	0.0	0.0	0.0	0.0	0.0	0.0	0.0	0.0	0.0	0.0	0.0	0.0	0.0	144.34482758620692	0.0	0.058654635000000004	0.48962277	0.877500195	4.2270199999999996	-0.07629999999999999	1.19028	425745.0	1775936973.597435	0.0	1.0	0.0	-1.0	-1.0	-1.0	1775936973.597435	peace	Peace	3	20260411_124810	Trigger
9825.255	24420.645	-5176.889999999999	-15389.189999999999	0.0	0.0	0.0	0.0	0.0	0.0	0.0	0.0	0.0	0.0	0.0	0.0	0.0	0.0	144.34482758620692	0.0	0.058654635000000004	0.48962277	0.877500195	4.2270199999999996	-0.07629999999999999	1.19028	425746.0	1775936973.597455	0.0	1.0	0.0	-1.0	-1.0	-1.0	1775936973.597455	peace	Peace	3	20260411_124810	Trigger
9745.785	24633.899999999998	-5377.05	-15561.314999999999	0.0	0.0	0.0	0.0	0.0	0.0	0.0	0.0	0.0	0.0	0.0	0.0	0.0	0.0	144.34482758620692	0.0	0.058654635000000004	0.48962277	0.877500195	4.2270199999999996	-0.07629999999999999	1.19028	425747.0	1775936973.60333	0.0	1.0	0.0	-1.0	-1.0	-1.0	1775936973.60333	peace	Peace	3	20260411_124810	Trigger
9843.885	25139.475	-5684.355	-15798.96	0.0	0.0	0.0	0.0	0.0	0.0	0.0	0.0	0.0	0.0	0.0	0.0	0.0	0.0	144.34482758620692	0.0	0.058654635000000004	0.48962277	0.877500195	4.2270199999999996	-0.07629999999999999	1.19028	425748.0	1775936973.603334	0.0	1.0	0.0	-1.0	-1.0	-1.0	1775936973.603334	peace	Peace	3	20260411_124810	Trigger
10058.58	25629.344999999998	-5908.365	-15956.64	0.0	0.0	0.0	0.0	0.0	0.0	0.0	0.0	0.0	0.0	0.0	0.0	0.0	0.0	144.34482758620692	0.0	0.060119475	0.4895007	0.87829365	5.890359999999999	0.9308599999999999	0.3815	425749.0	1775936973.607331	0.0	1.0	0.0	-1.0	-1.0	-1.0	1775936973.607331	peace	Peace	3	20260411_124810	Trigger
10285.335	25864.829999999998	-5936.625	-15956.505	0.0	0.0	0.0	0.0	0.0	0.0	0.0	0.0	0.0	0.0	0.0	0.0	0.0	0.0	144.34482758620692	0.0	0.060119475	0.4895007	0.87829365	5.890359999999999	0.9308599999999999	0.3815	425750.0	1775936973.60735	0.0	1.0	0.0	-1.0	-1.0	-1.0	1775936973.60735	peace	Peace	3	20260411_124810	Trigger
10399.095	25678.754999999997	-5740.514999999999	-15787.394999999999	0.0	0.0	0.0	0.0	0.0	0.0	0.0	0.0	0.0	0.0	0.0	0.0	0.0	0.0	144.34482758620692	0.0	0.060119475	0.4895007	0.87829365	5.890359999999999	0.9308599999999999	0.3815	425751.0	1775936973.609351	0.0	1.0	0.0	-1.0	-1.0	-1.0	1775936973.609351	peace	Peace	3	20260411_124810	Trigger
10369.619999999999	25157.16	-5430.33	-15541.83	0.0	0.0	0.0	0.0	0.0	0.0	0.0	0.0	0.0	0.0	0.0	0.0	0.0	0.0	144.34482758620692	0.0	0.060119475	0.4895007	0.87829365	5.890359999999999	0.9308599999999999	0.3815	425752.0	1775936973.609369	0.0	1.0	0.0	-1.0	-1.0	-1.0	1775936973.609369	peace	Peace	3	20260411_124810	Trigger
10194.029999999999	24630.885	-5178.105	-15351.48	0.0	0.0	0.0	0.0	0.0	0.0	0.0	0.0	0.0	0.0	0.0	0.0	0.0	0.0	144.34482758620692	0.0	0.060119475	0.4895007	0.87829365	5.890359999999999	0.9308599999999999	0.3815	425753.0	1775936973.613242	0.0	1.0	0.0	-1.0	-1.0	-1.0	1775936973.613242	peace	Peace	3	20260411_124810	Trigger
9910.755	24362.145	-5138.099999999999	-15347.295	0.0	0.0	0.0	0.0	0.0	0.0	0.0	0.0	0.0	0.0	0.0	0.0	0.0	0.0	144.34482758620692	0.0	0.060119475	0.4895007	0.87829365	5.890359999999999	0.9308599999999999	0.3815	425754.0	1775936973.613261	0.0	1.0	0.0	-1.0	-1.0	-1.0	1775936973.613261	peace	Peace	3	20260411_124810	Trigger
9756.494999999999	24473.43	-5295.51	-15492.689999999999	0.0	0.0	0.0	0.0	0.0	0.0	0.0	0.0	0.0	0.0	0.0	0.0	0.0	0.0	144.34482758620692	0.0	0.060119475	0.4895007	0.87829365	5.890359999999999	0.9308599999999999	0.3815	425755.0	1775936973.619836	0.0	1.0	0.0	-1.0	-1.0	-1.0	1775936973.619836	peace	Peace	3	20260411_124810	Trigger
9804.195	24951.015	-5592.014999999999	-15729.795	0.0	0.0	0.0	0.0	0.0	0.0	0.0	0.0	0.0	0.0	0.0	0.0	0.0	0.0	144.34482758620692	0.0	0.060119475	0.4895007	0.87829365	5.890359999999999	0.9308599999999999	0.3815	425756.0	1775936973.619855	0.0	1.0	0.0	-1.0	-1.0	-1.0	1775936973.619855	peace	Peace	3	20260411_124810	Trigger
9993.105	25493.309999999998	-5853.33	-15922.08	0.0	0.0	0.0	0.0	0.0	0.0	0.0	0.0	0.0	0.0	0.0	0.0	0.0	0.0	144.34482758620692	0.0	0.060119475	0.4895007	0.87829365	5.890359999999999	0.9308599999999999	0.3815	425757.0	1775936973.621218	0.0	1.0	0.0	-1.0	-1.0	-1.0	1775936973.621218	peace	Peace	3	20260411_124810	Trigger
10221.795	25835.895	-5958.54	-15982.47	0.0	0.0	0.0	0.0	0.0	0.0	0.0	0.0	0.0	0.0	0.0	0.0	0.0	0.0	144.34482758620692	0.0	0.060119475	0.4895007	0.87829365	5.890359999999999	0.9308599999999999	0.3815	425758.0	1775936973.621237	0.0	1.0	0.0	-1.0	-1.0	-1.0	1775936973.621237	peace	Peace	3	20260411_124810	Trigger
10357.109999999999	25794.495	-5845.139999999999	-15875.369999999999	0.0	0.0	0.0	0.0	0.0	0.0	0.0	0.0	0.0	0.0	0.0	0.0	0.0	0.0	144.34482758620692	0.0	0.059387055	0.492247275	0.87707295	3.4792799999999997	0.15259999999999999	2.2889999999999997	425759.0	1775936973.625204	0.0	1.0	0.0	-1.0	-1.0	-1.0	1775936973.625204	peace	Peace	3	20260411_124810	Trigger
10371.555	25377.524999999998	-5550.795	-15631.289999999999	0.0	0.0	0.0	0.0	0.0	0.0	0.0	0.0	0.0	0.0	0.0	0.0	0.0	0.0	144.34482758620692	0.0	0.059387055	0.492247275	0.87707295	3.4792799999999997	0.15259999999999999	2.2889999999999997	425760.0	1775936973.625222	0.0	1.0	0.0	-1.0	-1.0	-1.0	1775936973.625222	peace	Peace	3	20260411_124810	Trigger
10244.744999999999	24827.129999999997	-5259.6449999999995	-15412.23	0.0	0.0	0.0	0.0	0.0	0.0	0.0	0.0	0.0	0.0	0.0	0.0	0.0	0.0	144.34482758620692	0.0	0.059387055	0.492247275	0.87707295	3.4792799999999997	0.15259999999999999	2.2889999999999997	425761.0	1775936973.62923	0.0	1.0	0.0	-1.0	-1.0	-1.0	1775936973.62923	peace	Peace	3	20260411_124810	Trigger
9991.935	24449.985	-5141.925	-15340.05	0.0	0.0	0.0	0.0	0.0	0.0	0.0	0.0	0.0	0.0	0.0	0.0	0.0	0.0	144.34482758620692	0.0	0.059387055	0.492247275	0.87707295	3.4792799999999997	0.15259999999999999	2.2889999999999997	425762.0	1775936973.629249	0.0	1.0	0.0	-1.0	-1.0	-1.0	1775936973.629249	peace	Peace	3	20260411_124810	Trigger
9765.585	24450.885	-5249.7	-15453.539999999999	0.0	0.0	0.0	0.0	0.0	0.0	0.0	0.0	0.0	0.0	0.0	0.0	0.0	0.0	144.34482758620692	0.0	0.059387055	0.492247275	0.87707295	3.4792799999999997	0.15259999999999999	2.2889999999999997	425763.0	1775936973.633311	0.0	1.0	0.0	-1.0	-1.0	-1.0	1775936973.633311	peace	Peace	3	20260411_124810	Trigger
9763.515	24825.69	-5510.5199999999995	-15670.349999999999	0.0	0.0	0.0	0.0	0.0	0.0	0.0	0.0	0.0	0.0	0.0	0.0	0.0	0.0	144.34482758620692	0.0	0.059387055	0.492247275	0.87707295	3.4792799999999997	0.15259999999999999	2.2889999999999997	425764.0	1775936973.633317	0.0	1.0	0.0	-1.0	-1.0	-1.0	1775936973.633317	peace	Peace	3	20260411_124810	Trigger
9925.875	25379.82	-5798.969999999999	-15886.619999999999	0.0	0.0	0.0	0.0	0.0	0.0	0.0	0.0	0.0	0.0	0.0	0.0	0.0	0.0	144.34482758620692	0.0	0.059387055	0.492247275	0.87707295	3.4792799999999997	0.15259999999999999	2.2889999999999997	425765.0	1775936973.637318	0.0	1.0	0.0	-1.0	-1.0	-1.0	1775936973.637318	peace	Peace	3	20260411_124810	Trigger
10157.22	25792.605	-5966.594999999999	-15997.455	0.0	0.0	0.0	0.0	0.0	0.0	0.0	0.0	0.0	0.0	0.0	0.0	0.0	0.0	144.34482758620692	0.0	0.059387055	0.492247275	0.87707295	3.4792799999999997	0.15259999999999999	2.2889999999999997	425766.0	1775936973.637337	0.0	1.0	0.0	-1.0	-1.0	-1.0	1775936973.637337	peace	Peace	3	20260411_124810	Trigger
10328.445	25848.315	-5909.49	-15933.195	0.0	0.0	0.0	0.0	0.0	0.0	0.0	0.0	0.0	0.0	0.0	0.0	0.0	0.0	144.34482758620692	0.0	0.059387055	0.492247275	0.87707295	3.4792799999999997	0.15259999999999999	2.2889999999999997	425767.0	1775936973.641353	0.0	1.0	0.0	-1.0	-1.0	-1.0	1775936973.641353	peace	Peace	3	20260411_124810	Trigger
10386.494999999999	25539.075	-5660.46	-15726.555	0.0	0.0	0.0	0.0	0.0	0.0	0.0	0.0	0.0	0.0	0.0	0.0	0.0	0.0	144.34482758620692	0.0	0.059387055	0.492247275	0.87707295	3.4792799999999997	0.15259999999999999	2.2889999999999997	425768.0	1775936973.641372	0.0	1.0	0.0	-1.0	-1.0	-1.0	1775936973.641372	peace	Peace	3	20260411_124810	Trigger
10286.73	24997.364999999998	-5348.295	-15477.66	0.0	0.0	0.0	0.0	0.0	0.0	0.0	0.0	0.0	0.0	0.0	0.0	0.0	0.0	144.34482758620692	0.0	0.059997405000000004	0.49328487	0.877011915	2.76206	0.09156	2.09062	425769.0	1775936973.645351	0.0	1.0	0.0	-1.0	-1.0	-1.0	1775936973.645351	peace	Peace	3	20260411_124810	Trigger
10089.404999999999	24529.05	-5148.8099999999995	-15337.17	0.0	0.0	0.0	0.0	0.0	0.0	0.0	0.0	0.0	0.0	0.0	0.0	0.0	0.0	144.34482758620692	0.0	0.059997405000000004	0.49328487	0.877011915	2.76206	0.09156	2.09062	425770.0	1775936973.64537	0.0	1.0	0.0	-1.0	-1.0	-1.0	1775936973.64537	peace	Peace	3	20260411_124810	Trigger
9804.105	24404.985	-5198.4	-15404.715	0.0	0.0	0.0	0.0	0.0	0.0	0.0	0.0	0.0	0.0	0.0	0.0	0.0	0.0	144.34482758620692	0.0	0.059997405000000004	0.49328487	0.877011915	2.76206	0.09156	2.09062	425771.0	1775936973.649375	0.0	1.0	0.0	-1.0	-1.0	-1.0	1775936973.649375	peace	Peace	3	20260411_124810	Trigger
9739.305	24652.934999999998	-5416.245	-15588.404999999999	0.0	0.0	0.0	0.0	0.0	0.0	0.0	0.0	0.0	0.0	0.0	0.0	0.0	0.0	144.34482758620692	0.0	0.059997405000000004	0.49328487	0.877011915	2.76206	0.09156	2.09062	425772.0	1775936973.649394	0.0	1.0	0.0	-1.0	-1.0	-1.0	1775936973.649394	peace	Peace	3	20260411_124810	Trigger
9857.52	25177.184999999998	-5713.38	-15816.195	0.0	0.0	0.0	0.0	0.0	0.0	0.0	0.0	0.0	0.0	0.0	0.0	0.0	0.0	144.34482758620692	0.0	0.059997405000000004	0.49328487	0.877011915	2.76206	0.09156	2.09062	425773.0	1775936973.653274	0.0	1.0	0.0	-1.0	-1.0	-1.0	1775936973.653274	peace	Peace	3	20260411_124810	Trigger
10069.244999999999	25660.844999999998	-5935.679999999999	-15975.269999999999	0.0	0.0	0.0	0.0	0.0	0.0	0.0	0.0	0.0	0.0	0.0	0.0	0.0	0.0	144.34482758620692	0.0	0.059997405000000004	0.49328487	0.877011915	2.76206	0.09156	2.09062	425774.0	1775936973.653293	0.0	1.0	0.0	-1.0	-1.0	-1.0	1775936973.653293	peace	Peace	3	20260411_124810	Trigger
10292.039999999999	25840.62	-5948.1449999999995	-15964.875	0.0	0.0	0.0	0.0	0.0	0.0	0.0	0.0	0.0	0.0	0.0	0.0	0.0	0.0	144.34482758620692	0.0	0.059997405000000004	0.49328487	0.877011915	2.76206	0.09156	2.09062	425775.0	1775936973.657404	0.0	1.0	0.0	-1.0	-1.0	-1.0	1775936973.657404	peace	Peace	3	20260411_124810	Trigger
10385.73	25614.36	-5753.025	-15800.535	0.0	0.0	0.0	0.0	0.0	0.0	0.0	0.0	0.0	0.0	0.0	0.0	0.0	0.0	144.34482758620692	0.0	0.059997405000000004	0.49328487	0.877011915	2.76206	0.09156	2.09062	425776.0	1775936973.657422	0.0	1.0	0.0	-1.0	-1.0	-1.0	1775936973.657422	peace	Peace	3	20260411_124810	Trigger
10346.31	25089.03	-5435.01	-15541.74	0.0	0.0	0.0	0.0	0.0	0.0	0.0	0.0	0.0	0.0	0.0	0.0	0.0	0.0	144.34482758620692	0.0	0.059997405000000004	0.49328487	0.877011915	2.76206	0.09156	2.09062	425777.0	1775936973.661424	0.0	1.0	0.0	-1.0	-1.0	-1.0	1775936973.661424	peace	Peace	3	20260411_124810	Trigger
10177.02	24560.684999999998	-5192.054999999999	-15362.324999999999	0.0	0.0	0.0	0.0	0.0	0.0	0.0	0.0	0.0	0.0	0.0	0.0	0.0	0.0	144.34482758620692	0.0	0.059997405000000004	0.49328487	0.877011915	2.76206	0.09156	2.09062	425778.0	1775936973.66145	0.0	1.0	0.0	-1.0	-1.0	-1.0	1775936973.66145	peace	Peace	3	20260411_124810	Trigger
9878.58	24314.355	-5166.72	-15368.939999999999	0.0	0.0	0.0	0.0	0.0	0.0	0.0	0.0	0.0	0.0	0.0	0.0	0.0	0.0	144.34482758620692	0.0	0.061218105	0.49279659000000003	0.878232615	1.64808	-0.4578	2.2127	425779.0	1775936973.665323	0.0	1.0	0.0	-1.0	-1.0	-1.0	1775936973.665323	peace	Peace	3	20260411_124810	Trigger
9742.095	24476.85	-5336.505	-15523.92	0.0	0.0	0.0	0.0	0.0	0.0	0.0	0.0	0.0	0.0	0.0	0.0	0.0	0.0	144.34482758620692	0.0	0.061218105	0.49279659000000003	0.878232615	1.64808	-0.4578	2.2127	425780.0	1775936973.665342	0.0	1.0	0.0	-1.0	-1.0	-1.0	1775936973.665342	peace	Peace	3	20260411_124810	Trigger
9812.654999999999	24962.895	-5633.1449999999995	-15758.144999999999	0.0	0.0	0.0	0.0	0.0	0.0	0.0	0.0	0.0	0.0	0.0	0.0	0.0	0.0	144.34482758620692	0.0	0.061218105	0.49279659000000003	0.878232615	1.64808	-0.4578	2.2127	425781.0	1775936973.669393	0.0	1.0	0.0	-1.0	-1.0	-1.0	1775936973.669393	peace	Peace	3	20260411_124810	Trigger
10010.205	25462.98	-5888.205	-15945.57	0.0	0.0	0.0	0.0	0.0	0.0	0.0	0.0	0.0	0.0	0.0	0.0	0.0	0.0	144.34482758620692	0.0	0.061218105	0.49279659000000003	0.878232615	1.64808	-0.4578	2.2127	425782.0	1775936973.669413	0.0	1.0	0.0	-1.0	-1.0	-1.0	1775936973.669413	peace	Peace	3	20260411_124810	Trigger
10237.32	25744.454999999998	-5972.355	-15986.744999999999	0.0	0.0	0.0	0.0	0.0	0.0	0.0	0.0	0.0	0.0	0.0	0.0	0.0	0.0	144.34482758620692	0.0	0.061218105	0.49279659000000003	0.878232615	1.64808	-0.4578	2.2127	425783.0	1775936973.6735	0.0	1.0	0.0	-1.0	-1.0	-1.0	1775936973.6735	peace	Peace	3	20260411_124810	Trigger
10350.945	25649.82	-5836.32	-15861.33	0.0	0.0	0.0	0.0	0.0	0.0	0.0	0.0	0.0	0.0	0.0	0.0	0.0	0.0	144.34482758620692	0.0	0.061218105	0.49279659000000003	0.878232615	1.64808	-0.4578	2.2127	425784.0	1775936973.673519	0.0	1.0	0.0	-1.0	-1.0	-1.0	1775936973.673519	peace	Peace	3	20260411_124810	Trigger
10374.975	25175.969999999998	-5531.355	-15612.66	0.0	0.0	0.0	0.0	0.0	0.0	0.0	0.0	0.0	0.0	0.0	0.0	0.0	0.0	144.34482758620692	0.0	0.061218105	0.49279659000000003	0.878232615	1.64808	-0.4578	2.2127	425785.0	1775936973.678659	0.0	1.0	0.0	-1.0	-1.0	-1.0	1775936973.678659	peace	Peace	3	20260411_124810	Trigger
10241.955	24614.82	-5244.48	-15392.88	0.0	0.0	0.0	0.0	0.0	0.0	0.0	0.0	0.0	0.0	0.0	0.0	0.0	0.0	144.34482758620692	0.0	0.061218105	0.49279659000000003	0.878232615	1.64808	-0.4578	2.2127	425786.0	1775936973.678678	0.0	1.0	0.0	-1.0	-1.0	-1.0	1775936973.678678	peace	Peace	3	20260411_124810	Trigger
9981.18	24254.46	-5142.33	-15337.8	0.0	0.0	0.0	0.0	0.0	0.0	0.0	0.0	0.0	0.0	0.0	0.0	0.0	0.0	144.34482758620692	0.0	0.061218105	0.49279659000000003	0.878232615	1.64808	-0.4578	2.2127	425787.0	1775936973.684044	0.0	1.0	0.0	-1.0	-1.0	-1.0	1775936973.684044	peace	Peace	3	20260411_124810	Trigger
9766.619999999999	24266.16	-5263.065	-15457.365	0.0	0.0	0.0	0.0	0.0	0.0	0.0	0.0	0.0	0.0	0.0	0.0	0.0	0.0	144.34482758620692	0.0	0.061218105	0.49279659000000003	0.878232615	1.64808	-0.4578	2.2127	425788.0	1775936973.684063	0.0	1.0	0.0	-1.0	-1.0	-1.0	1775936973.684063	peace	Peace	3	20260411_124810	Trigger
9786.96	24645.059999999998	-5520.0599999999995	-15665.13	0.0	0.0	0.0	0.0	0.0	0.0	0.0	0.0	0.0	0.0	0.0	0.0	0.0	0.0	144.34482758620692	0.0	0.06176742	0.49096554000000003	0.877256055	0.82404	-0.36624	2.5179	425789.0	1775936973.685435	0.0	1.0	0.0	-1.0	-1.0	-1.0	1775936973.685435	peace	Peace	3	20260411_124810	Trigger
9954.63	25198.065	-5807.385	-15881.849999999999	0.0	0.0	0.0	0.0	0.0	0.0	0.0	0.0	0.0	0.0	0.0	0.0	0.0	0.0	144.34482758620692	0.0	0.06176742	0.49096554000000003	0.877256055	0.82404	-0.36624	2.5179	425790.0	1775936973.685455	0.0	1.0	0.0	-1.0	-1.0	-1.0	1775936973.685455	peace	Peace	3	20260411_124810	Trigger
10174.185	25628.985	-5967.63	-15986.474999999999	0.0	0.0	0.0	0.0	0.0	0.0	0.0	0.0	0.0	0.0	0.0	0.0	0.0	0.0	144.34482758620692	0.0	0.06176742	0.49096554000000003	0.877256055	0.82404	-0.36624	2.5179	425791.0	1775936973.692022	0.0	1.0	0.0	-1.0	-1.0	-1.0	1775936973.692022	peace	Peace	3	20260411_124810	Trigger
10336.23	25669.844999999998	-5899.545	-15914.205	0.0	0.0	0.0	0.0	0.0	0.0	0.0	0.0	0.0	0.0	0.0	0.0	0.0	0.0	144.34482758620692	0.0	0.06176742	0.49096554000000003	0.877256055	0.82404	-0.36624	2.5179	425792.0	1775936973.692041	0.0	1.0	0.0	-1.0	-1.0	-1.0	1775936973.692041	peace	Peace	3	20260411_124810	Trigger
10387.26	25312.725	-5636.205	-15694.515	0.0	0.0	0.0	0.0	0.0	0.0	0.0	0.0	0.0	0.0	0.0	0.0	0.0	0.0	144.34482758620692	0.0	0.06176742	0.49096554000000003	0.877256055	0.82404	-0.36624	2.5179	425793.0	1775936973.693443	0.0	1.0	0.0	-1.0	-1.0	-1.0	1775936973.693443	peace	Peace	3	20260411_124810	Trigger
10278.81	24753.465	-5342.13	-15463.215	0.0	0.0	0.0	0.0	0.0	0.0	0.0	0.0	0.0	0.0	0.0	0.0	0.0	0.0	144.34482758620692	0.0	0.06176742	0.49096554000000003	0.877256055	0.82404	-0.36624	2.5179	425794.0	1775936973.693461	0.0	1.0	0.0	-1.0	-1.0	-1.0	1775936973.693461	peace	Peace	3	20260411_124810	Trigger
10067.4	24306.03	-5159.16	-15336.359999999999	0.0	0.0	0.0	0.0	0.0	0.0	0.0	0.0	0.0	0.0	0.0	0.0	0.0	0.0	144.34482758620692	0.0	0.06176742	0.49096554000000003	0.877256055	0.82404	-0.36624	2.5179	425795.0	1775936973.700306	0.0	1.0	0.0	-1.0	-1.0	-1.0	1775936973.700306	peace	Peace	3	20260411_124810	Trigger
9811.08	24217.469999999998	-5211.9	-15406.92	0.0	0.0	0.0	0.0	0.0	0.0	0.0	0.0	0.0	0.0	0.0	0.0	0.0	0.0	144.34482758620692	0.0	0.06176742	0.49096554000000003	0.877256055	0.82404	-0.36624	2.5179	425796.0	1775936973.700325	0.0	1.0	0.0	-1.0	-1.0	-1.0	1775936973.700325	peace	Peace	3	20260411_124810	Trigger
9770.535	24486.885	-5423.8949999999995	-15585.84	0.0	0.0	0.0	0.0	0.0	0.0	0.0	0.0	0.0	0.0	0.0	0.0	0.0	0.0	144.34482758620692	0.0	0.06176742	0.49096554000000003	0.877256055	0.82404	-0.36624	2.5179	425797.0	1775936973.704289	0.0	1.0	0.0	-1.0	-1.0	-1.0	1775936973.704289	peace	Peace	3	20260411_124810	Trigger
9882.404999999999	25031.879999999997	-5739.255	-15835.724999999999	0.0	0.0	0.0	0.0	0.0	0.0	0.0	0.0	0.0	0.0	0.0	0.0	0.0	0.0	144.34482758620692	0.0	0.06176742	0.49096554000000003	0.877256055	0.82404	-0.36624	2.5179	425798.0	1775936973.704308	0.0	1.0	0.0	-1.0	-1.0	-1.0	1775936973.704308	peace	Peace	3	20260411_124810	Trigger
10090.17	25543.17	-5960.16	-15990.75	0.0	0.0	0.0	0.0	0.0	0.0	0.0	0.0	0.0	0.0	0.0	0.0	0.0	0.0	144.34482758620692	0.0	0.06237777	0.486998265	0.879087105	3.2351199999999998	-0.30519999999999997	1.51074	425799.0	1775936973.706903	0.0	1.0	0.0	-1.0	-1.0	-1.0	1775936973.706903	peace	Peace	3	20260411_124810	Trigger
10294.515	25714.17	-5957.955	-15968.115	0.0	0.0	0.0	0.0	0.0	0.0	0.0	0.0	0.0	0.0	0.0	0.0	0.0	0.0	144.34482758620692	0.0	0.06237777	0.486998265	0.879087105	3.2351199999999998	-0.30519999999999997	1.51074	425800.0	1775936973.706921	0.0	1.0	0.0	-1.0	-1.0	-1.0	1775936973.706921	peace	Peace	3	20260411_124810	Trigger
10375.695	25482.825	-5744.79	-15785.64	0.0	0.0	0.0	0.0	0.0	0.0	0.0	0.0	0.0	0.0	0.0	0.0	0.0	0.0	144.34482758620692	0.0	0.06237777	0.486998265	0.879087105	3.2351199999999998	-0.30519999999999997	1.51074	425801.0	1775936973.710931	0.0	1.0	0.0	-1.0	-1.0	-1.0	1775936973.710931	peace	Peace	3	20260411_124810	Trigger
10322.19	24961.725	-5432.849999999999	-15537.33	0.0	0.0	0.0	0.0	0.0	0.0	0.0	0.0	0.0	0.0	0.0	0.0	0.0	0.0	144.34482758620692	0.0	0.06237777	0.486998265	0.879087105	3.2351199999999998	-0.30519999999999997	1.51074	425802.0	1775936973.710949	0.0	1.0	0.0	-1.0	-1.0	-1.0	1775936973.710949	peace	Peace	3	20260411_124810	Trigger
10143.81	24462.809999999998	-5202.135	-15367.814999999999	0.0	0.0	0.0	0.0	0.0	0.0	0.0	0.0	0.0	0.0	0.0	0.0	0.0	0.0	144.34482758620692	0.0	0.06237777	0.486998265	0.879087105	3.2351199999999998	-0.30519999999999997	1.51074	425803.0	1775936973.714922	0.0	1.0	0.0	-1.0	-1.0	-1.0	1775936973.714922	peace	Peace	3	20260411_124810	Trigger
9851.4	24262.92	-5198.04	-15396.164999999999	0.0	0.0	0.0	0.0	0.0	0.0	0.0	0.0	0.0	0.0	0.0	0.0	0.0	0.0	144.34482758620692	0.0	0.06237777	0.486998265	0.879087105	3.2351199999999998	-0.30519999999999997	1.51074	425804.0	1775936973.714941	0.0	1.0	0.0	-1.0	-1.0	-1.0	1775936973.714941	peace	Peace	3	20260411_124810	Trigger
9739.529999999999	24428.655	-5366.07	-15544.529999999999	0.0	0.0	0.0	0.0	0.0	0.0	0.0	0.0	0.0	0.0	0.0	0.0	0.0	0.0	144.34482758620692	0.0	0.06237777	0.486998265	0.879087105	3.2351199999999998	-0.30519999999999997	1.51074	425805.0	1775936973.717474	0.0	1.0	0.0	-1.0	-1.0	-1.0	1775936973.717474	peace	Peace	3	20260411_124810	Trigger
9823.05	24932.655	-5659.38	-15769.574999999999	0.0	0.0	0.0	0.0	0.0	0.0	0.0	0.0	0.0	0.0	0.0	0.0	0.0	0.0	144.34482758620692	0.0	0.06237777	0.486998265	0.879087105	3.2351199999999998	-0.30519999999999997	1.51074	425806.0	1775936973.717493	0.0	1.0	0.0	-1.0	-1.0	-1.0	1775936973.717493	peace	Peace	3	20260411_124810	Trigger
10014.029999999999	25477.92	-5912.639999999999	-15952.68	0.0	0.0	0.0	0.0	0.0	0.0	0.0	0.0	0.0	0.0	0.0	0.0	0.0	0.0	144.34482758620692	0.0	0.06237777	0.486998265	0.879087105	3.2351199999999998	-0.30519999999999997	1.51074	425807.0	1775936973.721467	0.0	1.0	0.0	-1.0	-1.0	-1.0	1775936973.721467	peace	Peace	3	20260411_124810	Trigger
10240.965	25776.809999999998	-5987.25	-15992.189999999999	0.0	0.0	0.0	0.0	0.0	0.0	0.0	0.0	0.0	0.0	0.0	0.0	0.0	0.0	144.34482758620692	0.0	0.06237777	0.486998265	0.879087105	3.2351199999999998	-0.30519999999999997	1.51074	425808.0	1775936973.721486	0.0	1.0	0.0	-1.0	-1.0	-1.0	1775936973.721486	peace	Peace	3	20260411_124810	Trigger
10352.654999999999	25672.184999999998	-5846.219999999999	-15872.67	0.0	0.0	0.0	0.0	0.0	0.0	0.0	0.0	0.0	0.0	0.0	0.0	0.0	0.0	144.34482758620692	0.0	0.06384261	0.48242064	0.87927021	5.85984	-0.01526	0.21364	425809.0	1775936973.725503	0.0	1.0	0.0	-1.0	-1.0	-1.0	1775936973.725503	peace	Peace	3	20260411_124810	Trigger
10334.699999999999	25238.79	-5551.605	-15636.689999999999	0.0	0.0	0.0	0.0	0.0	0.0	0.0	0.0	0.0	0.0	0.0	0.0	0.0	0.0	144.34482758620692	0.0	0.06384261	0.48242064	0.87927021	5.85984	-0.01526	0.21364	425810.0	1775936973.725514	0.0	1.0	0.0	-1.0	-1.0	-1.0	1775936973.725514	peace	Peace	3	20260411_124810	Trigger
10190.52	24716.385	-5278.86	-15429.24	0.0	0.0	0.0	0.0	0.0	0.0	0.0	0.0	0.0	0.0	0.0	0.0	0.0	0.0	144.34482758620692	0.0	0.06384261	0.48242064	0.87927021	5.85984	-0.01526	0.21364	425811.0	1775936973.729774	0.0	1.0	0.0	-1.0	-1.0	-1.0	1775936973.729774	peace	Peace	3	20260411_124810	Trigger
9911.43	24395.355	-5204.34	-15396.255	0.0	0.0	0.0	0.0	0.0	0.0	0.0	0.0	0.0	0.0	0.0	0.0	0.0	0.0	144.34482758620692	0.0	0.06384261	0.48242064	0.87927021	5.85984	-0.01526	0.21364	425812.0	1775936973.729793	0.0	1.0	0.0	-1.0	-1.0	-1.0	1775936973.729793	peace	Peace	3	20260411_124810	Trigger
9709.515	24464.835	-5336.28	-15522.93	0.0	0.0	0.0	0.0	0.0	0.0	0.0	0.0	0.0	0.0	0.0	0.0	0.0	0.0	144.34482758620692	0.0	0.06384261	0.48242064	0.87927021	5.85984	-0.01526	0.21364	425813.0	1775936973.733624	0.0	1.0	0.0	-1.0	-1.0	-1.0	1775936973.733624	peace	Peace	3	20260411_124810	Trigger
9738.045	24895.665	-5604.389999999999	-15738.48	0.0	0.0	0.0	0.0	0.0	0.0	0.0	0.0	0.0	0.0	0.0	0.0	0.0	0.0	144.34482758620692	0.0	0.06384261	0.48242064	0.87927021	5.85984	-0.01526	0.21364	425814.0	1775936973.733643	0.0	1.0	0.0	-1.0	-1.0	-1.0	1775936973.733643	peace	Peace	3	20260411_124810	Trigger
9922.05	25435.17	-5880.195	-15947.234999999999	0.0	0.0	0.0	0.0	0.0	0.0	0.0	0.0	0.0	0.0	0.0	0.0	0.0	0.0	144.34482758620692	0.0	0.06384261	0.48242064	0.87927021	5.85984	-0.01526	0.21364	425815.0	1775936973.737512	0.0	1.0	0.0	-1.0	-1.0	-1.0	1775936973.737512	peace	Peace	3	20260411_124810	Trigger
10163.205	25813.844999999998	-6011.639999999999	-16030.529999999999	0.0	0.0	0.0	0.0	0.0	0.0	0.0	0.0	0.0	0.0	0.0	0.0	0.0	0.0	144.34482758620692	0.0	0.06384261	0.48242064	0.87927021	5.85984	-0.01526	0.21364	425816.0	1775936973.73753	0.0	1.0	0.0	-1.0	-1.0	-1.0	1775936973.73753	peace	Peace	3	20260411_124810	Trigger
10329.705	25818.66	-5914.62	-15936.255	0.0	0.0	0.0	0.0	0.0	0.0	0.0	0.0	0.0	0.0	0.0	0.0	0.0	0.0	144.34482758620692	0.0	0.06384261	0.48242064	0.87927021	5.85984	-0.01526	0.21364	425817.0	1775936973.741537	0.0	1.0	0.0	-1.0	-1.0	-1.0	1775936973.741537	peace	Peace	3	20260411_124810	Trigger
10369.529999999999	25440.885	-5650.245	-15715.664999999999	0.0	0.0	0.0	0.0	0.0	0.0	0.0	0.0	0.0	0.0	0.0	0.0	0.0	0.0	144.34482758620692	0.0	0.06384261	0.48242064	0.87927021	5.85984	-0.01526	0.21364	425818.0	1775936973.74155	0.0	1.0	0.0	-1.0	-1.0	-1.0	1775936973.74155	peace	Peace	3	20260411_124810	Trigger
10261.26	24889.815	-5350.86	-15485.085	0.0	0.0	0.0	0.0	0.0	0.0	0.0	0.0	0.0	0.0	0.0	0.0	0.0	0.0	144.34482758620692	0.0	0.06445296	0.481383045	0.878598825	7.477399999999999	0.763	-0.9308599999999999	425819.0	1775936973.747481	0.0	1.0	0.0	-1.0	-1.0	-1.0	1775936973.747481	peace	Peace	3	20260411_124810	Trigger
10032.75	24454.8	-5174.775	-15362.144999999999	0.0	0.0	0.0	0.0	0.0	0.0	0.0	0.0	0.0	0.0	0.0	0.0	0.0	0.0	144.34482758620692	0.0	0.06445296	0.481383045	0.878598825	7.477399999999999	0.763	-0.9308599999999999	425820.0	1775936973.747502	0.0	1.0	0.0	-1.0	-1.0	-1.0	1775936973.747502	peace	Peace	3	20260411_124810	Trigger
9783.494999999999	24377.489999999998	-5252.715	-15457.455	0.0	0.0	0.0	0.0	0.0	0.0	0.0	0.0	0.0	0.0	0.0	0.0	0.0	0.0	144.34482758620692	0.0	0.06445296	0.481383045	0.878598825	7.477399999999999	0.763	-0.9308599999999999	425821.0	1775936973.750947	0.0	1.0	0.0	-1.0	-1.0	-1.0	1775936973.750947	peace	Peace	3	20260411_124810	Trigger
9740.52	24677.73	-5485.365	-15644.97	0.0	0.0	0.0	0.0	0.0	0.0	0.0	0.0	0.0	0.0	0.0	0.0	0.0	0.0	144.34482758620692	0.0	0.06445296	0.481383045	0.878598825	7.477399999999999	0.763	-0.9308599999999999	425822.0	1775936973.750969	0.0	1.0	0.0	-1.0	-1.0	-1.0	1775936973.750969	peace	Peace	3	20260411_124810	Trigger
9874.305	25217.91	-5781.735	-15869.34	0.0	0.0	0.0	0.0	0.0	0.0	0.0	0.0	0.0	0.0	0.0	0.0	0.0	0.0	144.34482758620692	0.0	0.06445296	0.481383045	0.878598825	7.477399999999999	0.763	-0.9308599999999999	425823.0	1775936973.753622	0.0	1.0	0.0	-1.0	-1.0	-1.0	1775936973.753622	peace	Peace	3	20260411_124810	Trigger
10093.32	25697.61	-5983.83	-16012.484999999999	0.0	0.0	0.0	0.0	0.0	0.0	0.0	0.0	0.0	0.0	0.0	0.0	0.0	0.0	144.34482758620692	0.0	0.06445296	0.481383045	0.878598825	7.477399999999999	0.763	-0.9308599999999999	425824.0	1775936973.753649	0.0	1.0	0.0	-1.0	-1.0	-1.0	1775936973.753649	peace	Peace	3	20260411_124810	Trigger
10292.039999999999	25847.91	-5966.91	-15980.265	0.0	0.0	0.0	0.0	0.0	0.0	0.0	0.0	0.0	0.0	0.0	0.0	0.0	0.0	144.34482758620692	0.0	0.06445296	0.481383045	0.878598825	7.477399999999999	0.763	-0.9308599999999999	425825.0	1775936973.757684	0.0	1.0	0.0	-1.0	-1.0	-1.0	1775936973.757684	peace	Peace	3	20260411_124810	Trigger
10367.055	25595.73	-5749.5599999999995	-15799.05	0.0	0.0	0.0	0.0	0.0	0.0	0.0	0.0	0.0	0.0	0.0	0.0	0.0	0.0	144.34482758620692	0.0	0.06445296	0.481383045	0.878598825	7.477399999999999	0.763	-0.9308599999999999	425826.0	1775936973.757711	0.0	1.0	0.0	-1.0	-1.0	-1.0	1775936973.757711	peace	Peace	3	20260411_124810	Trigger
10306.35	25057.079999999998	-5428.53	-15541.74	0.0	0.0	0.0	0.0	0.0	0.0	0.0	0.0	0.0	0.0	0.0	0.0	0.0	0.0	144.34482758620692	0.0	0.06445296	0.481383045	0.878598825	7.477399999999999	0.763	-0.9308599999999999	425827.0	1775936973.761627	0.0	1.0	0.0	-1.0	-1.0	-1.0	1775936973.761627	peace	Peace	3	20260411_124810	Trigger
10123.695	24530.175	-5194.98	-15367.095	0.0	0.0	0.0	0.0	0.0	0.0	0.0	0.0	0.0	0.0	0.0	0.0	0.0	0.0	144.34482758620692	0.0	0.06445296	0.481383045	0.878598825	7.477399999999999	0.763	-0.9308599999999999	425828.0	1775936973.761653	0.0	1.0	0.0	-1.0	-1.0	-1.0	1775936973.761653	peace	Peace	3	20260411_124810	Trigger
9842.175	24340.274999999998	-5208.4349999999995	-15409.98	0.0	0.0	0.0	0.0	0.0	0.0	0.0	0.0	0.0	0.0	0.0	0.0	0.0	0.0	144.34482758620692	0.0	0.06469710000000001	0.482969955	0.881040225	8.49982	1.3428799999999999	-1.4497	425829.0	1775936973.765654	0.0	1.0	0.0	-1.0	-1.0	-1.0	1775936973.765654	peace	Peace	3	20260411_124810	Trigger
9743.085	24522.704999999998	-5403.825	-15584.535	0.0	0.0	0.0	0.0	0.0	0.0	0.0	0.0	0.0	0.0	0.0	0.0	0.0	0.0	144.34482758620692	0.0	0.06469710000000001	0.482969955	0.881040225	8.49982	1.3428799999999999	-1.4497	425830.0	1775936973.76568	0.0	1.0	0.0	-1.0	-1.0	-1.0	1775936973.76568	peace	Peace	3	20260411_124810	Trigger
9833.49	25019.415	-5698.44	-15814.71	0.0	0.0	0.0	0.0	0.0	0.0	0.0	0.0	0.0	0.0	0.0	0.0	0.0	0.0	144.34482758620692	0.0	0.06469710000000001	0.482969955	0.881040225	8.49982	1.3428799999999999	-1.4497	425831.0	1775936973.769606	0.0	1.0	0.0	-1.0	-1.0	-1.0	1775936973.769606	peace	Peace	3	20260411_124810	Trigger
10038.645	25528.77	-5930.82	-15978.42	0.0	0.0	0.0	0.0	0.0	0.0	0.0	0.0	0.0	0.0	0.0	0.0	0.0	0.0	144.34482758620692	0.0	0.06469710000000001	0.482969955	0.881040225	8.49982	1.3428799999999999	-1.4497	425832.0	1775936973.76962	0.0	1.0	0.0	-1.0	-1.0	-1.0	1775936973.76962	peace	Peace	3	20260411_124810	Trigger
10265.22	25812.809999999998	-5991.03	-16006.5	0.0	0.0	0.0	0.0	0.0	0.0	0.0	0.0	0.0	0.0	0.0	0.0	0.0	0.0	144.34482758620692	0.0	0.06469710000000001	0.482969955	0.881040225	8.49982	1.3428799999999999	-1.4497	425833.0	1775936973.773727	0.0	1.0	0.0	-1.0	-1.0	-1.0	1775936973.773727	peace	Peace	3	20260411_124810	Trigger
10367.369999999999	25662.42	-5828.985	-15860.744999999999	0.0	0.0	0.0	0.0	0.0	0.0	0.0	0.0	0.0	0.0	0.0	0.0	0.0	0.0	144.34482758620692	0.0	0.06469710000000001	0.482969955	0.881040225	8.49982	1.3428799999999999	-1.4497	425834.0	1775936973.773753	0.0	1.0	0.0	-1.0	-1.0	-1.0	1775936973.773753	peace	Peace	3	20260411_124810	Trigger
10358.64	25169.085	-5511.6449999999995	-15605.595	0.0	0.0	0.0	0.0	0.0	0.0	0.0	0.0	0.0	0.0	0.0	0.0	0.0	0.0	144.34482758620692	0.0	0.06469710000000001	0.482969955	0.881040225	8.49982	1.3428799999999999	-1.4497	425835.0	1775936973.778848	0.0	1.0	0.0	-1.0	-1.0	-1.0	1775936973.778848	peace	Peace	3	20260411_124810	Trigger
10199.835	24638.985	-5241.69	-15401.609999999999	0.0	0.0	0.0	0.0	0.0	0.0	0.0	0.0	0.0	0.0	0.0	0.0	0.0	0.0	144.34482758620692	0.0	0.06469710000000001	0.482969955	0.881040225	8.49982	1.3428799999999999	-1.4497	425836.0	1775936973.778879	0.0	1.0	0.0	-1.0	-1.0	-1.0	1775936973.778879	peace	Peace	3	20260411_124810	Trigger
9926.685	24334.739999999998	-5175.0	-15376.365	0.0	0.0	0.0	0.0	0.0	0.0	0.0	0.0	0.0	0.0	0.0	0.0	0.0	0.0	144.34482758620692	0.0	0.06469710000000001	0.482969955	0.881040225	8.49982	1.3428799999999999	-1.4497	425837.0	1775936973.781609	0.0	1.0	0.0	-1.0	-1.0	-1.0	1775936973.781609	peace	Peace	3	20260411_124810	Trigger
9746.1	24407.64	-5315.625	-15506.01	0.0	0.0	0.0	0.0	0.0	0.0	0.0	0.0	0.0	0.0	0.0	0.0	0.0	0.0	144.34482758620692	0.0	0.06469710000000001	0.482969955	0.881040225	8.49982	1.3428799999999999	-1.4497	425838.0	1775936973.781636	0.0	1.0	0.0	-1.0	-1.0	-1.0	1775936973.781636	peace	Peace	3	20260411_124810	Trigger
9785.34	24832.395	-5597.1449999999995	-15732.404999999999	0.0	0.0	0.0	0.0	0.0	0.0	0.0	0.0	0.0	0.0	0.0	0.0	0.0	0.0	144.34482758620692	0.0	0.06433089	0.48266478	0.87914814	9.32386	1.4802199999999999	-1.95328	425839.0	1775936973.785691	0.0	1.0	0.0	-1.0	-1.0	-1.0	1775936973.785691	peace	Peace	3	20260411_124810	Trigger
9972.404999999999	25350.885	-5862.014999999999	-15927.3	0.0	0.0	0.0	0.0	0.0	0.0	0.0	0.0	0.0	0.0	0.0	0.0	0.0	0.0	144.34482758620692	0.0	0.06433089	0.48266478	0.87914814	9.32386	1.4802199999999999	-1.95328	425840.0	1775936973.785717	0.0	1.0	0.0	-1.0	-1.0	-1.0	1775936973.785717	peace	Peace	3	20260411_124810	Trigger
10205.91	25722.0	-5989.905	-16005.869999999999	0.0	0.0	0.0	0.0	0.0	0.0	0.0	0.0	0.0	0.0	0.0	0.0	0.0	0.0	144.34482758620692	0.0	0.06433089	0.48266478	0.87914814	9.32386	1.4802199999999999	-1.95328	425841.0	1775936973.793188	0.0	1.0	0.0	-1.0	-1.0	-1.0	1775936973.793188	peace	Peace	3	20260411_124810	Trigger
10356.074999999999	25688.34	-5884.29	-15908.175	0.0	0.0	0.0	0.0	0.0	0.0	0.0	0.0	0.0	0.0	0.0	0.0	0.0	0.0	144.34482758620692	0.0	0.06433089	0.48266478	0.87914814	9.32386	1.4802199999999999	-1.95328	425842.0	1775936973.793217	0.0	1.0	0.0	-1.0	-1.0	-1.0	1775936973.793217	peace	Peace	3	20260411_124810	Trigger
10388.699999999999	25272.495	-5602.094999999999	-15674.445	0.0	0.0	0.0	0.0	0.0	0.0	0.0	0.0	0.0	0.0	0.0	0.0	0.0	0.0	144.34482758620692	0.0	0.06433089	0.48266478	0.87914814	9.32386	1.4802199999999999	-1.95328	425843.0	1775936973.795321	0.0	1.0	0.0	-1.0	-1.0	-1.0	1775936973.795321	peace	Peace	3	20260411_124810	Trigger
10268.234999999999	24729.344999999998	-5310.0	-15450.705	0.0	0.0	0.0	0.0	0.0	0.0	0.0	0.0	0.0	0.0	0.0	0.0	0.0	0.0	144.34482758620692	0.0	0.06433089	0.48266478	0.87914814	9.32386	1.4802199999999999	-1.95328	425844.0	1775936973.795349	0.0	1.0	0.0	-1.0	-1.0	-1.0	1775936973.795349	peace	Peace	3	20260411_124810	Trigger
10030.41	24325.29	-5159.16	-15353.055	0.0	0.0	0.0	0.0	0.0	0.0	0.0	0.0	0.0	0.0	0.0	0.0	0.0	0.0	144.34482758620692	0.0	0.06433089	0.48266478	0.87914814	9.32386	1.4802199999999999	-1.95328	425845.0	1775936973.800698	0.0	1.0	0.0	-1.0	-1.0	-1.0	1775936973.800698	peace	Peace	3	20260411_124810	Trigger
9787.05	24274.395	-5247.72	-15450.119999999999	0.0	0.0	0.0	0.0	0.0	0.0	0.0	0.0	0.0	0.0	0.0	0.0	0.0	0.0	144.34482758620692	0.0	0.06433089	0.48266478	0.87914814	9.32386	1.4802199999999999	-1.95328	425846.0	1775936973.800723	0.0	1.0	0.0	-1.0	-1.0	-1.0	1775936973.800723	peace	Peace	3	20260411_124810	Trigger
9771.345	24591.375	-5497.065	-15655.455	0.0	0.0	0.0	0.0	0.0	0.0	0.0	0.0	0.0	0.0	0.0	0.0	0.0	0.0	144.34482758620692	0.0	0.06433089	0.48266478	0.87914814	9.32386	1.4802199999999999	-1.95328	425847.0	1775936973.803282	0.0	1.0	0.0	-1.0	-1.0	-1.0	1775936973.803282	peace	Peace	3	20260411_124810	Trigger
9923.49	25111.26	-5783.67	-15872.49	0.0	0.0	0.0	0.0	0.0	0.0	0.0	0.0	0.0	0.0	0.0	0.0	0.0	0.0	144.34482758620692	0.0	0.06433089	0.48266478	0.87914814	9.32386	1.4802199999999999	-1.95328	425848.0	1775936973.803306	0.0	1.0	0.0	-1.0	-1.0	-1.0	1775936973.803306	peace	Peace	3	20260411_124810	Trigger
10145.52	25555.905	-5967.764999999999	-15997.635	0.0	0.0	0.0	0.0	0.0	0.0	0.0	0.0	0.0	0.0	0.0	0.0	0.0	0.0	144.34482758620692	0.0	0.06298812	0.486754125	0.878598825	9.903739999999999	1.15976	-1.09872	425849.0	1775936973.805714	0.0	1.0	0.0	-1.0	-1.0	-1.0	1775936973.805714	peace	Peace	3	20260411_124810	Trigger
10333.71	25668.855	-5933.115	-15952.05	0.0	0.0	0.0	0.0	0.0	0.0	0.0	0.0	0.0	0.0	0.0	0.0	0.0	0.0	144.34482758620692	0.0	0.06298812	0.486754125	0.878598825	9.903739999999999	1.15976	-1.09872	425850.0	1775936973.805737	0.0	1.0	0.0	-1.0	-1.0	-1.0	1775936973.805737	peace	Peace	3	20260411_124810	Trigger
10408.68	25349.76	-5688.855	-15745.814999999999	0.0	0.0	0.0	0.0	0.0	0.0	0.0	0.0	0.0	0.0	0.0	0.0	0.0	0.0	144.34482758620692	0.0	0.06298812	0.486754125	0.878598825	9.903739999999999	1.15976	-1.09872	425851.0	1775936973.809817	0.0	1.0	0.0	-1.0	-1.0	-1.0	1775936973.809817	peace	Peace	3	20260411_124810	Trigger
10332.27	24787.98	-5378.264999999999	-15500.385	0.0	0.0	0.0	0.0	0.0	0.0	0.0	0.0	0.0	0.0	0.0	0.0	0.0	0.0	144.34482758620692	0.0	0.06298812	0.486754125	0.878598825	9.903739999999999	1.15976	-1.09872	425852.0	1775936973.80984	0.0	1.0	0.0	-1.0	-1.0	-1.0	1775936973.80984	peace	Peace	3	20260411_124810	Trigger
10141.92	24296.67	-5166.63	-15347.654999999999	0.0	0.0	0.0	0.0	0.0	0.0	0.0	0.0	0.0	0.0	0.0	0.0	0.0	0.0	144.34482758620692	0.0	0.06298812	0.486754125	0.878598825	9.903739999999999	1.15976	-1.09872	425853.0	1775936973.8138	0.0	1.0	0.0	-1.0	-1.0	-1.0	1775936973.8138	peace	Peace	3	20260411_124810	Trigger
9859.05	24139.665	-5196.51	-15402.824999999999	0.0	0.0	0.0	0.0	0.0	0.0	0.0	0.0	0.0	0.0	0.0	0.0	0.0	0.0	144.34482758620692	0.0	0.06298812	0.486754125	0.878598825	9.903739999999999	1.15976	-1.09872	425854.0	1775936973.813824	0.0	1.0	0.0	-1.0	-1.0	-1.0	1775936973.813824	peace	Peace	3	20260411_124810	Trigger
9769.365	24346.844999999998	-5399.415	-15576.974999999999	0.0	0.0	0.0	0.0	0.0	0.0	0.0	0.0	0.0	0.0	0.0	0.0	0.0	0.0	144.34482758620692	0.0	0.06298812	0.486754125	0.878598825	9.903739999999999	1.15976	-1.09872	425855.0	1775936973.817826	0.0	1.0	0.0	-1.0	-1.0	-1.0	1775936973.817826	peace	Peace	3	20260411_124810	Trigger
9870.345	24838.11	-5698.3949999999995	-15808.005	0.0	0.0	0.0	0.0	0.0	0.0	0.0	0.0	0.0	0.0	0.0	0.0	0.0	0.0	144.34482758620692	0.0	0.06298812	0.486754125	0.878598825	9.903739999999999	1.15976	-1.09872	425856.0	1775936973.817852	0.0	1.0	0.0	-1.0	-1.0	-1.0	1775936973.817852	peace	Peace	3	20260411_124810	Trigger
10090.305	25327.53	-5912.73	-15958.529999999999	0.0	0.0	0.0	0.0	0.0	0.0	0.0	0.0	0.0	0.0	0.0	0.0	0.0	0.0	144.34482758620692	0.0	0.06298812	0.486754125	0.878598825	9.903739999999999	1.15976	-1.09872	425857.0	1775936973.821809	0.0	1.0	0.0	-1.0	-1.0	-1.0	1775936973.821809	peace	Peace	3	20260411_124810	Trigger
10309.994999999999	25565.985	-5955.929999999999	-15970.545	0.0	0.0	0.0	0.0	0.0	0.0	0.0	0.0	0.0	0.0	0.0	0.0	0.0	0.0	144.34482758620692	0.0	0.06298812	0.486754125	0.878598825	9.903739999999999	1.15976	-1.09872	425858.0	1775936973.821833	0.0	1.0	0.0	-1.0	-1.0	-1.0	1775936973.821833	peace	Peace	3	20260411_124810	Trigger
10411.154999999999	25403.805	-5783.4	-15822.63	0.0	0.0	0.0	0.0	0.0	0.0	0.0	0.0	0.0	0.0	0.0	0.0	0.0	0.0	144.34482758620692	0.0	0.060607755	0.493101765	0.87731709	6.7143999999999995	0.19838	-0.44254	425859.0	1775936973.8258	0.0	1.0	0.0	-1.0	-1.0	-1.0	1775936973.8258	peace	Peace	3	20260411_124810	Trigger
10403.55	24904.844999999998	-5453.639999999999	-15556.724999999999	0.0	0.0	0.0	0.0	0.0	0.0	0.0	0.0	0.0	0.0	0.0	0.0	0.0	0.0	144.34482758620692	0.0	0.060607755	0.493101765	0.87731709	6.7143999999999995	0.19838	-0.44254	425860.0	1775936973.825838	0.0	1.0	0.0	-1.0	-1.0	-1.0	1775936973.825838	peace	Peace	3	20260411_124810	Trigger
10217.88	24418.26	-5206.59	-15370.335	0.0	0.0	0.0	0.0	0.0	0.0	0.0	0.0	0.0	0.0	0.0	0.0	0.0	0.0	144.34482758620692	0.0	0.060607755	0.493101765	0.87731709	6.7143999999999995	0.19838	-0.44254	425861.0	1775936973.829816	0.0	1.0	0.0	-1.0	-1.0	-1.0	1775936973.829816	peace	Peace	3	20260411_124810	Trigger
9900.585	24241.274999999998	-5197.05	-15403.455	0.0	0.0	0.0	0.0	0.0	0.0	0.0	0.0	0.0	0.0	0.0	0.0	0.0	0.0	144.34482758620692	0.0	0.060607755	0.493101765	0.87731709	6.7143999999999995	0.19838	-0.44254	425862.0	1775936973.829839	0.0	1.0	0.0	-1.0	-1.0	-1.0	1775936973.829839	peace	Peace	3	20260411_124810	Trigger
9740.43	24377.129999999997	-5352.75	-15545.519999999999	0.0	0.0	0.0	0.0	0.0	0.0	0.0	0.0	0.0	0.0	0.0	0.0	0.0	0.0	144.34482758620692	0.0	0.060607755	0.493101765	0.87731709	6.7143999999999995	0.19838	-0.44254	425863.0	1775936973.833764	0.0	1.0	0.0	-1.0	-1.0	-1.0	1775936973.833764	peace	Peace	3	20260411_124810	Trigger
9796.994999999999	24823.125	-5634.405	-15764.939999999999	0.0	0.0	0.0	0.0	0.0	0.0	0.0	0.0	0.0	0.0	0.0	0.0	0.0	0.0	144.34482758620692	0.0	0.060607755	0.493101765	0.87731709	6.7143999999999995	0.19838	-0.44254	425864.0	1775936973.833788	0.0	1.0	0.0	-1.0	-1.0	-1.0	1775936973.833788	peace	Peace	3	20260411_124810	Trigger
9992.654999999999	25343.415	-5891.49	-15952.545	0.0	0.0	0.0	0.0	0.0	0.0	0.0	0.0	0.0	0.0	0.0	0.0	0.0	0.0	144.34482758620692	0.0	0.060607755	0.493101765	0.87731709	6.7143999999999995	0.19838	-0.44254	425865.0	1775936973.838758	0.0	1.0	0.0	-1.0	-1.0	-1.0	1775936973.838758	peace	Peace	3	20260411_124810	Trigger
10218.69	25690.23	-5998.1849999999995	-16017.029999999999	0.0	0.0	0.0	0.0	0.0	0.0	0.0	0.0	0.0	0.0	0.0	0.0	0.0	0.0	144.34482758620692	0.0	0.060607755	0.493101765	0.87731709	6.7143999999999995	0.19838	-0.44254	425866.0	1775936973.838782	0.0	1.0	0.0	-1.0	-1.0	-1.0	1775936973.838782	peace	Peace	3	20260411_124810	Trigger
10358.82	25646.895	-5878.844999999999	-15906.24	0.0	0.0	0.0	0.0	0.0	0.0	0.0	0.0	0.0	0.0	0.0	0.0	0.0	0.0	144.34482758620692	0.0	0.060607755	0.493101765	0.87731709	6.7143999999999995	0.19838	-0.44254	425867.0	1775936973.842169	0.0	1.0	0.0	-1.0	-1.0	-1.0	1775936973.842169	peace	Peace	3	20260411_124810	Trigger
10384.47	25237.035	-5585.8949999999995	-15666.3	0.0	0.0	0.0	0.0	0.0	0.0	0.0	0.0	0.0	0.0	0.0	0.0	0.0	0.0	144.34482758620692	0.0	0.060607755	0.493101765	0.87731709	6.7143999999999995	0.19838	-0.44254	425868.0	1775936973.842192	0.0	1.0	0.0	-1.0	-1.0	-1.0	1775936973.842192	peace	Peace	3	20260411_124810	Trigger
10249.02	24699.059999999998	-5302.08	-15448.23	0.0	0.0	0.0	0.0	0.0	0.0	0.0	0.0	0.0	0.0	0.0	0.0	0.0	0.0	144.34482758620692	0.0	0.06115707	0.49517695500000003	0.876157425	4.8831999999999995	0.32045999999999997	-0.65618	425869.0	1775936973.845892	0.0	1.0	0.0	-1.0	-1.0	-1.0	1775936973.845892	peace	Peace	3	20260411_124810	Trigger
9995.984999999999	24309.989999999998	-5172.705	-15365.115	0.0	0.0	0.0	0.0	0.0	0.0	0.0	0.0	0.0	0.0	0.0	0.0	0.0	0.0	144.34482758620692	0.0	0.06115707	0.49517695500000003	0.876157425	4.8831999999999995	0.32045999999999997	-0.65618	425870.0	1775936973.845915	0.0	1.0	0.0	-1.0	-1.0	-1.0	1775936973.845915	peace	Peace	3	20260411_124810	Trigger
9761.625	24305.76	-5280.705	-15478.83	0.0	0.0	0.0	0.0	0.0	0.0	0.0	0.0	0.0	0.0	0.0	0.0	0.0	0.0	144.34482758620692	0.0	0.06115707	0.49517695500000003	0.876157425	4.8831999999999995	0.32045999999999997	-0.65618	425871.0	1775936973.849918	0.0	1.0	0.0	-1.0	-1.0	-1.0	1775936973.849918	peace	Peace	3	20260411_124810	Trigger
9759.33	24651.899999999998	-5536.215	-15689.25	0.0	0.0	0.0	0.0	0.0	0.0	0.0	0.0	0.0	0.0	0.0	0.0	0.0	0.0	144.34482758620692	0.0	0.06115707	0.49517695500000003	0.876157425	4.8831999999999995	0.32045999999999997	-0.65618	425872.0	1775936973.849957	0.0	1.0	0.0	-1.0	-1.0	-1.0	1775936973.849957	peace	Peace	3	20260411_124810	Trigger
9928.935	25179.12	-5823.945	-15907.814999999999	0.0	0.0	0.0	0.0	0.0	0.0	0.0	0.0	0.0	0.0	0.0	0.0	0.0	0.0	144.34482758620692	0.0	0.06115707	0.49517695500000003	0.876157425	4.8831999999999995	0.32045999999999997	-0.65618	425873.0	1775936973.853801	0.0	1.0	0.0	-1.0	-1.0	-1.0	1775936973.853801	peace	Peace	3	20260411_124810	Trigger
10164.465	25593.975	-5989.275	-16018.74	0.0	0.0	0.0	0.0	0.0	0.0	0.0	0.0	0.0	0.0	0.0	0.0	0.0	0.0	144.34482758620692	0.0	0.06115707	0.49517695500000003	0.876157425	4.8831999999999995	0.32045999999999997	-0.65618	425874.0	1775936973.853824	0.0	1.0	0.0	-1.0	-1.0	-1.0	1775936973.853824	peace	Peace	3	20260411_124810	Trigger
10337.984999999999	25667.055	-5934.915	-15954.705	0.0	0.0	0.0	0.0	0.0	0.0	0.0	0.0	0.0	0.0	0.0	0.0	0.0	0.0	144.34482758620692	0.0	0.06115707	0.49517695500000003	0.876157425	4.8831999999999995	0.32045999999999997	-0.65618	425875.0	1775936973.857883	0.0	1.0	0.0	-1.0	-1.0	-1.0	1775936973.857883	peace	Peace	3	20260411_124810	Trigger
10405.17	25352.145	-5682.33	-15744.285	0.0	0.0	0.0	0.0	0.0	0.0	0.0	0.0	0.0	0.0	0.0	0.0	0.0	0.0	144.34482758620692	0.0	0.06115707	0.49517695500000003	0.876157425	4.8831999999999995	0.32045999999999997	-0.65618	425876.0	1775936973.857907	0.0	1.0	0.0	-1.0	-1.0	-1.0	1775936973.857907	peace	Peace	3	20260411_124810	Trigger
10320.705	24808.59	-5367.78	-15496.335	0.0	0.0	0.0	0.0	0.0	0.0	0.0	0.0	0.0	0.0	0.0	0.0	0.0	0.0	144.34482758620692	0.0	0.06115707	0.49517695500000003	0.876157425	4.8831999999999995	0.32045999999999997	-0.65618	425877.0	1775936973.861911	0.0	1.0	0.0	-1.0	-1.0	-1.0	1775936973.861911	peace	Peace	3	20260411_124810	Trigger
10115.595	24335.28	-5171.264999999999	-15358.994999999999	0.0	0.0	0.0	0.0	0.0	0.0	0.0	0.0	0.0	0.0	0.0	0.0	0.0	0.0	144.34482758620692	0.0	0.06115707	0.49517695500000003	0.876157425	4.8831999999999995	0.32045999999999997	-0.65618	425878.0	1775936973.861934	0.0	1.0	0.0	-1.0	-1.0	-1.0	1775936973.861934	peace	Peace	3	20260411_124810	Trigger
9830.52	24208.02	-5216.804999999999	-15424.47	0.0	0.0	0.0	0.0	0.0	0.0	0.0	0.0	0.0	0.0	0.0	0.0	0.0	0.0	144.55172413793105	0.0	0.063049155	0.49243038	0.8765846700000001	4.21176	-0.24416	-0.9308599999999999	425879.0	1775936973.865891	0.0	1.0	0.0	-1.0	-1.0	-1.0	1775936973.865891	peace	Peace	3	20260411_124810	Trigger
9762.93	24446.114999999998	-5425.11	-15601.365	0.0	0.0	0.0	0.0	0.0	0.0	0.0	0.0	0.0	0.0	0.0	0.0	0.0	0.0	144.55172413793105	0.0	0.063049155	0.49243038	0.8765846700000001	4.21176	-0.24416	-0.9308599999999999	425880.0	1775936973.865913	0.0	1.0	0.0	-1.0	-1.0	-1.0	1775936973.865913	peace	Peace	3	20260411_124810	Trigger
9877.815	24986.07	-5732.865	-15840.494999999999	0.0	0.0	0.0	0.0	0.0	0.0	0.0	0.0	0.0	0.0	0.0	0.0	0.0	0.0	144.55172413793105	0.0	0.063049155	0.49243038	0.8765846700000001	4.21176	-0.24416	-0.9308599999999999	425881.0	1775936973.869794	0.0	1.0	0.0	-1.0	-1.0	-1.0	1775936973.869794	peace	Peace	3	20260411_124810	Trigger
10076.76	25497.585	-5959.485	-15998.894999999999	0.0	0.0	0.0	0.0	0.0	0.0	0.0	0.0	0.0	0.0	0.0	0.0	0.0	0.0	144.55172413793105	0.0	0.063049155	0.49243038	0.8765846700000001	4.21176	-0.24416	-0.9308599999999999	425882.0	1775936973.869816	0.0	1.0	0.0	-1.0	-1.0	-1.0	1775936973.869816	peace	Peace	3	20260411_124810	Trigger
10300.77	25702.2	-5974.695	-15985.71	0.0	0.0	0.0	0.0	0.0	0.0	0.0	0.0	0.0	0.0	0.0	0.0	0.0	0.0	144.55172413793105	0.0	0.063049155	0.49243038	0.8765846700000001	4.21176	-0.24416	-0.9308599999999999	425883.0	1775936973.874282	0.0	1.0	0.0	-1.0	-1.0	-1.0	1775936973.874282	peace	Peace	3	20260411_124810	Trigger
10414.664999999999	25518.105	-5779.575	-15829.425	0.0	0.0	0.0	0.0	0.0	0.0	0.0	0.0	0.0	0.0	0.0	0.0	0.0	0.0	144.55172413793105	0.0	0.063049155	0.49243038	0.8765846700000001	4.21176	-0.24416	-0.9308599999999999	425884.0	1775936973.874312	0.0	1.0	0.0	-1.0	-1.0	-1.0	1775936973.874312	peace	Peace	3	20260411_124810	Trigger
10379.609999999999	25006.454999999998	-5459.264999999999	-15570.494999999999	0.0	0.0	0.0	0.0	0.0	0.0	0.0	0.0	0.0	0.0	0.0	0.0	0.0	0.0	144.55172413793105	0.0	0.063049155	0.49243038	0.8765846700000001	4.21176	-0.24416	-0.9308599999999999	425885.0	1775936973.878022	0.0	1.0	0.0	-1.0	-1.0	-1.0	1775936973.878022	peace	Peace	3	20260411_124810	Trigger
10187.145	24485.895	-5219.955	-15389.414999999999	0.0	0.0	0.0	0.0	0.0	0.0	0.0	0.0	0.0	0.0	0.0	0.0	0.0	0.0	144.55172413793105	0.0	0.063049155	0.49243038	0.8765846700000001	4.21176	-0.24416	-0.9308599999999999	425886.0	1775936973.878046	0.0	1.0	0.0	-1.0	-1.0	-1.0	1775936973.878046	peace	Peace	3	20260411_124810	Trigger
9881.055	24250.32	-5196.15	-15402.824999999999	0.0	0.0	0.0	0.0	0.0	0.0	0.0	0.0	0.0	0.0	0.0	0.0	0.0	0.0	144.55172413793105	0.0	0.063049155	0.49243038	0.8765846700000001	4.21176	-0.24416	-0.9308599999999999	425887.0	1775936973.882046	0.0	1.0	0.0	-1.0	-1.0	-1.0	1775936973.882046	peace	Peace	3	20260411_124810	Trigger
9751.23	24390.495	-5349.33	-15542.73	0.0	0.0	0.0	0.0	0.0	0.0	0.0	0.0	0.0	0.0	0.0	0.0	0.0	0.0	144.55172413793105	0.0	0.063049155	0.49243038	0.8765846700000001	4.21176	-0.24416	-0.9308599999999999	425888.0	1775936973.882077	0.0	1.0	0.0	-1.0	-1.0	-1.0	1775936973.882077	peace	Peace	3	20260411_124810	Trigger
9803.385	24862.86	-5650.92	-15778.394999999999	0.0	0.0	0.0	0.0	0.0	0.0	0.0	0.0	0.0	0.0	0.0	0.0	0.0	0.0	144.55172413793105	0.0	0.06298812	0.48828	0.8771339850000001	6.11926	0.7019599999999999	-1.58704	425889.0	1775936973.886048	0.0	1.0	0.0	-1.0	-1.0	-1.0	1775936973.886048	peace	Peace	3	20260411_124810	Trigger
10001.475	25387.829999999998	-5917.365	-15979.14	0.0	0.0	0.0	0.0	0.0	0.0	0.0	0.0	0.0	0.0	0.0	0.0	0.0	0.0	144.55172413793105	0.0	0.06298812	0.48828	0.8771339850000001	6.11926	0.7019599999999999	-1.58704	425890.0	1775936973.886074	0.0	1.0	0.0	-1.0	-1.0	-1.0	1775936973.886074	peace	Peace	3	20260411_124810	Trigger
10265.76	25712.414999999997	-6007.95	-16035.795	0.0	0.0	0.0	0.0	0.0	0.0	0.0	0.0	0.0	0.0	0.0	0.0	0.0	0.0	144.55172413793105	0.0	0.06298812	0.48828	0.8771339850000001	6.11926	0.7019599999999999	-1.58704	425891.0	1775936973.889926	0.0	1.0	0.0	-1.0	-1.0	-1.0	1775936973.889926	peace	Peace	3	20260411_124810	Trigger
10365.39	25632.315	-5869.844999999999	-15901.019999999999	0.0	0.0	0.0	0.0	0.0	0.0	0.0	0.0	0.0	0.0	0.0	0.0	0.0	0.0	144.55172413793105	0.0	0.06298812	0.48828	0.8771339850000001	6.11926	0.7019599999999999	-1.58704	425892.0	1775936973.889951	0.0	1.0	0.0	-1.0	-1.0	-1.0	1775936973.889951	peace	Peace	3	20260411_124810	Trigger
10367.595	25187.76	-5570.639999999999	-15654.465	0.0	0.0	0.0	0.0	0.0	0.0	0.0	0.0	0.0	0.0	0.0	0.0	0.0	0.0	144.55172413793105	0.0	0.06298812	0.48828	0.8771339850000001	6.11926	0.7019599999999999	-1.58704	425893.0	1775936973.895657	0.0	1.0	0.0	-1.0	-1.0	-1.0	1775936973.895657	peace	Peace	3	20260411_124810	Trigger
10250.01	24634.98	-5285.745	-15442.875	0.0	0.0	0.0	0.0	0.0	0.0	0.0	0.0	0.0	0.0	0.0	0.0	0.0	0.0	144.55172413793105	0.0	0.06298812	0.48828	0.8771339850000001	6.11926	0.7019599999999999	-1.58704	425894.0	1775936973.895681	0.0	1.0	0.0	-1.0	-1.0	-1.0	1775936973.895681	peace	Peace	3	20260411_124810	Trigger
9991.619999999999	24278.895	-5180.04	-15383.744999999999	0.0	0.0	0.0	0.0	0.0	0.0	0.0	0.0	0.0	0.0	0.0	0.0	0.0	0.0	144.55172413793105	0.0	0.06298812	0.48828	0.8771339850000001	6.11926	0.7019599999999999	-1.58704	425895.0	1775936973.899476	0.0	1.0	0.0	-1.0	-1.0	-1.0	1775936973.899476	peace	Peace	3	20260411_124810	Trigger
9772.244999999999	24297.12	-5294.5199999999995	-15499.755	0.0	0.0	0.0	0.0	0.0	0.0	0.0	0.0	0.0	0.0	0.0	0.0	0.0	0.0	144.55172413793105	0.0	0.06298812	0.48828	0.8771339850000001	6.11926	0.7019599999999999	-1.58704	425896.0	1775936973.899499	0.0	1.0	0.0	-1.0	-1.0	-1.0	1775936973.899499	peace	Peace	3	20260411_124810	Trigger
9766.26	24681.51	-5558.355	-15708.06	0.0	0.0	0.0	0.0	0.0	0.0	0.0	0.0	0.0	0.0	0.0	0.0	0.0	0.0	144.55172413793105	0.0	0.06298812	0.48828	0.8771339850000001	6.11926	0.7019599999999999	-1.58704	425897.0	1775936973.901996	0.0	1.0	0.0	-1.0	-1.0	-1.0	1775936973.901996	peace	Peace	3	20260411_124810	Trigger
9929.565	25255.934999999998	-5849.865	-15928.965	0.0	0.0	0.0	0.0	0.0	0.0	0.0	0.0	0.0	0.0	0.0	0.0	0.0	0.0	144.55172413793105	0.0	0.06298812	0.48828	0.8771339850000001	6.11926	0.7019599999999999	-1.58704	425898.0	1775936973.902019	0.0	1.0	0.0	-1.0	-1.0	-1.0	1775936973.902019	peace	Peace	3	20260411_124810	Trigger
10167.21	25698.195	-6012.495	-16039.215	0.0	0.0	0.0	0.0	0.0	0.0	0.0	0.0	0.0	0.0	0.0	0.0	0.0	0.0	144.55172413793105	0.0	0.060851895	0.490294155	0.876767775	5.508859999999999	0.09156	-0.48832	425899.0	1775936973.905967	0.0	1.0	0.0	-1.0	-1.0	-1.0	1775936973.905967	peace	Peace	3	20260411_124810	Trigger
10330.92	25752.645	-5941.304999999999	-15963.435	0.0	0.0	0.0	0.0	0.0	0.0	0.0	0.0	0.0	0.0	0.0	0.0	0.0	0.0	144.55172413793105	0.0	0.060851895	0.490294155	0.876767775	5.508859999999999	0.09156	-0.48832	425900.0	1775936973.905991	0.0	1.0	0.0	-1.0	-1.0	-1.0	1775936973.905991	peace	Peace	3	20260411_124810	Trigger
10383.885	25403.309999999998	-5677.245	-15742.305	0.0	0.0	0.0	0.0	0.0	0.0	0.0	0.0	0.0	0.0	0.0	0.0	0.0	0.0	144.55172413793105	0.0	0.060851895	0.490294155	0.876767775	5.508859999999999	0.09156	-0.48832	425901.0	1775936973.910185	0.0	1.0	0.0	-1.0	-1.0	-1.0	1775936973.910185	peace	Peace	3	20260411_124810	Trigger
10286.055	24847.29	-5375.295	-15507.224999999999	0.0	0.0	0.0	0.0	0.0	0.0	0.0	0.0	0.0	0.0	0.0	0.0	0.0	0.0	144.55172413793105	0.0	0.060851895	0.490294155	0.876767775	5.508859999999999	0.09156	-0.48832	425902.0	1775936973.910221	0.0	1.0	0.0	-1.0	-1.0	-1.0	1775936973.910221	peace	Peace	3	20260411_124810	Trigger
10076.355	24385.05	-5186.07	-15374.97	0.0	0.0	0.0	0.0	0.0	0.0	0.0	0.0	0.0	0.0	0.0	0.0	0.0	0.0	144.55172413793105	0.0	0.060851895	0.490294155	0.876767775	5.508859999999999	0.09156	-0.48832	425903.0	1775936973.914142	0.0	1.0	0.0	-1.0	-1.0	-1.0	1775936973.914142	peace	Peace	3	20260411_124810	Trigger
9808.38	24283.17	-5242.23	-15448.365	0.0	0.0	0.0	0.0	0.0	0.0	0.0	0.0	0.0	0.0	0.0	0.0	0.0	0.0	144.55172413793105	0.0	0.060851895	0.490294155	0.876767775	5.508859999999999	0.09156	-0.48832	425904.0	1775936973.914175	0.0	1.0	0.0	-1.0	-1.0	-1.0	1775936973.914175	peace	Peace	3	20260411_124810	Trigger
9761.13	24539.175	-5457.825	-15628.275	0.0	0.0	0.0	0.0	0.0	0.0	0.0	0.0	0.0	0.0	0.0	0.0	0.0	0.0	144.55172413793105	0.0	0.060851895	0.490294155	0.876767775	5.508859999999999	0.09156	-0.48832	425905.0	1775936973.918158	0.0	1.0	0.0	-1.0	-1.0	-1.0	1775936973.918158	peace	Peace	3	20260411_124810	Trigger
9885.105	25065.855	-5762.205	-15863.085	0.0	0.0	0.0	0.0	0.0	0.0	0.0	0.0	0.0	0.0	0.0	0.0	0.0	0.0	144.55172413793105	0.0	0.060851895	0.490294155	0.876767775	5.508859999999999	0.09156	-0.48832	425906.0	1775936973.918189	0.0	1.0	0.0	-1.0	-1.0	-1.0	1775936973.918189	peace	Peace	3	20260411_124810	Trigger
10099.71	25548.885	-5979.554999999999	-16020.539999999999	0.0	0.0	0.0	0.0	0.0	0.0	0.0	0.0	0.0	0.0	0.0	0.0	0.0	0.0	144.55172413793105	0.0	0.060851895	0.490294155	0.876767775	5.508859999999999	0.09156	-0.48832	425907.0	1775936973.922121	0.0	1.0	0.0	-1.0	-1.0	-1.0	1775936973.922121	peace	Peace	3	20260411_124810	Trigger
10308.824999999999	25719.48	-5977.44	-15997.949999999999	0.0	0.0	0.0	0.0	0.0	0.0	0.0	0.0	0.0	0.0	0.0	0.0	0.0	0.0	144.55172413793105	0.0	0.060851895	0.490294155	0.876767775	5.508859999999999	0.09156	-0.48832	425908.0	1775936973.922146	0.0	1.0	0.0	-1.0	-1.0	-1.0	1775936973.922146	peace	Peace	3	20260411_124810	Trigger
10398.779999999999	25465.86	-5766.795	-15817.814999999999	0.0	0.0	0.0	0.0	0.0	0.0	0.0	0.0	0.0	0.0	0.0	0.0	0.0	0.0	144.55172413793105	0.0	0.058166355	0.49255245000000003	0.878232615	3.76922	-0.2289	-0.13734	425909.0	1775936973.927515	0.0	1.0	0.0	-1.0	-1.0	-1.0	1775936973.927515	peace	Peace	3	20260411_124810	Trigger
10344.914999999999	24934.725	-5450.715	-15562.529999999999	0.0	0.0	0.0	0.0	0.0	0.0	0.0	0.0	0.0	0.0	0.0	0.0	0.0	0.0	144.55172413793105	0.0	0.058166355	0.49255245000000003	0.878232615	3.76922	-0.2289	-0.13734	425910.0	1775936973.927539	0.0	1.0	0.0	-1.0	-1.0	-1.0	1775936973.927539	peace	Peace	3	20260411_124810	Trigger
10172.295	24426.629999999997	-5210.1449999999995	-15386.939999999999	0.0	0.0	0.0	0.0	0.0	0.0	0.0	0.0	0.0	0.0	0.0	0.0	0.0	0.0	144.55172413793105	0.0	0.058166355	0.49255245000000003	0.878232615	3.76922	-0.2289	-0.13734	425911.0	1775936973.931475	0.0	1.0	0.0	-1.0	-1.0	-1.0	1775936973.931475	peace	Peace	3	20260411_124810	Trigger
9890.775	24203.34	-5198.445	-15411.869999999999	0.0	0.0	0.0	0.0	0.0	0.0	0.0	0.0	0.0	0.0	0.0	0.0	0.0	0.0	144.55172413793105	0.0	0.058166355	0.49255245000000003	0.878232615	3.76922	-0.2289	-0.13734	425912.0	1775936973.931499	0.0	1.0	0.0	-1.0	-1.0	-1.0	1775936973.931499	peace	Peace	3	20260411_124810	Trigger
9763.875	24350.129999999997	-5368.095	-15560.055	0.0	0.0	0.0	0.0	0.0	0.0	0.0	0.0	0.0	0.0	0.0	0.0	0.0	0.0	144.55172413793105	0.0	0.058166355	0.49255245000000003	0.878232615	3.76922	-0.2289	-0.13734	425913.0	1775936973.934101	0.0	1.0	0.0	-1.0	-1.0	-1.0	1775936973.934101	peace	Peace	3	20260411_124810	Trigger
9833.355	24840.27	-5670.45	-15795.18	0.0	0.0	0.0	0.0	0.0	0.0	0.0	0.0	0.0	0.0	0.0	0.0	0.0	0.0	144.55172413793105	0.0	0.058166355	0.49255245000000003	0.878232615	3.76922	-0.2289	-0.13734	425914.0	1775936973.934156	0.0	1.0	0.0	-1.0	-1.0	-1.0	1775936973.934156	peace	Peace	3	20260411_124810	Trigger
10044.81	25366.32	-5914.08	-15972.21	0.0	0.0	0.0	0.0	0.0	0.0	0.0	0.0	0.0	0.0	0.0	0.0	0.0	0.0	144.55172413793105	0.0	0.058166355	0.49255245000000003	0.878232615	3.76922	-0.2289	-0.13734	425915.0	1775936973.938144	0.0	1.0	0.0	-1.0	-1.0	-1.0	1775936973.938144	peace	Peace	3	20260411_124810	Trigger
10281.51	25656.3	-5984.1449999999995	-16005.375	0.0	0.0	0.0	0.0	0.0	0.0	0.0	0.0	0.0	0.0	0.0	0.0	0.0	0.0	144.55172413793105	0.0	0.058166355	0.49255245000000003	0.878232615	3.76922	-0.2289	-0.13734	425916.0	1775936973.93817	0.0	1.0	0.0	-1.0	-1.0	-1.0	1775936973.93817	peace	Peace	3	20260411_124810	Trigger
10396.845	25546.184999999998	-5840.865	-15879.195	0.0	0.0	0.0	0.0	0.0	0.0	0.0	0.0	0.0	0.0	0.0	0.0	0.0	0.0	144.55172413793105	0.0	0.058166355	0.49255245000000003	0.878232615	3.76922	-0.2289	-0.13734	425917.0	1775936973.94211	0.0	1.0	0.0	-1.0	-1.0	-1.0	1775936973.94211	peace	Peace	3	20260411_124810	Trigger
10387.98	25089.165	-5550.705	-15648.3	0.0	0.0	0.0	0.0	0.0	0.0	0.0	0.0	0.0	0.0	0.0	0.0	0.0	0.0	144.55172413793105	0.0	0.058166355	0.49255245000000003	0.878232615	3.76922	-0.2289	-0.13734	425918.0	1775936973.942144	0.0	1.0	0.0	-1.0	-1.0	-1.0	1775936973.942144	peace	Peace	3	20260411_124810	Trigger
10236.285	24536.43	-5271.929999999999	-15433.019999999999	0.0	0.0	0.0	0.0	0.0	0.0	0.0	0.0	0.0	0.0	0.0	0.0	0.0	0.0	144.55172413793105	0.0	0.05932602	0.49047726	0.877256055	4.25754	-0.4578	-0.3815	425919.0	1775936973.946327	0.0	1.0	0.0	-1.0	-1.0	-1.0	1775936973.946327	peace	Peace	3	20260411_124810	Trigger
9980.369999999999	24201.675	-5173.335	-15378.074999999999	0.0	0.0	0.0	0.0	0.0	0.0	0.0	0.0	0.0	0.0	0.0	0.0	0.0	0.0	144.55172413793105	0.0	0.05932602	0.49047726	0.877256055	4.25754	-0.4578	-0.3815	425920.0	1775936973.946353	0.0	1.0	0.0	-1.0	-1.0	-1.0	1775936973.946353	peace	Peace	3	20260411_124810	Trigger
9776.295	24261.344999999998	-5302.215	-15503.4	0.0	0.0	0.0	0.0	0.0	0.0	0.0	0.0	0.0	0.0	0.0	0.0	0.0	0.0	144.55172413793105	0.0	0.05932602	0.49047726	0.877256055	4.25754	-0.4578	-0.3815	425921.0	1775936973.950232	0.0	1.0	0.0	-1.0	-1.0	-1.0	1775936973.950232	peace	Peace	3	20260411_124810	Trigger
9787.994999999999	24670.17	-5578.695	-15726.599999999999	0.0	0.0	0.0	0.0	0.0	0.0	0.0	0.0	0.0	0.0	0.0	0.0	0.0	0.0	144.55172413793105	0.0	0.05932602	0.49047726	0.877256055	4.25754	-0.4578	-0.3815	425922.0	1775936973.950267	0.0	1.0	0.0	-1.0	-1.0	-1.0	1775936973.950267	peace	Peace	3	20260411_124810	Trigger
9981.539999999999	25212.645	-5849.82	-15929.595	0.0	0.0	0.0	0.0	0.0	0.0	0.0	0.0	0.0	0.0	0.0	0.0	0.0	0.0	144.55172413793105	0.0	0.05932602	0.49047726	0.877256055	4.25754	-0.4578	-0.3815	425923.0	1775936973.955254	0.0	1.0	0.0	-1.0	-1.0	-1.0	1775936973.955254	peace	Peace	3	20260411_124810	Trigger
10212.93	25606.53	-5988.33	-16013.34	0.0	0.0	0.0	0.0	0.0	0.0	0.0	0.0	0.0	0.0	0.0	0.0	0.0	0.0	144.55172413793105	0.0	0.05932602	0.49047726	0.877256055	4.25754	-0.4578	-0.3815	425924.0	1775936973.955281	0.0	1.0	0.0	-1.0	-1.0	-1.0	1775936973.955281	peace	Peace	3	20260411_124810	Trigger
10374.3	25624.395	-5916.735	-15947.73	0.0	0.0	0.0	0.0	0.0	0.0	0.0	0.0	0.0	0.0	0.0	0.0	0.0	0.0	144.55172413793105	0.0	0.05932602	0.49047726	0.877256055	4.25754	-0.4578	-0.3815	425925.0	1775936973.960717	0.0	1.0	0.0	-1.0	-1.0	-1.0	1775936973.960717	peace	Peace	3	20260411_124810	Trigger
10402.335	25264.26	-5661.0	-15739.244999999999	0.0	0.0	0.0	0.0	0.0	0.0	0.0	0.0	0.0	0.0	0.0	0.0	0.0	0.0	144.55172413793105	0.0	0.05932602	0.49047726	0.877256055	4.25754	-0.4578	-0.3815	425926.0	1775936973.960742	0.0	1.0	0.0	-1.0	-1.0	-1.0	1775936973.960742	peace	Peace	3	20260411_124810	Trigger
10280.475	24708.555	-5357.565	-15498.945	0.0	0.0	0.0	0.0	0.0	0.0	0.0	0.0	0.0	0.0	0.0	0.0	0.0	0.0	144.55172413793105	0.0	0.05932602	0.49047726	0.877256055	4.25754	-0.4578	-0.3815	425927.0	1775936973.962136	0.0	1.0	0.0	-1.0	-1.0	-1.0	1775936973.962136	peace	Peace	3	20260411_124810	Trigger
10054.215	24282.719999999998	-5196.51	-15394.724999999999	0.0	0.0	0.0	0.0	0.0	0.0	0.0	0.0	0.0	0.0	0.0	0.0	0.0	0.0	144.55172413793105	0.0	0.05932602	0.49047726	0.877256055	4.25754	-0.4578	-0.3815	425928.0	1775936973.96216	0.0	1.0	0.0	-1.0	-1.0	-1.0	1775936973.96216	peace	Peace	3	20260411_124810	Trigger
9792.9	24218.774999999998	-5269.095	-15480.63	0.0	0.0	0.0	0.0	0.0	0.0	0.0	0.0	0.0	0.0	0.0	0.0	0.0	0.0	144.55172413793105	0.0	0.06359847	0.49157589	0.8776833	3.4335	0.06104	0.16785999999999998	425929.0	1775936973.966179	0.0	1.0	0.0	-1.0	-1.0	-1.0	1775936973.966179	peace	Peace	3	20260411_124810	Trigger
9768.869999999999	24504.39	-5487.75	-15659.595	0.0	0.0	0.0	0.0	0.0	0.0	0.0	0.0	0.0	0.0	0.0	0.0	0.0	0.0	144.55172413793105	0.0	0.06359847	0.49157589	0.8776833	3.4335	0.06104	0.16785999999999998	425930.0	1775936973.96621	0.0	1.0	0.0	-1.0	-1.0	-1.0	1775936973.96621	peace	Peace	3	20260411_124810	Trigger
9911.925	25036.2	-5783.535	-15885.855	0.0	0.0	0.0	0.0	0.0	0.0	0.0	0.0	0.0	0.0	0.0	0.0	0.0	0.0	144.55172413793105	0.0	0.06359847	0.49157589	0.8776833	3.4335	0.06104	0.16785999999999998	425931.0	1775936973.970228	0.0	1.0	0.0	-1.0	-1.0	-1.0	1775936973.970228	peace	Peace	3	20260411_124810	Trigger
10120.994999999999	25512.075	-5985.63	-16025.265	0.0	0.0	0.0	0.0	0.0	0.0	0.0	0.0	0.0	0.0	0.0	0.0	0.0	0.0	144.55172413793105	0.0	0.06359847	0.49157589	0.8776833	3.4335	0.06104	0.16785999999999998	425932.0	1775936973.970254	0.0	1.0	0.0	-1.0	-1.0	-1.0	1775936973.970254	peace	Peace	3	20260411_124810	Trigger
10327.185	25647.57	-5971.41	-15997.095	0.0	0.0	0.0	0.0	0.0	0.0	0.0	0.0	0.0	0.0	0.0	0.0	0.0	0.0	144.55172413793105	0.0	0.06359847	0.49157589	0.8776833	3.4335	0.06104	0.16785999999999998	425933.0	1775936973.974218	0.0	1.0	0.0	-1.0	-1.0	-1.0	1775936973.974218	peace	Peace	3	20260411_124810	Trigger
10414.71	25385.445	-5752.755	-15814.755	0.0	0.0	0.0	0.0	0.0	0.0	0.0	0.0	0.0	0.0	0.0	0.0	0.0	0.0	144.55172413793105	0.0	0.06359847	0.49157589	0.8776833	3.4335	0.06104	0.16785999999999998	425934.0	1775936973.974244	0.0	1.0	0.0	-1.0	-1.0	-1.0	1775936973.974244	peace	Peace	3	20260411_124810	Trigger
10346.625	24862.77	-5441.715	-15565.005	0.0	0.0	0.0	0.0	0.0	0.0	0.0	0.0	0.0	0.0	0.0	0.0	0.0	0.0	144.55172413793105	0.0	0.06359847	0.49157589	0.8776833	3.4335	0.06104	0.16785999999999998	425935.0	1775936973.978301	0.0	1.0	0.0	-1.0	-1.0	-1.0	1775936973.978301	peace	Peace	3	20260411_124810	Trigger
10151.955	24372.405	-5221.62	-15399.18	0.0	0.0	0.0	0.0	0.0	0.0	0.0	0.0	0.0	0.0	0.0	0.0	0.0	0.0	144.55172413793105	0.0	0.06359847	0.49157589	0.8776833	3.4335	0.06104	0.16785999999999998	425936.0	1775936973.978325	0.0	1.0	0.0	-1.0	-1.0	-1.0	1775936973.978325	peace	Peace	3	20260411_124810	Trigger
9852.66	24191.504999999997	-5226.66	-15429.24	0.0	0.0	0.0	0.0	0.0	0.0	0.0	0.0	0.0	0.0	0.0	0.0	0.0	0.0	144.55172413793105	0.0	0.06359847	0.49157589	0.8776833	3.4335	0.06104	0.16785999999999998	425937.0	1775936973.983312	0.0	1.0	0.0	-1.0	-1.0	-1.0	1775936973.983312	peace	Peace	3	20260411_124810	Trigger
9738.135	24375.96	-5399.054999999999	-15578.595	0.0	0.0	0.0	0.0	0.0	0.0	0.0	0.0	0.0	0.0	0.0	0.0	0.0	0.0	144.55172413793105	0.0	0.06359847	0.49157589	0.8776833	3.4335	0.06104	0.16785999999999998	425938.0	1775936973.983336	0.0	1.0	0.0	-1.0	-1.0	-1.0	1775936973.983336	peace	Peace	3	20260411_124810	Trigger
9839.34	24871.815	-5697.63	-15819.029999999999	0.0	0.0	0.0	0.0	0.0	0.0	0.0	0.0	0.0	0.0	0.0	0.0	0.0	0.0	144.55172413793105	0.0	0.065246415	0.48913449000000003	0.8771339850000001	3.7234399999999996	-0.03052	-0.77826	425939.0	1775936973.988148	0.0	1.0	0.0	-1.0	-1.0	-1.0	1775936973.988148	peace	Peace	3	20260411_124810	Trigger
10061.369999999999	25392.015	-5939.594999999999	-16003.935	0.0	0.0	0.0	0.0	0.0	0.0	0.0	0.0	0.0	0.0	0.0	0.0	0.0	0.0	144.55172413793105	0.0	0.065246415	0.48913449000000003	0.8771339850000001	3.7234399999999996	-0.03052	-0.77826	425940.0	1775936973.988173	0.0	1.0	0.0	-1.0	-1.0	-1.0	1775936973.988173	peace	Peace	3	20260411_124810	Trigger
10292.445	25659.585	-5998.995	-16028.505	0.0	0.0	0.0	0.0	0.0	0.0	0.0	0.0	0.0	0.0	0.0	0.0	0.0	0.0	144.55172413793105	0.0	0.065246415	0.48913449000000003	0.8771339850000001	3.7234399999999996	-0.03052	-0.77826	425941.0	1775936973.990516	0.0	1.0	0.0	-1.0	-1.0	-1.0	1775936973.990516	peace	Peace	3	20260411_124810	Trigger
10381.77	25515.585	-5837.849999999999	-15882.074999999999	0.0	0.0	0.0	0.0	0.0	0.0	0.0	0.0	0.0	0.0	0.0	0.0	0.0	0.0	144.55172413793105	0.0	0.065246415	0.48913449000000003	0.8771339850000001	3.7234399999999996	-0.03052	-0.77826	425942.0	1775936973.99054	0.0	1.0	0.0	-1.0	-1.0	-1.0	1775936973.99054	peace	Peace	3	20260411_124810	Trigger
10369.44	25036.245	-5526.54	-15625.529999999999	0.0	0.0	0.0	0.0	0.0	0.0	0.0	0.0	0.0	0.0	0.0	0.0	0.0	0.0	144.55172413793105	0.0	0.065246415	0.48913449000000003	0.8771339850000001	3.7234399999999996	-0.03052	-0.77826	425943.0	1775936973.994754	0.0	1.0	0.0	-1.0	-1.0	-1.0	1775936973.994754	peace	Peace	3	20260411_124810	Trigger
10220.715	24490.395	-5259.825	-15424.605	0.0	0.0	0.0	0.0	0.0	0.0	0.0	0.0	0.0	0.0	0.0	0.0	0.0	0.0	144.55172413793105	0.0	0.065246415	0.48913449000000003	0.8771339850000001	3.7234399999999996	-0.03052	-0.77826	425944.0	1775936973.994778	0.0	1.0	0.0	-1.0	-1.0	-1.0	1775936973.994778	peace	Peace	3	20260411_124810	Trigger
9948.645	24176.61	-5184.945	-15394.365	0.0	0.0	0.0	0.0	0.0	0.0	0.0	0.0	0.0	0.0	0.0	0.0	0.0	0.0	144.55172413793105	0.0	0.065246415	0.48913449000000003	0.8771339850000001	3.7234399999999996	-0.03052	-0.77826	425945.0	1775936973.998369	0.0	1.0	0.0	-1.0	-1.0	-1.0	1775936973.998369	peace	Peace	3	20260411_124810	Trigger
9768.645	24255.405	-5324.76	-15528.195	0.0	0.0	0.0	0.0	0.0	0.0	0.0	0.0	0.0	0.0	0.0	0.0	0.0	0.0	144.55172413793105	0.0	0.065246415	0.48913449000000003	0.8771339850000001	3.7234399999999996	-0.03052	-0.77826	425946.0	1775936973.998403	0.0	1.0	0.0	-1.0	-1.0	-1.0	1775936973.998403	peace	Peace	3	20260411_124810	Trigger
9800.46	24681.735	-5603.264999999999	-15748.289999999999	0.0	0.0	0.0	0.0	0.0	0.0	0.0	0.0	0.0	0.0	0.0	0.0	0.0	0.0	144.55172413793105	0.0	0.065246415	0.48913449000000003	0.8771339850000001	3.7234399999999996	-0.03052	-0.77826	425947.0	1775936974.002348	0.0	1.0	0.0	-1.0	-1.0	-1.0	1775936974.002348	peace	Peace	3	20260411_124810	Trigger
9980.955	25223.985	-5874.705	-15950.609999999999	0.0	0.0	0.0	0.0	0.0	0.0	0.0	0.0	0.0	0.0	0.0	0.0	0.0	0.0	144.55172413793105	0.0	0.065246415	0.48913449000000003	0.8771339850000001	3.7234399999999996	-0.03052	-0.77826	425948.0	1775936974.002372	0.0	1.0	0.0	-1.0	-1.0	-1.0	1775936974.002372	peace	Peace	3	20260411_124810	Trigger
10211.22	25604.325	-6015.105	-16039.08	0.0	0.0	0.0	0.0	0.0	0.0	0.0	0.0	0.0	0.0	0.0	0.0	0.0	0.0	144.55172413793105	0.0	0.064880205	0.485899635	0.879331245	6.0582199999999995	0.41202	-2.12114	425949.0	1775936974.006274	0.0	1.0	0.0	-1.0	-1.0	-1.0	1775936974.006274	peace	Peace	3	20260411_124810	Trigger
10361.07	25585.469999999998	-5919.885	-15949.215	0.0	0.0	0.0	0.0	0.0	0.0	0.0	0.0	0.0	0.0	0.0	0.0	0.0	0.0	144.55172413793105	0.0	0.064880205	0.485899635	0.879331245	6.0582199999999995	0.41202	-2.12114	425950.0	1775936974.006298	0.0	1.0	0.0	-1.0	-1.0	-1.0	1775936974.006298	peace	Peace	3	20260411_124810	Trigger
10390.41	25193.969999999998	-5639.715	-15714.855	0.0	0.0	0.0	0.0	0.0	0.0	0.0	0.0	0.0	0.0	0.0	0.0	0.0	0.0	144.55172413793105	0.0	0.064880205	0.485899635	0.879331245	6.0582199999999995	0.41202	-2.12114	425951.0	1775936974.013801	0.0	1.0	0.0	-1.0	-1.0	-1.0	1775936974.013801	peace	Peace	3	20260411_124810	Trigger
10267.244999999999	24641.01	-5340.285	-15476.715	0.0	0.0	0.0	0.0	0.0	0.0	0.0	0.0	0.0	0.0	0.0	0.0	0.0	0.0	144.55172413793105	0.0	0.064880205	0.485899635	0.879331245	6.0582199999999995	0.41202	-2.12114	425952.0	1775936974.013824	0.0	1.0	0.0	-1.0	-1.0	-1.0	1775936974.013824	peace	Peace	3	20260411_124810	Trigger
10027.71	24219.809999999998	-5189.804999999999	-15375.869999999999	0.0	0.0	0.0	0.0	0.0	0.0	0.0	0.0	0.0	0.0	0.0	0.0	0.0	0.0	144.55172413793105	0.0	0.064880205	0.485899635	0.879331245	6.0582199999999995	0.41202	-2.12114	425953.0	1775936974.015796	0.0	1.0	0.0	-1.0	-1.0	-1.0	1775936974.015796	peace	Peace	3	20260411_124810	Trigger
9783.63	24171.254999999997	-5286.69	-15477.435	0.0	0.0	0.0	0.0	0.0	0.0	0.0	0.0	0.0	0.0	0.0	0.0	0.0	0.0	144.55172413793105	0.0	0.064880205	0.485899635	0.879331245	6.0582199999999995	0.41202	-2.12114	425954.0	1775936974.015819	0.0	1.0	0.0	-1.0	-1.0	-1.0	1775936974.015819	peace	Peace	3	20260411_124810	Trigger
9780.93	24494.265	-5522.4	-15672.644999999999	0.0	0.0	0.0	0.0	0.0	0.0	0.0	0.0	0.0	0.0	0.0	0.0	0.0	0.0	144.55172413793105	0.0	0.064880205	0.485899635	0.879331245	6.0582199999999995	0.41202	-2.12114	425955.0	1775936974.018334	0.0	1.0	0.0	-1.0	-1.0	-1.0	1775936974.018334	peace	Peace	3	20260411_124810	Trigger
9949.994999999999	25034.355	-5801.355	-15900.029999999999	0.0	0.0	0.0	0.0	0.0	0.0	0.0	0.0	0.0	0.0	0.0	0.0	0.0	0.0	144.55172413793105	0.0	0.064880205	0.485899635	0.879331245	6.0582199999999995	0.41202	-2.12114	425956.0	1775936974.018358	0.0	1.0	0.0	-1.0	-1.0	-1.0	1775936974.018358	peace	Peace	3	20260411_124810	Trigger
10170.539999999999	25479.54	-5986.575	-16024.095	0.0	0.0	0.0	0.0	0.0	0.0	0.0	0.0	0.0	0.0	0.0	0.0	0.0	0.0	144.55172413793105	0.0	0.064880205	0.485899635	0.879331245	6.0582199999999995	0.41202	-2.12114	425957.0	1775936974.022369	0.0	1.0	0.0	-1.0	-1.0	-1.0	1775936974.022369	peace	Peace	3	20260411_124810	Trigger
10348.74	25576.379999999997	-5960.969999999999	-15987.015	0.0	0.0	0.0	0.0	0.0	0.0	0.0	0.0	0.0	0.0	0.0	0.0	0.0	0.0	144.55172413793105	0.0	0.064880205	0.485899635	0.879331245	6.0582199999999995	0.41202	-2.12114	425958.0	1775936974.022392	0.0	1.0	0.0	-1.0	-1.0	-1.0	1775936974.022392	peace	Peace	3	20260411_124810	Trigger
10431.359999999999	25285.86	-5727.15	-15805.305	0.0	0.0	0.0	0.0	0.0	0.0	0.0	0.0	0.0	0.0	0.0	0.0	0.0	0.0	144.55172413793105	0.0	0.06311019	0.488218965	0.878598825	5.15788	-0.19838	0.04578	425959.0	1775936974.026376	0.0	1.0	0.0	-1.0	-1.0	-1.0	1775936974.026376	peace	Peace	3	20260411_124810	Trigger
10366.02	24747.12	-5420.925	-15566.715	0.0	0.0	0.0	0.0	0.0	0.0	0.0	0.0	0.0	0.0	0.0	0.0	0.0	0.0	144.55172413793105	0.0	0.06311019	0.488218965	0.878598825	5.15788	-0.19838	0.04578	425960.0	1775936974.0264	0.0	1.0	0.0	-1.0	-1.0	-1.0	1775936974.0264	peace	Peace	3	20260411_124810	Trigger
10157.085	24258.329999999998	-5199.705	-15388.695	0.0	0.0	0.0	0.0	0.0	0.0	0.0	0.0	0.0	0.0	0.0	0.0	0.0	0.0	144.55172413793105	0.0	0.06311019	0.488218965	0.878598825	5.15788	-0.19838	0.04578	425961.0	1775936974.030382	0.0	1.0	0.0	-1.0	-1.0	-1.0	1775936974.030382	peace	Peace	3	20260411_124810	Trigger
9871.335	24102.405	-5210.955	-15420.779999999999	0.0	0.0	0.0	0.0	0.0	0.0	0.0	0.0	0.0	0.0	0.0	0.0	0.0	0.0	144.55172413793105	0.0	0.06311019	0.488218965	0.878598825	5.15788	-0.19838	0.04578	425962.0	1775936974.030406	0.0	1.0	0.0	-1.0	-1.0	-1.0	1775936974.030406	peace	Peace	3	20260411_124810	Trigger
9792.855	24317.415	-5390.37	-15564.33	0.0	0.0	0.0	0.0	0.0	0.0	0.0	0.0	0.0	0.0	0.0	0.0	0.0	0.0	144.55172413793105	0.0	0.06311019	0.488218965	0.878598825	5.15788	-0.19838	0.04578	425963.0	1775936974.034432	0.0	1.0	0.0	-1.0	-1.0	-1.0	1775936974.034432	peace	Peace	3	20260411_124810	Trigger
9874.755	24829.965	-5676.4349999999995	-15772.455	0.0	0.0	0.0	0.0	0.0	0.0	0.0	0.0	0.0	0.0	0.0	0.0	0.0	0.0	144.55172413793105	0.0	0.06311019	0.488218965	0.878598825	5.15788	-0.19838	0.04578	425964.0	1775936974.034462	0.0	1.0	0.0	-1.0	-1.0	-1.0	1775936974.034462	peace	Peace	3	20260411_124810	Trigger
10081.26	25329.059999999998	-5922.045	-15940.08	0.0	0.0	0.0	0.0	0.0	0.0	0.0	0.0	0.0	0.0	0.0	0.0	0.0	0.0	144.55172413793105	0.0	0.06311019	0.488218965	0.878598825	5.15788	-0.19838	0.04578	425965.0	1775936974.038405	0.0	1.0	0.0	-1.0	-1.0	-1.0	1775936974.038405	peace	Peace	3	20260411_124810	Trigger
10277.73	25565.175	-5994.0	-15982.109999999999	0.0	0.0	0.0	0.0	0.0	0.0	0.0	0.0	0.0	0.0	0.0	0.0	0.0	0.0	144.55172413793105	0.0	0.06311019	0.488218965	0.878598825	5.15788	-0.19838	0.04578	425966.0	1775936974.038432	0.0	1.0	0.0	-1.0	-1.0	-1.0	1775936974.038432	peace	Peace	3	20260411_124810	Trigger
10381.14	25390.125	-5824.035	-15861.105	0.0	0.0	0.0	0.0	0.0	0.0	0.0	0.0	0.0	0.0	0.0	0.0	0.0	0.0	144.55172413793105	0.0	0.06311019	0.488218965	0.878598825	5.15788	-0.19838	0.04578	425967.0	1775936974.042473	0.0	1.0	0.0	-1.0	-1.0	-1.0	1775936974.042473	peace	Peace	3	20260411_124810	Trigger
10360.619999999999	24888.465	-5507.594999999999	-15611.265	0.0	0.0	0.0	0.0	0.0	0.0	0.0	0.0	0.0	0.0	0.0	0.0	0.0	0.0	144.55172413793105	0.0	0.06311019	0.488218965	0.878598825	5.15788	-0.19838	0.04578	425968.0	1775936974.042498	0.0	1.0	0.0	-1.0	-1.0	-1.0	1775936974.042498	peace	Peace	3	20260411_124810	Trigger
10214.955	24367.77	-5233.59	-15402.33	0.0	0.0	0.0	0.0	0.0	0.0	0.0	0.0	0.0	0.0	0.0	0.0	0.0	0.0	144.55172413793105	0.0	0.06372054	0.49023312	0.8750587950000001	2.1669199999999997	2.88414	1.2207999999999999	425969.0	1775936974.046579	0.0	1.0	0.0	-1.0	-1.0	-1.0	1775936974.046579	peace	Peace	3	20260411_124810	Trigger
9900.945	24090.344999999998	-5222.835	-15428.115	0.0	0.0	0.0	0.0	0.0	0.0	0.0	0.0	0.0	0.0	0.0	0.0	0.0	0.0	144.55172413793105	0.0	0.06372054	0.49023312	0.8750587950000001	2.1669199999999997	2.88414	1.2207999999999999	425970.0	1775936974.046604	0.0	1.0	0.0	-1.0	-1.0	-1.0	1775936974.046604	peace	Peace	3	20260411_124810	Trigger
9803.789999999999	24198.93	-5345.054999999999	-15559.65	0.0	0.0	0.0	0.0	0.0	0.0	0.0	0.0	0.0	0.0	0.0	0.0	0.0	0.0	144.55172413793105	0.0	0.06372054	0.49023312	0.8750587950000001	2.1669199999999997	2.88414	1.2207999999999999	425971.0	1775936974.05085	0.0	1.0	0.0	-1.0	-1.0	-1.0	1775936974.05085	peace	Peace	3	20260411_124810	Trigger
9863.955	24644.745	-5626.665	-15810.795	0.0	0.0	0.0	0.0	0.0	0.0	0.0	0.0	0.0	0.0	0.0	0.0	0.0	0.0	144.55172413793105	0.0	0.06372054	0.49023312	0.8750587950000001	2.1669199999999997	2.88414	1.2207999999999999	425972.0	1775936974.050885	0.0	1.0	0.0	-1.0	-1.0	-1.0	1775936974.050885	peace	Peace	3	20260411_124810	Trigger
10010.205	25172.01	-5926.815	-16033.59	0.0	0.0	0.0	0.0	0.0	0.0	0.0	0.0	0.0	0.0	0.0	0.0	0.0	0.0	144.55172413793105	0.0	0.06372054	0.49023312	0.8750587950000001	2.1669199999999997	2.88414	1.2207999999999999	425973.0	1775936974.054445	0.0	1.0	0.0	-1.0	-1.0	-1.0	1775936974.054445	peace	Peace	3	20260411_124810	Trigger
10229.085	25542.135	-6056.505	-16111.439999999999	0.0	0.0	0.0	0.0	0.0	0.0	0.0	0.0	0.0	0.0	0.0	0.0	0.0	0.0	144.55172413793105	0.0	0.06372054	0.49023312	0.8750587950000001	2.1669199999999997	2.88414	1.2207999999999999	425974.0	1775936974.054471	0.0	1.0	0.0	-1.0	-1.0	-1.0	1775936974.054471	peace	Peace	3	20260411_124810	Trigger
10362.645	25497.629999999997	-5919.03	-15981.705	0.0	0.0	0.0	0.0	0.0	0.0	0.0	0.0	0.0	0.0	0.0	0.0	0.0	0.0	144.55172413793105	0.0	0.06372054	0.49023312	0.8750587950000001	2.1669199999999997	2.88414	1.2207999999999999	425975.0	1775936974.060891	0.0	1.0	0.0	-1.0	-1.0	-1.0	1775936974.060891	peace	Peace	3	20260411_124810	Trigger
10391.039999999999	25068.96	-5594.8949999999995	-15703.83	0.0	0.0	0.0	0.0	0.0	0.0	0.0	0.0	0.0	0.0	0.0	0.0	0.0	0.0	144.55172413793105	0.0	0.06372054	0.49023312	0.8750587950000001	2.1669199999999997	2.88414	1.2207999999999999	425976.0	1775936974.060906	0.0	1.0	0.0	-1.0	-1.0	-1.0	1775936974.060906	peace	Peace	3	20260411_124810	Trigger
10272.375	24507.27	-5299.83	-15478.064999999999	0.0	0.0	0.0	0.0	0.0	0.0	0.0	0.0	0.0	0.0	0.0	0.0	0.0	0.0	144.55172413793105	0.0	0.06372054	0.49023312	0.8750587950000001	2.1669199999999997	2.88414	1.2207999999999999	425977.0	1775936974.063543	0.0	1.0	0.0	-1.0	-1.0	-1.0	1775936974.063543	peace	Peace	3	20260411_124810	Trigger
10040.67	24119.73	-5157.63	-15388.47	0.0	0.0	0.0	0.0	0.0	0.0	0.0	0.0	0.0	0.0	0.0	0.0	0.0	0.0	144.55172413793105	0.0	0.06372054	0.49023312	0.8750587950000001	2.1669199999999997	2.88414	1.2207999999999999	425978.0	1775936974.063564	0.0	1.0	0.0	-1.0	-1.0	-1.0	1775936974.063564	peace	Peace	3	20260411_124810	Trigger
9833.085	24103.89	-5229.0	-15470.234999999999	0.0	0.0	0.0	0.0	0.0	0.0	0.0	0.0	0.0	0.0	0.0	0.0	0.0	0.0	144.55172413793105	0.0	0.06945783	0.483580305	0.86987082	1.15976	7.7825999999999995	2.0295799999999997	425979.0	1775936974.066843	0.0	1.0	0.0	-1.0	-1.0	-1.0	1775936974.066843	peace	Peace	3	20260411_124810	Trigger
9821.97	24462.899999999998	-5491.26	-15682.904999999999	0.0	0.0	0.0	0.0	0.0	0.0	0.0	0.0	0.0	0.0	0.0	0.0	0.0	0.0	144.55172413793105	0.0	0.06945783	0.483580305	0.86987082	1.15976	7.7825999999999995	2.0295799999999997	425980.0	1775936974.066857	0.0	1.0	0.0	-1.0	-1.0	-1.0	1775936974.066857	peace	Peace	3	20260411_124810	Trigger
9956.25	25017.48	-5801.804999999999	-15918.48	0.0	0.0	0.0	0.0	0.0	0.0	0.0	0.0	0.0	0.0	0.0	0.0	0.0	0.0	144.55172413793105	0.0	0.06945783	0.483580305	0.86987082	1.15976	7.7825999999999995	2.0295799999999997	425981.0	1775936974.070733	0.0	1.0	0.0	-1.0	-1.0	-1.0	1775936974.070733	peace	Peace	3	20260411_124810	Trigger
10137.015	25474.364999999998	-6011.505	-16075.394999999999	0.0	0.0	0.0	0.0	0.0	0.0	0.0	0.0	0.0	0.0	0.0	0.0	0.0	0.0	144.55172413793105	0.0	0.06945783	0.483580305	0.86987082	1.15976	7.7825999999999995	2.0295799999999997	425982.0	1775936974.070753	0.0	1.0	0.0	-1.0	-1.0	-1.0	1775936974.070753	peace	Peace	3	20260411_124810	Trigger
10331.234999999999	25571.16	-5956.2	-16010.369999999999	0.0	0.0	0.0	0.0	0.0	0.0	0.0	0.0	0.0	0.0	0.0	0.0	0.0	0.0	144.55172413793105	0.0	0.06945783	0.483580305	0.86987082	1.15976	7.7825999999999995	2.0295799999999997	425983.0	1775936974.074541	0.0	1.0	0.0	-1.0	-1.0	-1.0	1775936974.074541	peace	Peace	3	20260411_124810	Trigger
10414.125	25270.245	-5701.679999999999	-15794.775	0.0	0.0	0.0	0.0	0.0	0.0	0.0	0.0	0.0	0.0	0.0	0.0	0.0	0.0	144.55172413793105	0.0	0.06945783	0.483580305	0.86987082	1.15976	7.7825999999999995	2.0295799999999997	425984.0	1775936974.074579	0.0	1.0	0.0	-1.0	-1.0	-1.0	1775936974.074579	peace	Peace	3	20260411_124810	Trigger
10307.43	24740.145	-5414.94	-15567.39	0.0	0.0	0.0	0.0	0.0	0.0	0.0	0.0	0.0	0.0	0.0	0.0	0.0	0.0	144.55172413793105	0.0	0.06945783	0.483580305	0.86987082	1.15976	7.7825999999999995	2.0295799999999997	425985.0	1775936974.078766	0.0	1.0	0.0	-1.0	-1.0	-1.0	1775936974.078766	peace	Peace	3	20260411_124810	Trigger
10125.135	24282.899999999998	-5192.37	-15415.425	0.0	0.0	0.0	0.0	0.0	0.0	0.0	0.0	0.0	0.0	0.0	0.0	0.0	0.0	144.55172413793105	0.0	0.06945783	0.483580305	0.86987082	1.15976	7.7825999999999995	2.0295799999999997	425986.0	1775936974.078807	0.0	1.0	0.0	-1.0	-1.0	-1.0	1775936974.078807	peace	Peace	3	20260411_124810	Trigger
9837.045	24158.655	-5243.445	-15492.195	0.0	0.0	0.0	0.0	0.0	0.0	0.0	0.0	0.0	0.0	0.0	0.0	0.0	0.0	144.55172413793105	0.0	0.06945783	0.483580305	0.86987082	1.15976	7.7825999999999995	2.0295799999999997	425987.0	1775936974.083809	0.0	1.0	0.0	-1.0	-1.0	-1.0	1775936974.083809	peace	Peace	3	20260411_124810	Trigger
9717.84	24408.0	-5467.005	-15672.42	0.0	0.0	0.0	0.0	0.0	0.0	0.0	0.0	0.0	0.0	0.0	0.0	0.0	0.0	144.55172413793105	0.0	0.06945783	0.483580305	0.86987082	1.15976	7.7825999999999995	2.0295799999999997	425988.0	1775936974.083845	0.0	1.0	0.0	-1.0	-1.0	-1.0	1775936974.083845	peace	Peace	3	20260411_124810	Trigger
9820.305	24946.379999999997	-5792.67	-15936.21	0.0	0.0	0.0	0.0	0.0	0.0	0.0	0.0	0.0	0.0	0.0	0.0	0.0	0.0	144.55172413793105	0.0	0.06811506	0.488829315	0.8752419	1.25132	8.316699999999999	3.5098	425989.0	1775936974.086519	0.0	1.0	0.0	-1.0	-1.0	-1.0	1775936974.086519	peace	Peace	3	20260411_124810	Trigger
10035.18	25448.309999999998	-6021.63	-16099.38	0.0	0.0	0.0	0.0	0.0	0.0	0.0	0.0	0.0	0.0	0.0	0.0	0.0	0.0	144.55172413793105	0.0	0.06811506	0.488829315	0.8752419	1.25132	8.316699999999999	3.5098	425990.0	1775936974.086538	0.0	1.0	0.0	-1.0	-1.0	-1.0	1775936974.086538	peace	Peace	3	20260411_124810	Trigger
10268.324999999999	25661.655	-6031.755	-16080.57	0.0	0.0	0.0	0.0	0.0	0.0	0.0	0.0	0.0	0.0	0.0	0.0	0.0	0.0	144.55172413793105	0.0	0.06811506	0.488829315	0.8752419	1.25132	8.316699999999999	3.5098	425991.0	1775936974.090685	0.0	1.0	0.0	-1.0	-1.0	-1.0	1775936974.090685	peace	Peace	3	20260411_124810	Trigger
10400.895	25473.195	-5794.695	-15881.31	0.0	0.0	0.0	0.0	0.0	0.0	0.0	0.0	0.0	0.0	0.0	0.0	0.0	0.0	144.55172413793105	0.0	0.06811506	0.488829315	0.8752419	1.25132	8.316699999999999	3.5098	425992.0	1775936974.090709	0.0	1.0	0.0	-1.0	-1.0	-1.0	1775936974.090709	peace	Peace	3	20260411_124810	Trigger
10407.6	24953.985	-5436.764999999999	-15586.199999999999	0.0	0.0	0.0	0.0	0.0	0.0	0.0	0.0	0.0	0.0	0.0	0.0	0.0	0.0	144.55172413793105	0.0	0.06811506	0.488829315	0.8752419	1.25132	8.316699999999999	3.5098	425993.0	1775936974.095779	0.0	1.0	0.0	-1.0	-1.0	-1.0	1775936974.095779	peace	Peace	3	20260411_124810	Trigger
10217.88	24413.94	-5209.74	-15413.805	0.0	0.0	0.0	0.0	0.0	0.0	0.0	0.0	0.0	0.0	0.0	0.0	0.0	0.0	144.55172413793105	0.0	0.06811506	0.488829315	0.8752419	1.25132	8.316699999999999	3.5098	425994.0	1775936974.095805	0.0	1.0	0.0	-1.0	-1.0	-1.0	1775936974.095805	peace	Peace	3	20260411_124810	Trigger
9929.385	24141.195	-5173.83	-15423.84	0.0	0.0	0.0	0.0	0.0	0.0	0.0	0.0	0.0	0.0	0.0	0.0	0.0	0.0	144.55172413793105	0.0	0.06811506	0.488829315	0.8752419	1.25132	8.316699999999999	3.5098	425995.0	1775936974.098604	0.0	1.0	0.0	-1.0	-1.0	-1.0	1775936974.098604	peace	Peace	3	20260411_124810	Trigger
9764.145	24276.239999999998	-5348.565	-15586.605	0.0	0.0	0.0	0.0	0.0	0.0	0.0	0.0	0.0	0.0	0.0	0.0	0.0	0.0	144.55172413793105	0.0	0.06811506	0.488829315	0.8752419	1.25132	8.316699999999999	3.5098	425996.0	1775936974.098627	0.0	1.0	0.0	-1.0	-1.0	-1.0	1775936974.098627	peace	Peace	3	20260411_124810	Trigger
9772.56	24750.989999999998	-5685.344999999999	-15845.175	0.0	0.0	0.0	0.0	0.0	0.0	0.0	0.0	0.0	0.0	0.0	0.0	0.0	0.0	144.55172413793105	0.0	0.06811506	0.488829315	0.8752419	1.25132	8.316699999999999	3.5098	425997.0	1775936974.102605	0.0	1.0	0.0	-1.0	-1.0	-1.0	1775936974.102605	peace	Peace	3	20260411_124810	Trigger
9914.895	25290.0	-5985.764999999999	-16043.76	0.0	0.0	0.0	0.0	0.0	0.0	0.0	0.0	0.0	0.0	0.0	0.0	0.0	0.0	144.55172413793105	0.0	0.06811506	0.488829315	0.8752419	1.25132	8.316699999999999	3.5098	425998.0	1775936974.102628	0.0	1.0	0.0	-1.0	-1.0	-1.0	1775936974.102628	peace	Peace	3	20260411_124810	Trigger
10091.43	25642.17	-6129.179999999999	-16098.57	0.0	0.0	0.0	0.0	0.0	0.0	0.0	0.0	0.0	0.0	0.0	0.0	0.0	0.0	144.55172413793105	0.0	0.05725083	0.485899635	0.87963642	9.293339999999999	10.392059999999999	2.9451799999999997	425999.0	1775936974.10801	0.0	1.0	0.0	-1.0	-1.0	-1.0	1775936974.10801	peace	Peace	3	20260411_124810	Trigger
10257.345	25573.815	-5999.219999999999	-15991.019999999999	0.0	0.0	0.0	0.0	0.0	0.0	0.0	0.0	0.0	0.0	0.0	0.0	0.0	0.0	144.55172413793105	0.0	0.05725083	0.485899635	0.87963642	9.293339999999999	10.392059999999999	2.9451799999999997	426000.0	1775936974.108034	0.0	1.0	0.0	-1.0	-1.0	-1.0	1775936974.108034	peace	Peace	3	20260411_124810	Trigger
10438.109999999999	25140.645	-5590.125	-15694.47	0.0	0.0	0.0	0.0	0.0	0.0	0.0	0.0	0.0	0.0	0.0	0.0	0.0	0.0	144.55172413793105	0.0	0.05725083	0.485899635	0.87963642	9.293339999999999	10.392059999999999	2.9451799999999997	426001.0	1775936974.110617	0.0	1.0	0.0	-1.0	-1.0	-1.0	1775936974.110617	peace	Peace	3	20260411_124810	Trigger
10382.85	24577.875	-5214.24	-15411.105	0.0	0.0	0.0	0.0	0.0	0.0	0.0	0.0	0.0	0.0	0.0	0.0	0.0	0.0	144.55172413793105	0.0	0.05725083	0.485899635	0.87963642	9.293339999999999	10.392059999999999	2.9451799999999997	426002.0	1775936974.11064	0.0	1.0	0.0	-1.0	-1.0	-1.0	1775936974.11064	peace	Peace	3	20260411_124810	Trigger
10122.345	24173.19	-5080.139999999999	-15372.72	0.0	0.0	0.0	0.0	0.0	0.0	0.0	0.0	0.0	0.0	0.0	0.0	0.0	0.0	144.55172413793105	0.0	0.05725083	0.485899635	0.87963642	9.293339999999999	10.392059999999999	2.9451799999999997	426003.0	1775936974.114709	0.0	1.0	0.0	-1.0	-1.0	-1.0	1775936974.114709	peace	Peace	3	20260411_124810	Trigger
9845.91	24167.34	-5269.679999999999	-15573.195	0.0	0.0	0.0	0.0	0.0	0.0	0.0	0.0	0.0	0.0	0.0	0.0	0.0	0.0	144.55172413793105	0.0	0.05725083	0.485899635	0.87963642	9.293339999999999	10.392059999999999	2.9451799999999997	426004.0	1775936974.114747	0.0	1.0	0.0	-1.0	-1.0	-1.0	1775936974.114747	peace	Peace	3	20260411_124810	Trigger
9871.38	24572.295	-5558.58	-15774.255	0.0	0.0	0.0	0.0	0.0	0.0	0.0	0.0	0.0	0.0	0.0	0.0	0.0	0.0	144.55172413793105	0.0	0.05725083	0.485899635	0.87963642	9.293339999999999	10.392059999999999	2.9451799999999997	426005.0	1775936974.118756	0.0	1.0	0.0	-1.0	-1.0	-1.0	1775936974.118756	peace	Peace	3	20260411_124810	Trigger
10058.355	25176.059999999998	-5817.105	-15930.72	0.0	0.0	0.0	0.0	0.0	0.0	0.0	0.0	0.0	0.0	0.0	0.0	0.0	0.0	144.55172413793105	0.0	0.05725083	0.485899635	0.87963642	9.293339999999999	10.392059999999999	2.9451799999999997	426006.0	1775936974.118782	0.0	1.0	0.0	-1.0	-1.0	-1.0	1775936974.118782	peace	Peace	3	20260411_124810	Trigger
10268.505	25658.64	-5927.355	-15988.32	0.0	0.0	0.0	0.0	0.0	0.0	0.0	0.0	0.0	0.0	0.0	0.0	0.0	0.0	144.55172413793105	0.0	0.05725083	0.485899635	0.87963642	9.293339999999999	10.392059999999999	2.9451799999999997	426007.0	1775936974.123002	0.0	1.0	0.0	-1.0	-1.0	-1.0	1775936974.123002	peace	Peace	3	20260411_124810	Trigger
10349.91	25729.155	-5913.945	-15986.609999999999	0.0	0.0	0.0	0.0	0.0	0.0	0.0	0.0	0.0	0.0	0.0	0.0	0.0	0.0	144.55172413793105	0.0	0.05725083	0.485899635	0.87963642	9.293339999999999	10.392059999999999	2.9451799999999997	426008.0	1775936974.123032	0.0	1.0	0.0	-1.0	-1.0	-1.0	1775936974.123032	peace	Peace	3	20260411_124810	Trigger
10434.375	25368.3	-5676.525	-15816.734999999999	0.0	0.0	0.0	0.0	0.0	0.0	0.0	0.0	0.0	0.0	0.0	0.0	0.0	0.0	144.55172413793105	0.0	0.05395494	0.452330385	0.87365499	17.89998	12.92522	2.9604399999999997	426009.0	1775936974.126665	0.0	1.0	0.0	-1.0	-1.0	-1.0	1775936974.126665	peace	Peace	3	20260411_124810	Trigger
10312.02	24777.855	-5380.155	-15593.355	0.0	0.0	0.0	0.0	0.0	0.0	0.0	0.0	0.0	0.0	0.0	0.0	0.0	0.0	144.55172413793105	0.0	0.05395494	0.452330385	0.87365499	17.89998	12.92522	2.9604399999999997	426010.0	1775936974.12669	0.0	1.0	0.0	-1.0	-1.0	-1.0	1775936974.12669	peace	Peace	3	20260411_124810	Trigger
10160.055	24279.48	-5119.83	-15391.305	0.0	0.0	0.0	0.0	0.0	0.0	0.0	0.0	0.0	0.0	0.0	0.0	0.0	0.0	144.55172413793105	0.0	0.05395494	0.452330385	0.87365499	17.89998	12.92522	2.9604399999999997	426011.0	1775936974.130723	0.0	1.0	0.0	-1.0	-1.0	-1.0	1775936974.130723	peace	Peace	3	20260411_124810	Trigger
9953.19	24142.274999999998	-5154.12	-15466.545	0.0	0.0	0.0	0.0	0.0	0.0	0.0	0.0	0.0	0.0	0.0	0.0	0.0	0.0	144.55172413793105	0.0	0.05395494	0.452330385	0.87365499	17.89998	12.92522	2.9604399999999997	426012.0	1775936974.130749	0.0	1.0	0.0	-1.0	-1.0	-1.0	1775936974.130749	peace	Peace	3	20260411_124810	Trigger
9785.744999999999	24421.14	-5375.655	-15624.09	0.0	0.0	0.0	0.0	0.0	0.0	0.0	0.0	0.0	0.0	0.0	0.0	0.0	0.0	144.55172413793105	0.0	0.05395494	0.452330385	0.87365499	17.89998	12.92522	2.9604399999999997	426013.0	1775936974.141168	0.0	1.0	0.0	-1.0	-1.0	-1.0	1775936974.141168	peace	Peace	3	20260411_124810	Trigger
9874.395	25033.05	-5727.69	-15895.574999999999	0.0	0.0	0.0	0.0	0.0	0.0	0.0	0.0	0.0	0.0	0.0	0.0	0.0	0.0	144.55172413793105	0.0	0.05395494	0.452330385	0.87365499	17.89998	12.92522	2.9604399999999997	426014.0	1775936974.141209	0.0	1.0	0.0	-1.0	-1.0	-1.0	1775936974.141209	peace	Peace	3	20260411_124810	Trigger
10225.484999999999	25608.69	-5956.5599999999995	-16076.654999999999	0.0	0.0	0.0	0.0	0.0	0.0	0.0	0.0	0.0	0.0	0.0	0.0	0.0	0.0	144.55172413793105	0.0	0.05395494	0.452330385	0.87365499	17.89998	12.92522	2.9604399999999997	426015.0	1775936974.141329	0.0	1.0	0.0	-1.0	-1.0	-1.0	1775936974.141329	peace	Peace	3	20260411_124810	Trigger
10403.775	25824.42	-5988.15	-16078.455	0.0	0.0	0.0	0.0	0.0	0.0	0.0	0.0	0.0	0.0	0.0	0.0	0.0	0.0	144.55172413793105	0.0	0.05395494	0.452330385	0.87365499	17.89998	12.92522	2.9604399999999997	426016.0	1775936974.141353	0.0	1.0	0.0	-1.0	-1.0	-1.0	1775936974.141353	peace	Peace	3	20260411_124810	Trigger
10399.725	25575.164999999997	-5796.224999999999	-15927.84	0.0	0.0	0.0	0.0	0.0	0.0	0.0	0.0	0.0	0.0	0.0	0.0	0.0	0.0	144.55172413793105	0.0	0.05395494	0.452330385	0.87365499	17.89998	12.92522	2.9604399999999997	426017.0	1775936974.142735	0.0	1.0	0.0	-1.0	-1.0	-1.0	1775936974.142735	peace	Peace	3	20260411_124810	Trigger
10327.5	24958.079999999998	-5481.405	-15683.715	0.0	0.0	0.0	0.0	0.0	0.0	0.0	0.0	0.0	0.0	0.0	0.0	0.0	0.0	144.55172413793105	0.0	0.05395494	0.452330385	0.87365499	17.89998	12.92522	2.9604399999999997	426018.0	1775936974.142759	0.0	1.0	0.0	-1.0	-1.0	-1.0	1775936974.142759	peace	Peace	3	20260411_124810	Trigger
10218.06	24338.835	-5127.345	-15409.529999999999	0.0	0.0	0.0	0.0	0.0	0.0	0.0	0.0	0.0	0.0	0.0	0.0	0.0	0.0	144.55172413793105	0.0	0.062194665	0.503965995	0.872373255	24.187099999999997	24.67542	16.20612	426019.0	1775936974.14671	0.0	1.0	0.0	-1.0	-1.0	-1.0	1775936974.14671	peace	Peace	3	20260411_124810	Trigger
10044.9	24060.375	-5008.455	-15364.755	0.0	0.0	0.0	0.0	0.0	0.0	0.0	0.0	0.0	0.0	0.0	0.0	0.0	0.0	144.55172413793105	0.0	0.062194665	0.503965995	0.872373255	24.187099999999997	24.67542	16.20612	426020.0	1775936974.146734	0.0	1.0	0.0	-1.0	-1.0	-1.0	1775936974.146734	peace	Peace	3	20260411_124810	Trigger
9905.039999999999	24238.844999999998	-5190.885	-15548.49	0.0	0.0	0.0	0.0	0.0	0.0	0.0	0.0	0.0	0.0	0.0	0.0	0.0	0.0	144.55172413793105	0.0	0.062194665	0.503965995	0.872373255	24.187099999999997	24.67542	16.20612	426021.0	1775936974.152276	0.0	1.0	0.0	-1.0	-1.0	-1.0	1775936974.152276	peace	Peace	3	20260411_124810	Trigger
9893.97	24840.855	-5536.8	-15849.494999999999	0.0	0.0	0.0	0.0	0.0	0.0	0.0	0.0	0.0	0.0	0.0	0.0	0.0	0.0	144.55172413793105	0.0	0.062194665	0.503965995	0.872373255	24.187099999999997	24.67542	16.20612	426022.0	1775936974.1523	0.0	1.0	0.0	-1.0	-1.0	-1.0	1775936974.1523	peace	Peace	3	20260411_124810	Trigger
10027.26	25540.155	-5866.514999999999	-16127.369999999999	0.0	0.0	0.0	0.0	0.0	0.0	0.0	0.0	0.0	0.0	0.0	0.0	0.0	0.0	144.55172413793105	0.0	0.062194665	0.503965995	0.872373255	24.187099999999997	24.67542	16.20612	426023.0	1775936974.154701	0.0	1.0	0.0	-1.0	-1.0	-1.0	1775936974.154701	peace	Peace	3	20260411_124810	Trigger
10201.365	25986.96	-6051.42	-16250.805	0.0	0.0	0.0	0.0	0.0	0.0	0.0	0.0	0.0	0.0	0.0	0.0	0.0	0.0	144.55172413793105	0.0	0.062194665	0.503965995	0.872373255	24.187099999999997	24.67542	16.20612	426024.0	1775936974.154725	0.0	1.0	0.0	-1.0	-1.0	-1.0	1775936974.154725	peace	Peace	3	20260411_124810	Trigger
10248.074999999999	25880.219999999998	-6000.4349999999995	-16176.465	0.0	0.0	0.0	0.0	0.0	0.0	0.0	0.0	0.0	0.0	0.0	0.0	0.0	0.0	144.55172413793105	0.0	0.062194665	0.503965995	0.872373255	24.187099999999997	24.67542	16.20612	426025.0	1775936974.15875	0.0	1.0	0.0	-1.0	-1.0	-1.0	1775936974.15875	peace	Peace	3	20260411_124810	Trigger
10354.68	25253.55	-5655.014999999999	-15845.49	0.0	0.0	0.0	0.0	0.0	0.0	0.0	0.0	0.0	0.0	0.0	0.0	0.0	0.0	144.55172413793105	0.0	0.062194665	0.503965995	0.872373255	24.187099999999997	24.67542	16.20612	426026.0	1775936974.158774	0.0	1.0	0.0	-1.0	-1.0	-1.0	1775936974.158774	peace	Peace	3	20260411_124810	Trigger
10300.77	24455.024999999998	-5235.075	-15465.24	0.0	0.0	0.0	0.0	0.0	0.0	0.0	0.0	0.0	0.0	0.0	0.0	0.0	0.0	144.55172413793105	0.0	0.062194665	0.503965995	0.872373255	24.187099999999997	24.67542	16.20612	426027.0	1775936974.162774	0.0	1.0	0.0	-1.0	-1.0	-1.0	1775936974.162774	peace	Peace	3	20260411_124810	Trigger
10425.779999999999	23568.254999999997	-4755.105	-15057.269999999999	0.0	0.0	0.0	0.0	0.0	0.0	0.0	0.0	0.0	0.0	0.0	0.0	0.0	0.0	144.55172413793105	0.0	0.062194665	0.503965995	0.872373255	24.187099999999997	24.67542	16.20612	426028.0	1775936974.162798	0.0	1.0	0.0	-1.0	-1.0	-1.0	1775936974.162798	peace	Peace	3	20260411_124810	Trigger
10474.38	23149.35	-4574.88	-14916.24	0.0	0.0	0.0	0.0	0.0	0.0	0.0	0.0	0.0	0.0	0.0	0.0	0.0	0.0	144.55172413793105	0.0	0.050659050000000004	0.641172675	0.85546656	-30.42844	19.85326	46.14624	426029.0	1775936974.168661	0.0	1.0	0.0	-1.0	-1.0	-1.0	1775936974.168661	peace	Peace	3	20260411_124810	Trigger
10010.16	24231.825	-5295.24	-15604.74	0.0	0.0	0.0	0.0	0.0	0.0	0.0	0.0	0.0	0.0	0.0	0.0	0.0	0.0	144.55172413793105	0.0	0.050659050000000004	0.641172675	0.85546656	-30.42844	19.85326	46.14624	426030.0	1775936974.168685	0.0	1.0	0.0	-1.0	-1.0	-1.0	1775936974.168685	peace	Peace	3	20260411_124810	Trigger
10018.845	25292.969999999998	-5787.179999999999	-16069.5	0.0	0.0	0.0	0.0	0.0	0.0	0.0	0.0	0.0	0.0	0.0	0.0	0.0	0.0	144.55172413793105	0.0	0.050659050000000004	0.641172675	0.85546656	-30.42844	19.85326	46.14624	426031.0	1775936974.170812	0.0	1.0	0.0	-1.0	-1.0	-1.0	1775936974.170812	peace	Peace	3	20260411_124810	Trigger
10172.88	25950.105	-6010.92	-16258.994999999999	0.0	0.0	0.0	0.0	0.0	0.0	0.0	0.0	0.0	0.0	0.0	0.0	0.0	0.0	144.55172413793105	0.0	0.050659050000000004	0.641172675	0.85546656	-30.42844	19.85326	46.14624	426032.0	1775936974.170836	0.0	1.0	0.0	-1.0	-1.0	-1.0	1775936974.170836	peace	Peace	3	20260411_124810	Trigger
10382.895	26081.055	-5932.755	-16173.404999999999	0.0	0.0	0.0	0.0	0.0	0.0	0.0	0.0	0.0	0.0	0.0	0.0	0.0	0.0	144.55172413793105	0.0	0.050659050000000004	0.641172675	0.85546656	-30.42844	19.85326	46.14624	426033.0	1775936974.174712	0.0	1.0	0.0	-1.0	-1.0	-1.0	1775936974.174712	peace	Peace	3	20260411_124810	Trigger
10595.205	25519.094999999998	-5563.889999999999	-15821.595	0.0	0.0	0.0	0.0	0.0	0.0	0.0	0.0	0.0	0.0	0.0	0.0	0.0	0.0	144.55172413793105	0.0	0.050659050000000004	0.641172675	0.85546656	-30.42844	19.85326	46.14624	426034.0	1775936974.174735	0.0	1.0	0.0	-1.0	-1.0	-1.0	1775936974.174735	peace	Peace	3	20260411_124810	Trigger
10541.16	24716.565	-5109.255	-15439.275	0.0	0.0	0.0	0.0	0.0	0.0	0.0	0.0	0.0	0.0	0.0	0.0	0.0	0.0	144.55172413793105	0.0	0.050659050000000004	0.641172675	0.85546656	-30.42844	19.85326	46.14624	426035.0	1775936974.178844	0.0	1.0	0.0	-1.0	-1.0	-1.0	1775936974.178844	peace	Peace	3	20260411_124810	Trigger
10441.035	23923.395	-4749.389999999999	-15154.38	0.0	0.0	0.0	0.0	0.0	0.0	0.0	0.0	0.0	0.0	0.0	0.0	0.0	0.0	144.55172413793105	0.0	0.050659050000000004	0.641172675	0.85546656	-30.42844	19.85326	46.14624	426036.0	1775936974.178867	0.0	1.0	0.0	-1.0	-1.0	-1.0	1775936974.178867	peace	Peace	3	20260411_124810	Trigger
10374.435	23304.555	-4654.755	-14971.68	0.0	0.0	0.0	0.0	0.0	0.0	0.0	0.0	0.0	0.0	0.0	0.0	0.0	0.0	144.55172413793105	0.0	0.050659050000000004	0.641172675	0.85546656	-30.42844	19.85326	46.14624	426037.0	1775936974.183917	0.0	1.0	0.0	-1.0	-1.0	-1.0	1775936974.183917	peace	Peace	3	20260411_124810	Trigger
9971.955	23960.745	-5302.44	-15457.859999999999	0.0	0.0	0.0	0.0	0.0	0.0	0.0	0.0	0.0	0.0	0.0	0.0	0.0	0.0	144.55172413793105	0.0	0.050659050000000004	0.641172675	0.85546656	-30.42844	19.85326	46.14624	426038.0	1775936974.183939	0.0	1.0	0.0	-1.0	-1.0	-1.0	1775936974.183939	peace	Peace	3	20260411_124810	Trigger
9823.77	25069.004999999997	-5953.724999999999	-16012.215	0.0	0.0	0.0	0.0	0.0	0.0	0.0	0.0	0.0	0.0	0.0	0.0	0.0	0.0	144.55172413793105	0.0	0.029968185	0.661314225	0.9012428100000001	-90.797	-14.329139999999999	53.13532	426039.0	1775936974.186839	0.0	1.0	0.0	-1.0	-1.0	-1.0	1775936974.186839	peace	Peace	3	20260411_124810	Trigger
9862.65	25805.295	-6331.59	-16362.539999999999	0.0	0.0	0.0	0.0	0.0	0.0	0.0	0.0	0.0	0.0	0.0	0.0	0.0	0.0	144.55172413793105	0.0	0.029968185	0.661314225	0.9012428100000001	-90.797	-14.329139999999999	53.13532	426040.0	1775936974.186862	0.0	1.0	0.0	-1.0	-1.0	-1.0	1775936974.186862	peace	Peace	3	20260411_124810	Trigger
10011.734999999999	26084.385	-6356.565	-16399.125	0.0	0.0	0.0	0.0	0.0	0.0	0.0	0.0	0.0	0.0	0.0	0.0	0.0	0.0	144.55172413793105	0.0	0.029968185	0.661314225	0.9012428100000001	-90.797	-14.329139999999999	53.13532	426041.0	1775936974.191181	0.0	1.0	0.0	-1.0	-1.0	-1.0	1775936974.191181	peace	Peace	3	20260411_124810	Trigger
10240.695	25742.34	-6068.474999999999	-16094.519999999999	0.0	0.0	0.0	0.0	0.0	0.0	0.0	0.0	0.0	0.0	0.0	0.0	0.0	0.0	144.55172413793105	0.0	0.029968185	0.661314225	0.9012428100000001	-90.797	-14.329139999999999	53.13532	426042.0	1775936974.191216	0.0	1.0	0.0	-1.0	-1.0	-1.0	1775936974.191216	peace	Peace	3	20260411_124810	Trigger
10367.055	24991.335	-5538.69	-15589.529999999999	0.0	0.0	0.0	0.0	0.0	0.0	0.0	0.0	0.0	0.0	0.0	0.0	0.0	0.0	144.55172413793105	0.0	0.029968185	0.661314225	0.9012428100000001	-90.797	-14.329139999999999	53.13532	426043.0	1775936974.194792	0.0	1.0	0.0	-1.0	-1.0	-1.0	1775936974.194792	peace	Peace	3	20260411_124810	Trigger
10375.92	24250.68	-5088.24	-15215.4	0.0	0.0	0.0	0.0	0.0	0.0	0.0	0.0	0.0	0.0	0.0	0.0	0.0	0.0	144.55172413793105	0.0	0.029968185	0.661314225	0.9012428100000001	-90.797	-14.329139999999999	53.13532	426044.0	1775936974.194826	0.0	1.0	0.0	-1.0	-1.0	-1.0	1775936974.194826	peace	Peace	3	20260411_124810	Trigger
10327.904999999999	23644.44	-4832.415	-15019.064999999999	0.0	0.0	0.0	0.0	0.0	0.0	0.0	0.0	0.0	0.0	0.0	0.0	0.0	0.0	144.55172413793105	0.0	0.029968185	0.661314225	0.9012428100000001	-90.797	-14.329139999999999	53.13532	426045.0	1775936974.200314	0.0	1.0	0.0	-1.0	-1.0	-1.0	1775936974.200314	peace	Peace	3	20260411_124810	Trigger
10000.035	23846.985	-5184.764999999999	-15361.289999999999	0.0	0.0	0.0	0.0	0.0	0.0	0.0	0.0	0.0	0.0	0.0	0.0	0.0	0.0	144.55172413793105	0.0	0.029968185	0.661314225	0.9012428100000001	-90.797	-14.329139999999999	53.13532	426046.0	1775936974.20034	0.0	1.0	0.0	-1.0	-1.0	-1.0	1775936974.20034	peace	Peace	3	20260411_124810	Trigger
9670.815	24794.19	-5876.1449999999995	-15958.98	0.0	0.0	0.0	0.0	0.0	0.0	0.0	0.0	0.0	0.0	0.0	0.0	0.0	0.0	144.55172413793105	0.0	0.029968185	0.661314225	0.9012428100000001	-90.797	-14.329139999999999	53.13532	426047.0	1775936974.202858	0.0	1.0	0.0	-1.0	-1.0	-1.0	1775936974.202858	peace	Peace	3	20260411_124810	Trigger
9826.695	25554.78	-6182.775	-16188.885	0.0	0.0	0.0	0.0	0.0	0.0	0.0	0.0	0.0	0.0	0.0	0.0	0.0	0.0	144.55172413793105	0.0	0.029968185	0.661314225	0.9012428100000001	-90.797	-14.329139999999999	53.13532	426048.0	1775936974.202882	0.0	1.0	0.0	-1.0	-1.0	-1.0	1775936974.202882	peace	Peace	3	20260411_124810	Trigger
10177.02	25975.17	-6168.78	-16144.109999999999	0.0	0.0	0.0	0.0	0.0	0.0	0.0	0.0	0.0	0.0	0.0	0.0	0.0	0.0	144.55172413793105	0.0	0.022643985000000002	0.5254503150000001	0.94201419	-64.76344	-33.32784	16.28242	426049.0	1775936974.208329	0.0	1.0	0.0	-1.0	-1.0	-1.0	1775936974.208329	peace	Peace	3	20260411_124810	Trigger
10491.885	25831.215	-5856.21	-15897.914999999999	0.0	0.0	0.0	0.0	0.0	0.0	0.0	0.0	0.0	0.0	0.0	0.0	0.0	0.0	144.55172413793105	0.0	0.022643985000000002	0.5254503150000001	0.94201419	-64.76344	-33.32784	16.28242	426050.0	1775936974.208352	0.0	1.0	0.0	-1.0	-1.0	-1.0	1775936974.208352	peace	Peace	3	20260411_124810	Trigger
10691.234999999999	25196.219999999998	-5406.3	-15569.775	0.0	0.0	0.0	0.0	0.0	0.0	0.0	0.0	0.0	0.0	0.0	0.0	0.0	0.0	144.55172413793105	0.0	0.022643985000000002	0.5254503150000001	0.94201419	-64.76344	-33.32784	16.28242	426051.0	1775936974.212161	0.0	1.0	0.0	-1.0	-1.0	-1.0	1775936974.212161	peace	Peace	3	20260411_124810	Trigger
10503.449999999999	24466.77	-4986.045	-15223.23	0.0	0.0	0.0	0.0	0.0	0.0	0.0	0.0	0.0	0.0	0.0	0.0	0.0	0.0	144.55172413793105	0.0	0.022643985000000002	0.5254503150000001	0.94201419	-64.76344	-33.32784	16.28242	426052.0	1775936974.212186	0.0	1.0	0.0	-1.0	-1.0	-1.0	1775936974.212186	peace	Peace	3	20260411_124810	Trigger
10242.945	23917.14	-4894.965	-15113.97	0.0	0.0	0.0	0.0	0.0	0.0	0.0	0.0	0.0	0.0	0.0	0.0	0.0	0.0	144.55172413793105	0.0	0.022643985000000002	0.5254503150000001	0.94201419	-64.76344	-33.32784	16.28242	426053.0	1775936974.214852	0.0	1.0	0.0	-1.0	-1.0	-1.0	1775936974.214852	peace	Peace	3	20260411_124810	Trigger
9980.414999999999	23888.43	-5210.91	-15344.144999999999	0.0	0.0	0.0	0.0	0.0	0.0	0.0	0.0	0.0	0.0	0.0	0.0	0.0	0.0	144.55172413793105	0.0	0.022643985000000002	0.5254503150000001	0.94201419	-64.76344	-33.32784	16.28242	426054.0	1775936974.214874	0.0	1.0	0.0	-1.0	-1.0	-1.0	1775936974.214874	peace	Peace	3	20260411_124810	Trigger
9737.685	24546.105	-5728.815	-15794.369999999999	0.0	0.0	0.0	0.0	0.0	0.0	0.0	0.0	0.0	0.0	0.0	0.0	0.0	0.0	144.55172413793105	0.0	0.022643985000000002	0.5254503150000001	0.94201419	-64.76344	-33.32784	16.28242	426055.0	1775936974.218908	0.0	1.0	0.0	-1.0	-1.0	-1.0	1775936974.218908	peace	Peace	3	20260411_124810	Trigger
9772.605	25270.605	-6170.804999999999	-16147.215	0.0	0.0	0.0	0.0	0.0	0.0	0.0	0.0	0.0	0.0	0.0	0.0	0.0	0.0	144.55172413793105	0.0	0.022643985000000002	0.5254503150000001	0.94201419	-64.76344	-33.32784	16.28242	426056.0	1775936974.218932	0.0	1.0	0.0	-1.0	-1.0	-1.0	1775936974.218932	peace	Peace	3	20260411_124810	Trigger
9919.305	25826.579999999998	-6348.014999999999	-16281.404999999999	0.0	0.0	0.0	0.0	0.0	0.0	0.0	0.0	0.0	0.0	0.0	0.0	0.0	0.0	144.55172413793105	0.0	0.022643985000000002	0.5254503150000001	0.94201419	-64.76344	-33.32784	16.28242	426057.0	1775936974.22291	0.0	1.0	0.0	-1.0	-1.0	-1.0	1775936974.22291	peace	Peace	3	20260411_124810	Trigger
10159.289999999999	25850.61	-6161.849999999999	-16089.435	0.0	0.0	0.0	0.0	0.0	0.0	0.0	0.0	0.0	0.0	0.0	0.0	0.0	0.0	144.55172413793105	0.0	0.022643985000000002	0.5254503150000001	0.94201419	-64.76344	-33.32784	16.28242	426058.0	1775936974.222933	0.0	1.0	0.0	-1.0	-1.0	-1.0	1775936974.222933	peace	Peace	3	20260411_124810	Trigger
10362.375	25369.245	-5763.87	-15758.414999999999	0.0	0.0	0.0	0.0	0.0	0.0	0.0	0.0	0.0	0.0	0.0	0.0	0.0	0.0	144.55172413793105	0.0	0.058410495	0.41369523	0.9259009500000001	-23.89716	-41.53772	9.3849	426059.0	1775936974.226942	0.0	1.0	0.0	-1.0	-1.0	-1.0	1775936974.226942	peace	Peace	3	20260411_124810	Trigger
10266.3	24685.155	-5417.91	-15479.189999999999	0.0	0.0	0.0	0.0	0.0	0.0	0.0	0.0	0.0	0.0	0.0	0.0	0.0	0.0	144.55172413793105	0.0	0.058410495	0.41369523	0.9259009500000001	-23.89716	-41.53772	9.3849	426060.0	1775936974.226966	0.0	1.0	0.0	-1.0	-1.0	-1.0	1775936974.226966	peace	Peace	3	20260411_124810	Trigger
10076.355	24195.375	-5199.615	-15325.064999999999	0.0	0.0	0.0	0.0	0.0	0.0	0.0	0.0	0.0	0.0	0.0	0.0	0.0	0.0	144.55172413793105	0.0	0.058410495	0.41369523	0.9259009500000001	-23.89716	-41.53772	9.3849	426061.0	1775936974.231258	0.0	1.0	0.0	-1.0	-1.0	-1.0	1775936974.231258	peace	Peace	3	20260411_124810	Trigger
9871.83	24133.004999999997	-5330.205	-15467.22	0.0	0.0	0.0	0.0	0.0	0.0	0.0	0.0	0.0	0.0	0.0	0.0	0.0	0.0	144.55172413793105	0.0	0.058410495	0.41369523	0.9259009500000001	-23.89716	-41.53772	9.3849	426062.0	1775936974.231282	0.0	1.0	0.0	-1.0	-1.0	-1.0	1775936974.231282	peace	Peace	3	20260411_124810	Trigger
9894.555	24493.635	-5613.255	-15723.9	0.0	0.0	0.0	0.0	0.0	0.0	0.0	0.0	0.0	0.0	0.0	0.0	0.0	0.0	144.55172413793105	0.0	0.058410495	0.41369523	0.9259009500000001	-23.89716	-41.53772	9.3849	426063.0	1775936974.234943	0.0	1.0	0.0	-1.0	-1.0	-1.0	1775936974.234943	peace	Peace	3	20260411_124810	Trigger
9885.285	25120.44	-5919.21	-15948.494999999999	0.0	0.0	0.0	0.0	0.0	0.0	0.0	0.0	0.0	0.0	0.0	0.0	0.0	0.0	144.55172413793105	0.0	0.058410495	0.41369523	0.9259009500000001	-23.89716	-41.53772	9.3849	426064.0	1775936974.234966	0.0	1.0	0.0	-1.0	-1.0	-1.0	1775936974.234966	peace	Peace	3	20260411_124810	Trigger
9973.98	25652.655	-6101.505	-16062.119999999999	0.0	0.0	0.0	0.0	0.0	0.0	0.0	0.0	0.0	0.0	0.0	0.0	0.0	0.0	144.55172413793105	0.0	0.058410495	0.41369523	0.9259009500000001	-23.89716	-41.53772	9.3849	426065.0	1775936974.238902	0.0	1.0	0.0	-1.0	-1.0	-1.0	1775936974.238902	peace	Peace	3	20260411_124810	Trigger
10162.484999999999	25758.585	-6115.139999999999	-16075.755	0.0	0.0	0.0	0.0	0.0	0.0	0.0	0.0	0.0	0.0	0.0	0.0	0.0	0.0	144.55172413793105	0.0	0.058410495	0.41369523	0.9259009500000001	-23.89716	-41.53772	9.3849	426066.0	1775936974.238926	0.0	1.0	0.0	-1.0	-1.0	-1.0	1775936974.238926	peace	Peace	3	20260411_124810	Trigger
10342.305	25411.545	-5821.514999999999	-15813.72	0.0	0.0	0.0	0.0	0.0	0.0	0.0	0.0	0.0	0.0	0.0	0.0	0.0	0.0	144.55172413793105	0.0	0.058410495	0.41369523	0.9259009500000001	-23.89716	-41.53772	9.3849	426067.0	1775936974.242998	0.0	1.0	0.0	-1.0	-1.0	-1.0	1775936974.242998	peace	Peace	3	20260411_124810	Trigger
10375.02	24822.899999999998	-5357.5199999999995	-15430.59	0.0	0.0	0.0	0.0	0.0	0.0	0.0	0.0	0.0	0.0	0.0	0.0	0.0	0.0	144.55172413793105	0.0	0.058410495	0.41369523	0.9259009500000001	-23.89716	-41.53772	9.3849	426068.0	1775936974.243022	0.0	1.0	0.0	-1.0	-1.0	-1.0	1775936974.243022	peace	Peace	3	20260411_124810	Trigger
10137.734999999999	24294.87	-5162.3099999999995	-15339.465	0.0	0.0	0.0	0.0	0.0	0.0	0.0	0.0	0.0	0.0	0.0	0.0	0.0	0.0	144.55172413793105	0.0	0.106506075	0.431578485	0.92297127	-16.72496	-41.171479999999995	6.28712	426069.0	1775936974.253753	0.0	1.0	0.0	-1.0	-1.0	-1.0	1775936974.253753	peace	Peace	3	20260411_124810	Trigger
9887.22	24101.145	-5339.655	-15572.925	0.0	0.0	0.0	0.0	0.0	0.0	0.0	0.0	0.0	0.0	0.0	0.0	0.0	0.0	144.55172413793105	0.0	0.106506075	0.431578485	0.92297127	-16.72496	-41.171479999999995	6.28712	426070.0	1775936974.253777	0.0	1.0	0.0	-1.0	-1.0	-1.0	1775936974.253777	peace	Peace	3	20260411_124810	Trigger
9689.984999999999	24306.75	-5557.1849999999995	-15714.99	0.0	0.0	0.0	0.0	0.0	0.0	0.0	0.0	0.0	0.0	0.0	0.0	0.0	0.0	144.55172413793105	0.0	0.106506075	0.431578485	0.92297127	-16.72496	-41.171479999999995	6.28712	426071.0	1775936974.254021	0.0	1.0	0.0	-1.0	-1.0	-1.0	1775936974.254021	peace	Peace	3	20260411_124810	Trigger
9725.13	24821.954999999998	-5799.87	-15802.695	0.0	0.0	0.0	0.0	0.0	0.0	0.0	0.0	0.0	0.0	0.0	0.0	0.0	0.0	144.55172413793105	0.0	0.106506075	0.431578485	0.92297127	-16.72496	-41.171479999999995	6.28712	426072.0	1775936974.254044	0.0	1.0	0.0	-1.0	-1.0	-1.0	1775936974.254044	peace	Peace	3	20260411_124810	Trigger
9857.654999999999	25329.329999999998	-6048.945	-15924.06	0.0	0.0	0.0	0.0	0.0	0.0	0.0	0.0	0.0	0.0	0.0	0.0	0.0	0.0	144.55172413793105	0.0	0.106506075	0.431578485	0.92297127	-16.72496	-41.171479999999995	6.28712	426073.0	1775936974.254956	0.0	1.0	0.0	-1.0	-1.0	-1.0	1775936974.254956	peace	Peace	3	20260411_124810	Trigger
9997.065	25565.67	-6191.1449999999995	-16022.654999999999	0.0	0.0	0.0	0.0	0.0	0.0	0.0	0.0	0.0	0.0	0.0	0.0	0.0	0.0	144.55172413793105	0.0	0.106506075	0.431578485	0.92297127	-16.72496	-41.171479999999995	6.28712	426074.0	1775936974.254979	0.0	1.0	0.0	-1.0	-1.0	-1.0	1775936974.254979	peace	Peace	3	20260411_124810	Trigger
10106.595	25423.559999999998	-6026.76	-15914.744999999999	0.0	0.0	0.0	0.0	0.0	0.0	0.0	0.0	0.0	0.0	0.0	0.0	0.0	0.0	144.55172413793105	0.0	0.106506075	0.431578485	0.92297127	-16.72496	-41.171479999999995	6.28712	426075.0	1775936974.259029	0.0	1.0	0.0	-1.0	-1.0	-1.0	1775936974.259029	peace	Peace	3	20260411_124810	Trigger
10129.32	24967.035	-5624.46	-15572.699999999999	0.0	0.0	0.0	0.0	0.0	0.0	0.0	0.0	0.0	0.0	0.0	0.0	0.0	0.0	144.55172413793105	0.0	0.106506075	0.431578485	0.92297127	-16.72496	-41.171479999999995	6.28712	426076.0	1775936974.259064	0.0	1.0	0.0	-1.0	-1.0	-1.0	1775936974.259064	peace	Peace	3	20260411_124810	Trigger
10082.205	24477.75	-5332.59	-15370.109999999999	0.0	0.0	0.0	0.0	0.0	0.0	0.0	0.0	0.0	0.0	0.0	0.0	0.0	0.0	144.55172413793105	0.0	0.106506075	0.431578485	0.92297127	-16.72496	-41.171479999999995	6.28712	426077.0	1775936974.263014	0.0	1.0	0.0	-1.0	-1.0	-1.0	1775936974.263014	peace	Peace	3	20260411_124810	Trigger
9880.605	24255.135	-5295.42	-15393.644999999999	0.0	0.0	0.0	0.0	0.0	0.0	0.0	0.0	0.0	0.0	0.0	0.0	0.0	0.0	144.55172413793105	0.0	0.106506075	0.431578485	0.92297127	-16.72496	-41.171479999999995	6.28712	426078.0	1775936974.263039	0.0	1.0	0.0	-1.0	-1.0	-1.0	1775936974.263039	peace	Peace	3	20260411_124810	Trigger
9732.195	24355.8	-5471.73	-15561.224999999999	0.0	0.0	0.0	0.0	0.0	0.0	0.0	0.0	0.0	0.0	0.0	0.0	0.0	0.0	144.55172413793105	0.0	0.086852805	0.44689827	0.966489225	-57.072399999999995	-65.29754	6.8517399999999995	426079.0	1775936974.266956	0.0	1.0	0.0	-1.0	-1.0	-1.0	1775936974.266956	peace	Peace	3	20260411_124810	Trigger
9782.91	24762.329999999998	-5774.3099999999995	-15785.369999999999	0.0	0.0	0.0	0.0	0.0	0.0	0.0	0.0	0.0	0.0	0.0	0.0	0.0	0.0	144.55172413793105	0.0	0.086852805	0.44689827	0.966489225	-57.072399999999995	-65.29754	6.8517399999999995	426080.0	1775936974.266981	0.0	1.0	0.0	-1.0	-1.0	-1.0	1775936974.266981	peace	Peace	3	20260411_124810	Trigger
9892.89	25260.704999999998	-6037.695	-15979.095	0.0	0.0	0.0	0.0	0.0	0.0	0.0	0.0	0.0	0.0	0.0	0.0	0.0	0.0	144.55172413793105	0.0	0.086852805	0.44689827	0.966489225	-57.072399999999995	-65.29754	6.8517399999999995	426081.0	1775936974.272416	0.0	1.0	0.0	-1.0	-1.0	-1.0	1775936974.272416	peace	Peace	3	20260411_124810	Trigger
9958.185	25582.995	-6160.7699999999995	-16024.545	0.0	0.0	0.0	0.0	0.0	0.0	0.0	0.0	0.0	0.0	0.0	0.0	0.0	0.0	144.55172413793105	0.0	0.086852805	0.44689827	0.966489225	-57.072399999999995	-65.29754	6.8517399999999995	426082.0	1775936974.272458	0.0	1.0	0.0	-1.0	-1.0	-1.0	1775936974.272458	peace	Peace	3	20260411_124810	Trigger
10231.02	25559.235	-5957.639999999999	-15852.105	0.0	0.0	0.0	0.0	0.0	0.0	0.0	0.0	0.0	0.0	0.0	0.0	0.0	0.0	144.55172413793105	0.0	0.086852805	0.44689827	0.966489225	-57.072399999999995	-65.29754	6.8517399999999995	426083.0	1775936974.275113	0.0	1.0	0.0	-1.0	-1.0	-1.0	1775936974.275113	peace	Peace	3	20260411_124810	Trigger
10376.73	25218.809999999998	-5562.315	-15549.39	0.0	0.0	0.0	0.0	0.0	0.0	0.0	0.0	0.0	0.0	0.0	0.0	0.0	0.0	144.55172413793105	0.0	0.086852805	0.44689827	0.966489225	-57.072399999999995	-65.29754	6.8517399999999995	426084.0	1775936974.275136	0.0	1.0	0.0	-1.0	-1.0	-1.0	1775936974.275136	peace	Peace	3	20260411_124810	Trigger
10017.855	24742.8	-5518.755	-15539.22	0.0	0.0	0.0	0.0	0.0	0.0	0.0	0.0	0.0	0.0	0.0	0.0	0.0	0.0	144.55172413793105	0.0	0.086852805	0.44689827	0.966489225	-57.072399999999995	-65.29754	6.8517399999999995	426085.0	1775936974.278974	0.0	1.0	0.0	-1.0	-1.0	-1.0	1775936974.278974	peace	Peace	3	20260411_124810	Trigger
9756.359999999999	24393.87	-5551.065	-15626.025	0.0	0.0	0.0	0.0	0.0	0.0	0.0	0.0	0.0	0.0	0.0	0.0	0.0	0.0	144.55172413793105	0.0	0.086852805	0.44689827	0.966489225	-57.072399999999995	-65.29754	6.8517399999999995	426086.0	1775936974.278998	0.0	1.0	0.0	-1.0	-1.0	-1.0	1775936974.278998	peace	Peace	3	20260411_124810	Trigger
9743.445	24364.305	-5500.9349999999995	-15604.38	0.0	0.0	0.0	0.0	0.0	0.0	0.0	0.0	0.0	0.0	0.0	0.0	0.0	0.0	144.55172413793105	0.0	0.086852805	0.44689827	0.966489225	-57.072399999999995	-65.29754	6.8517399999999995	426087.0	1775936974.282989	0.0	1.0	0.0	-1.0	-1.0	-1.0	1775936974.282989	peace	Peace	3	20260411_124810	Trigger
9873.72	24655.635	-5608.26	-15683.805	0.0	0.0	0.0	0.0	0.0	0.0	0.0	0.0	0.0	0.0	0.0	0.0	0.0	0.0	144.55172413793105	0.0	0.086852805	0.44689827	0.966489225	-57.072399999999995	-65.29754	6.8517399999999995	426088.0	1775936974.283013	0.0	1.0	0.0	-1.0	-1.0	-1.0	1775936974.283013	peace	Peace	3	20260411_124810	Trigger
9929.205	25097.535	-5842.71	-15850.215	0.0	0.0	0.0	0.0	0.0	0.0	0.0	0.0	0.0	0.0	0.0	0.0	0.0	0.0	144.55172413793105	0.0	0.038757225	0.401793405	0.99181875	-77.94807999999999	-93.086	-3.3571999999999997	426089.0	1775936974.287032	0.0	1.0	0.0	-1.0	-1.0	-1.0	1775936974.287032	peace	Peace	3	20260411_124810	Trigger
9964.26	25446.149999999998	-6008.49	-15961.41	0.0	0.0	0.0	0.0	0.0	0.0	0.0	0.0	0.0	0.0	0.0	0.0	0.0	0.0	144.55172413793105	0.0	0.038757225	0.401793405	0.99181875	-77.94807999999999	-93.086	-3.3571999999999997	426090.0	1775936974.287056	0.0	1.0	0.0	-1.0	-1.0	-1.0	1775936974.287056	peace	Peace	3	20260411_124810	Trigger
10020.734999999999	25518.825	-6054.974999999999	-16001.955	0.0	0.0	0.0	0.0	0.0	0.0	0.0	0.0	0.0	0.0	0.0	0.0	0.0	0.0	144.55172413793105	0.0	0.038757225	0.401793405	0.99181875	-77.94807999999999	-93.086	-3.3571999999999997	426091.0	1775936974.293669	0.0	1.0	0.0	-1.0	-1.0	-1.0	1775936974.293669	peace	Peace	3	20260411_124810	Trigger
10113.48	25254.629999999997	-5867.82	-15867.539999999999	0.0	0.0	0.0	0.0	0.0	0.0	0.0	0.0	0.0	0.0	0.0	0.0	0.0	0.0	144.55172413793105	0.0	0.038757225	0.401793405	0.99181875	-77.94807999999999	-93.086	-3.3571999999999997	426092.0	1775936974.293693	0.0	1.0	0.0	-1.0	-1.0	-1.0	1775936974.293693	peace	Peace	3	20260411_124810	Trigger
10158.66	24799.77	-5466.78	-15560.369999999999	0.0	0.0	0.0	0.0	0.0	0.0	0.0	0.0	0.0	0.0	0.0	0.0	0.0	0.0	144.55172413793105	0.0	0.038757225	0.401793405	0.99181875	-77.94807999999999	-93.086	-3.3571999999999997	426093.0	1775936974.296359	0.0	1.0	0.0	-1.0	-1.0	-1.0	1775936974.296359	peace	Peace	3	20260411_124810	Trigger
10004.85	24390.855	-5336.415	-15507.09	0.0	0.0	0.0	0.0	0.0	0.0	0.0	0.0	0.0	0.0	0.0	0.0	0.0	0.0	144.55172413793105	0.0	0.038757225	0.401793405	0.99181875	-77.94807999999999	-93.086	-3.3571999999999997	426094.0	1775936974.296388	0.0	1.0	0.0	-1.0	-1.0	-1.0	1775936974.296388	peace	Peace	3	20260411_124810	Trigger
9801.045	24246.585	-5378.58	-15586.154999999999	0.0	0.0	0.0	0.0	0.0	0.0	0.0	0.0	0.0	0.0	0.0	0.0	0.0	0.0	144.55172413793105	0.0	0.038757225	0.401793405	0.99181875	-77.94807999999999	-93.086	-3.3571999999999997	426095.0	1775936974.300526	0.0	1.0	0.0	-1.0	-1.0	-1.0	1775936974.300526	peace	Peace	3	20260411_124810	Trigger
9761.67	24422.985	-5542.2	-15730.605	0.0	0.0	0.0	0.0	0.0	0.0	0.0	0.0	0.0	0.0	0.0	0.0	0.0	0.0	144.55172413793105	0.0	0.038757225	0.401793405	0.99181875	-77.94807999999999	-93.086	-3.3571999999999997	426096.0	1775936974.300558	0.0	1.0	0.0	-1.0	-1.0	-1.0	1775936974.300558	peace	Peace	3	20260411_124810	Trigger
9818.865	24838.695	-5817.105	-15922.17	0.0	0.0	0.0	0.0	0.0	0.0	0.0	0.0	0.0	0.0	0.0	0.0	0.0	0.0	144.55172413793105	0.0	0.038757225	0.401793405	0.99181875	-77.94807999999999	-93.086	-3.3571999999999997	426097.0	1775936974.304636	0.0	1.0	0.0	-1.0	-1.0	-1.0	1775936974.304636	peace	Peace	3	20260411_124810	Trigger
9960.48	25233.704999999998	-6062.04	-16071.93	0.0	0.0	0.0	0.0	0.0	0.0	0.0	0.0	0.0	0.0	0.0	0.0	0.0	0.0	144.55172413793105	0.0	0.038757225	0.401793405	0.99181875	-77.94807999999999	-93.086	-3.3571999999999997	426098.0	1775936974.304662	0.0	1.0	0.0	-1.0	-1.0	-1.0	1775936974.304662	peace	Peace	3	20260411_124810	Trigger
10127.07	25412.175	-6046.245	-16010.369999999999	0.0	0.0	0.0	0.0	0.0	0.0	0.0	0.0	0.0	0.0	0.0	0.0	0.0	0.0	144.55172413793105	0.0	0.029113695000000002	0.358214415	0.94091556	-1.4191799999999999	-78.07016	-0.5341	426099.0	1775936974.307187	0.0	1.0	0.0	-1.0	-1.0	-1.0	1775936974.307187	peace	Peace	3	20260411_124810	Trigger
10139.58	25279.469999999998	-5859.135	-15867.585	0.0	0.0	0.0	0.0	0.0	0.0	0.0	0.0	0.0	0.0	0.0	0.0	0.0	0.0	144.55172413793105	0.0	0.029113695000000002	0.358214415	0.94091556	-1.4191799999999999	-78.07016	-0.5341	426100.0	1775936974.307214	0.0	1.0	0.0	-1.0	-1.0	-1.0	1775936974.307214	peace	Peace	3	20260411_124810	Trigger
10148.039999999999	24883.245	-5635.665	-15705.99	0.0	0.0	0.0	0.0	0.0	0.0	0.0	0.0	0.0	0.0	0.0	0.0	0.0	0.0	144.55172413793105	0.0	0.029113695000000002	0.358214415	0.94091556	-1.4191799999999999	-78.07016	-0.5341	426101.0	1775936974.312554	0.0	1.0	0.0	-1.0	-1.0	-1.0	1775936974.312554	peace	Peace	3	20260411_124810	Trigger
10015.785	24476.805	-5496.21	-15623.595	0.0	0.0	0.0	0.0	0.0	0.0	0.0	0.0	0.0	0.0	0.0	0.0	0.0	0.0	144.55172413793105	0.0	0.029113695000000002	0.358214415	0.94091556	-1.4191799999999999	-78.07016	-0.5341	426102.0	1775936974.312579	0.0	1.0	0.0	-1.0	-1.0	-1.0	1775936974.312579	peace	Peace	3	20260411_124810	Trigger
9824.085	24238.89	-5423.535	-15586.019999999999	0.0	0.0	0.0	0.0	0.0	0.0	0.0	0.0	0.0	0.0	0.0	0.0	0.0	0.0	144.55172413793105	0.0	0.029113695000000002	0.358214415	0.94091556	-1.4191799999999999	-78.07016	-0.5341	426103.0	1775936974.315285	0.0	1.0	0.0	-1.0	-1.0	-1.0	1775936974.315285	peace	Peace	3	20260411_124810	Trigger
9796.904999999999	24302.52	-5503.635	-15679.89	0.0	0.0	0.0	0.0	0.0	0.0	0.0	0.0	0.0	0.0	0.0	0.0	0.0	0.0	144.55172413793105	0.0	0.029113695000000002	0.358214415	0.94091556	-1.4191799999999999	-78.07016	-0.5341	426104.0	1775936974.315308	0.0	1.0	0.0	-1.0	-1.0	-1.0	1775936974.315308	peace	Peace	3	20260411_124810	Trigger
9868.59	24645.915	-5670.675	-15797.25	0.0	0.0	0.0	0.0	0.0	0.0	0.0	0.0	0.0	0.0	0.0	0.0	0.0	0.0	144.55172413793105	0.0	0.029113695000000002	0.358214415	0.94091556	-1.4191799999999999	-78.07016	-0.5341	426105.0	1775936974.319217	0.0	1.0	0.0	-1.0	-1.0	-1.0	1775936974.319217	peace	Peace	3	20260411_124810	Trigger
10022.535	25068.825	-5819.94	-15893.73	0.0	0.0	0.0	0.0	0.0	0.0	0.0	0.0	0.0	0.0	0.0	0.0	0.0	0.0	144.55172413793105	0.0	0.029113695000000002	0.358214415	0.94091556	-1.4191799999999999	-78.07016	-0.5341	426106.0	1775936974.31924	0.0	1.0	0.0	-1.0	-1.0	-1.0	1775936974.31924	peace	Peace	3	20260411_124810	Trigger
10141.785	25354.079999999998	-5882.3099999999995	-15927.119999999999	0.0	0.0	0.0	0.0	0.0	0.0	0.0	0.0	0.0	0.0	0.0	0.0	0.0	0.0	144.55172413793105	0.0	0.029113695000000002	0.358214415	0.94091556	-1.4191799999999999	-78.07016	-0.5341	426107.0	1775936974.323136	0.0	1.0	0.0	-1.0	-1.0	-1.0	1775936974.323136	peace	Peace	3	20260411_124810	Trigger
10140.435	25327.485	-5815.17	-15870.824999999999	0.0	0.0	0.0	0.0	0.0	0.0	0.0	0.0	0.0	0.0	0.0	0.0	0.0	0.0	144.55172413793105	0.0	0.029113695000000002	0.358214415	0.94091556	-1.4191799999999999	-78.07016	-0.5341	426108.0	1775936974.323169	0.0	1.0	0.0	-1.0	-1.0	-1.0	1775936974.323169	peace	Peace	3	20260411_124810	Trigger
10047.465	25010.19	-5739.48	-15795.855	0.0	0.0	0.0	0.0	0.0	0.0	0.0	0.0	0.0	0.0	0.0	0.0	0.0	0.0	144.55172413793105	0.0	0.08520486000000001	0.41088762	0.8776833	24.55334	-56.3094	16.358719999999998	426109.0	1775936974.327213	0.0	1.0	0.0	-1.0	-1.0	-1.0	1775936974.327213	peace	Peace	3	20260411_124810	Trigger
9954.72	24596.774999999998	-5602.995	-15708.42	0.0	0.0	0.0	0.0	0.0	0.0	0.0	0.0	0.0	0.0	0.0	0.0	0.0	0.0	144.55172413793105	0.0	0.08520486000000001	0.41088762	0.8776833	24.55334	-56.3094	16.358719999999998	426110.0	1775936974.32724	0.0	1.0	0.0	-1.0	-1.0	-1.0	1775936974.32724	peace	Peace	3	20260411_124810	Trigger
9876.914999999999	24302.79	-5439.915	-15629.67	0.0	0.0	0.0	0.0	0.0	0.0	0.0	0.0	0.0	0.0	0.0	0.0	0.0	0.0	144.55172413793105	0.0	0.08520486000000001	0.41088762	0.8776833	24.55334	-56.3094	16.358719999999998	426111.0	1775936974.331216	0.0	1.0	0.0	-1.0	-1.0	-1.0	1775936974.331216	peace	Peace	3	20260411_124810	Trigger
9681.615	24266.969999999998	-5570.19	-15757.38	0.0	0.0	0.0	0.0	0.0	0.0	0.0	0.0	0.0	0.0	0.0	0.0	0.0	0.0	144.55172413793105	0.0	0.08520486000000001	0.41088762	0.8776833	24.55334	-56.3094	16.358719999999998	426112.0	1775936974.331241	0.0	1.0	0.0	-1.0	-1.0	-1.0	1775936974.331241	peace	Peace	3	20260411_124810	Trigger
