Channel1	Channel2	Channel3	Channel4	Channel5	Channel6	Channel7	Channel8	FilteredChannel1	FilteredChannel2	FilteredChannel3	FilteredChannel4	FilteredChannel5	FilteredChannel6	FilteredChannel7	FilteredChannel8	GyroX	GyroY	GyroZ	AccX	AccY	AccZ	PPG1	PPG2	rawPPG1	rawPPG2	rawPPG3	Hr	Hrv	Battery	Trigger	PhysicalTrigger	AutoTrigger	NumMeasurements	Timestamp	GestureLabel	CueLabel	TrialNumber	SessionId	MarkerColumn
25626.285	30865.454999999998	2877.435	-7868.655	0.0	0.0	0.0	0.0	0.0	0.0	0.0	0.0	0.0	0.0	0.0	0.0	0.0	0.0	144.48275862068965	0.0	0.00463866	0.4846179	0.88305438	2.09062	-1.0682	-1.1444999999999999	400827.0	1775936923.623214	5.0	1.0	5.0	-1.0	-1.0	-1.0	1775936923.623214	peace	Peace	1	20260411_124810	Trigger
23560.245	33447.78	566.865	-9970.785	0.0	0.0	0.0	0.0	0.0	0.0	0.0	0.0	0.0	0.0	0.0	0.0	0.0	0.0	144.48275862068965	0.0	0.00463866	0.4846179	0.88305438	2.09062	-1.0682	-1.1444999999999999	400828.0	1775936923.623236	0.0	1.0	0.0	-1.0	-1.0	-1.0	1775936923.623236	peace	Peace	1	20260411_124810	Trigger
20722.184999999998	38040.659999999996	-2589.615	-12875.445	0.0	0.0	0.0	0.0	0.0	0.0	0.0	0.0	0.0	0.0	0.0	0.0	0.0	0.0	144.48275862068965	0.0	0.003356925	0.48998898	0.881162295	-1.25132	-1.05294	0.88508	400829.0	1775936923.627277	0.0	1.0	0.0	-1.0	-1.0	-1.0	1775936923.627277	peace	Peace	1	20260411_124810	Trigger
18805.32	41797.619999999995	-4779.72	-14908.32	0.0	0.0	0.0	0.0	0.0	0.0	0.0	0.0	0.0	0.0	0.0	0.0	0.0	0.0	144.48275862068965	0.0	0.003356925	0.48998898	0.881162295	-1.25132	-1.05294	0.88508	400830.0	1775936923.627297	0.0	1.0	0.0	-1.0	-1.0	-1.0	1775936923.627297	peace	Peace	1	20260411_124810	Trigger
18672.344999999998	42969.06	-4925.429999999999	-15069.824999999999	0.0	0.0	0.0	0.0	0.0	0.0	0.0	0.0	0.0	0.0	0.0	0.0	0.0	0.0	144.48275862068965	0.0	0.003356925	0.48998898	0.881162295	-1.25132	-1.05294	0.88508	400831.0	1775936923.631158	0.0	1.0	0.0	-1.0	-1.0	-1.0	1775936923.631158	peace	Peace	1	20260411_124810	Trigger
20662.335	40618.125	-2761.785	-13097.699999999999	0.0	0.0	0.0	0.0	0.0	0.0	0.0	0.0	0.0	0.0	0.0	0.0	0.0	0.0	144.48275862068965	0.0	0.003356925	0.48998898	0.881162295	-1.25132	-1.05294	0.88508	400832.0	1775936923.631163	0.0	1.0	0.0	-1.0	-1.0	-1.0	1775936923.631163	peace	Peace	1	20260411_124810	Trigger
23564.295	36058.275	427.68	-10160.595	0.0	0.0	0.0	0.0	0.0	0.0	0.0	0.0	0.0	0.0	0.0	0.0	0.0	0.0	144.48275862068965	0.0	0.003356925	0.48998898	0.881162295	-1.25132	-1.05294	0.88508	400833.0	1775936923.635195	0.0	1.0	0.0	-1.0	-1.0	-1.0	1775936923.635195	peace	Peace	1	20260411_124810	Trigger
25889.129999999997	31716.809999999998	3031.56	-7741.62	0.0	0.0	0.0	0.0	0.0	0.0	0.0	0.0	0.0	0.0	0.0	0.0	0.0	0.0	144.48275862068965	0.0	0.003356925	0.48998898	0.881162295	-1.25132	-1.05294	0.88508	400834.0	1775936923.635219	0.0	1.0	0.0	-1.0	-1.0	-1.0	1775936923.635219	peace	Peace	1	20260411_124810	Trigger
26180.37	30110.219999999998	3425.4449999999997	-7355.925	0.0	0.0	0.0	0.0	0.0	0.0	0.0	0.0	0.0	0.0	0.0	0.0	0.0	0.0	144.48275862068965	0.0	0.003356925	0.48998898	0.881162295	-1.25132	-1.05294	0.88508	400835.0	1775936923.639242	0.0	1.0	0.0	-1.0	-1.0	-1.0	1775936923.639242	peace	Peace	1	20260411_124810	Trigger
24644.655	31724.46	1704.06	-8912.475	0.0	0.0	0.0	0.0	0.0	0.0	0.0	0.0	0.0	0.0	0.0	0.0	0.0	0.0	144.48275862068965	0.0	0.003356925	0.48998898	0.881162295	-1.25132	-1.05294	0.88508	400836.0	1775936923.639264	0.0	1.0	0.0	-1.0	-1.0	-1.0	1775936923.639264	peace	Peace	1	20260411_124810	Trigger
21825.809999999998	36082.485	-1429.11	-11791.619999999999	0.0	0.0	0.0	0.0	0.0	0.0	0.0	0.0	0.0	0.0	0.0	0.0	0.0	0.0	144.48275862068965	0.0	0.003356925	0.48998898	0.881162295	-1.25132	-1.05294	0.88508	400837.0	1775936923.643208	0.0	1.0	0.0	-1.0	-1.0	-1.0	1775936923.643208	peace	Peace	1	20260411_124810	Trigger
19463.715	40469.445	-4121.19	-14288.984999999999	0.0	0.0	0.0	0.0	0.0	0.0	0.0	0.0	0.0	0.0	0.0	0.0	0.0	0.0	144.48275862068965	0.0	0.003356925	0.48998898	0.881162295	-1.25132	-1.05294	0.88508	400838.0	1775936923.643228	0.0	1.0	0.0	-1.0	-1.0	-1.0	1775936923.643228	peace	Peace	1	20260411_124810	Trigger
18753.66	42515.01	-4919.8949999999995	-15047.279999999999	0.0	0.0	0.0	0.0	0.0	0.0	0.0	0.0	0.0	0.0	0.0	0.0	0.0	0.0	144.48275862068965	0.0	0.0037231350000000002	0.491392785	0.881040225	-5.9208799999999995	-1.58704	1.8159399999999999	400839.0	1775936923.647152	0.0	1.0	0.0	-1.0	-1.0	-1.0	1775936923.647152	peace	Peace	1	20260411_124810	Trigger
20088.495	41313.51	-3421.17	-13675.994999999999	0.0	0.0	0.0	0.0	0.0	0.0	0.0	0.0	0.0	0.0	0.0	0.0	0.0	0.0	144.48275862068965	0.0	0.0037231350000000002	0.491392785	0.881040225	-5.9208799999999995	-1.58704	1.8159399999999999	400840.0	1775936923.647171	0.0	1.0	0.0	-1.0	-1.0	-1.0	1775936923.647171	peace	Peace	1	20260411_124810	Trigger
22872.96	37248.479999999996	-385.83	-10892.295	0.0	0.0	0.0	0.0	0.0	0.0	0.0	0.0	0.0	0.0	0.0	0.0	0.0	0.0	144.48275862068965	0.0	0.0037231350000000002	0.491392785	0.881040225	-5.9208799999999995	-1.58704	1.8159399999999999	400841.0	1775936923.651311	0.0	1.0	0.0	-1.0	-1.0	-1.0	1775936923.651311	peace	Peace	1	20260411_124810	Trigger
25582.725	32506.559999999998	2582.325	-8142.165	0.0	0.0	0.0	0.0	0.0	0.0	0.0	0.0	0.0	0.0	0.0	0.0	0.0	0.0	144.48275862068965	0.0	0.0037231350000000002	0.491392785	0.881040225	-5.9208799999999995	-1.58704	1.8159399999999999	400842.0	1775936923.65133	0.0	1.0	0.0	-1.0	-1.0	-1.0	1775936923.65133	peace	Peace	1	20260411_124810	Trigger
26495.01	29947.59	3690.3599999999997	-7110.179999999999	0.0	0.0	0.0	0.0	0.0	0.0	0.0	0.0	0.0	0.0	0.0	0.0	0.0	0.0	144.48275862068965	0.0	0.0037231350000000002	0.491392785	0.881040225	-5.9208799999999995	-1.58704	1.8159399999999999	400843.0	1775936923.655235	0.0	1.0	0.0	-1.0	-1.0	-1.0	1775936923.655235	peace	Peace	1	20260411_124810	Trigger
25533.27	30545.684999999998	2622.645	-8075.07	0.0	0.0	0.0	0.0	0.0	0.0	0.0	0.0	0.0	0.0	0.0	0.0	0.0	0.0	144.48275862068965	0.0	0.0037231350000000002	0.491392785	0.881040225	-5.9208799999999995	-1.58704	1.8159399999999999	400844.0	1775936923.655254	0.0	1.0	0.0	-1.0	-1.0	-1.0	1775936923.655254	peace	Peace	1	20260411_124810	Trigger
22909.274999999998	34320.06	-264.555	-10711.305	0.0	0.0	0.0	0.0	0.0	0.0	0.0	0.0	0.0	0.0	0.0	0.0	0.0	0.0	144.48275862068965	0.0	0.0037231350000000002	0.491392785	0.881040225	-5.9208799999999995	-1.58704	1.8159399999999999	400845.0	1775936923.659864	0.0	1.0	0.0	-1.0	-1.0	-1.0	1775936923.659864	peace	Peace	1	20260411_124810	Trigger
20181.645	39080.655	-3299.04	-13512.195	0.0	0.0	0.0	0.0	0.0	0.0	0.0	0.0	0.0	0.0	0.0	0.0	0.0	0.0	144.48275862068965	0.0	0.0037231350000000002	0.491392785	0.881040225	-5.9208799999999995	-1.58704	1.8159399999999999	400846.0	1775936923.659883	0.0	1.0	0.0	-1.0	-1.0	-1.0	1775936923.659883	peace	Peace	1	20260411_124810	Trigger
18914.399999999998	42005.61	-4738.95	-14864.265	0.0	0.0	0.0	0.0	0.0	0.0	0.0	0.0	0.0	0.0	0.0	0.0	0.0	0.0	144.48275862068965	0.0	0.0037231350000000002	0.491392785	0.881040225	-5.9208799999999995	-1.58704	1.8159399999999999	400847.0	1775936923.66324	0.0	1.0	0.0	-1.0	-1.0	-1.0	1775936923.66324	peace	Peace	1	20260411_124810	Trigger
19627.785	41909.76	-3962.52	-14173.154999999999	0.0	0.0	0.0	0.0	0.0	0.0	0.0	0.0	0.0	0.0	0.0	0.0	0.0	0.0	144.48275862068965	0.0	0.0037231350000000002	0.491392785	0.881040225	-5.9208799999999995	-1.58704	1.8159399999999999	400848.0	1775936923.663259	0.0	1.0	0.0	-1.0	-1.0	-1.0	1775936923.663259	peace	Peace	1	20260411_124810	Trigger
22111.29	38571.255	-1253.565	-11684.43	0.0	0.0	0.0	0.0	0.0	0.0	0.0	0.0	0.0	0.0	0.0	0.0	0.0	0.0	144.48275862068965	0.0	0.006896955	0.48925656	0.88085712	-8.0878	-0.9003399999999999	3.00622	400849.0	1775936923.669352	0.0	1.0	0.0	-1.0	-1.0	-1.0	1775936923.669352	peace	Peace	1	20260411_124810	Trigger
24981.524999999998	33805.575	1849.86	-8826.705	0.0	0.0	0.0	0.0	0.0	0.0	0.0	0.0	0.0	0.0	0.0	0.0	0.0	0.0	144.48275862068965	0.0	0.006896955	0.48925656	0.88085712	-8.0878	-0.9003399999999999	3.00622	400850.0	1775936923.669371	0.0	1.0	0.0	-1.0	-1.0	-1.0	1775936923.669371	peace	Peace	1	20260411_124810	Trigger
26547.704999999998	30362.085	3656.3399999999997	-7149.195	0.0	0.0	0.0	0.0	0.0	0.0	0.0	0.0	0.0	0.0	0.0	0.0	0.0	0.0	144.48275862068965	0.0	0.006896955	0.48925656	0.88085712	-8.0878	-0.9003399999999999	3.00622	400851.0	1775936923.671349	0.0	1.0	0.0	-1.0	-1.0	-1.0	1775936923.671349	peace	Peace	1	20260411_124810	Trigger
26113.454999999998	29993.85	3229.605	-7516.44	0.0	0.0	0.0	0.0	0.0	0.0	0.0	0.0	0.0	0.0	0.0	0.0	0.0	0.0	144.48275862068965	0.0	0.006896955	0.48925656	0.88085712	-8.0878	-0.9003399999999999	3.00622	400852.0	1775936923.671368	0.0	1.0	0.0	-1.0	-1.0	-1.0	1775936923.671368	peace	Peace	1	20260411_124810	Trigger
23884.379999999997	32940.27	770.175	-9760.545	0.0	0.0	0.0	0.0	0.0	0.0	0.0	0.0	0.0	0.0	0.0	0.0	0.0	0.0	144.48275862068965	0.0	0.006896955	0.48925656	0.88085712	-8.0878	-0.9003399999999999	3.00622	400853.0	1775936923.675425	0.0	1.0	0.0	-1.0	-1.0	-1.0	1775936923.675425	peace	Peace	1	20260411_124810	Trigger
20974.905	37770.885	-2445.39	-12723.345	0.0	0.0	0.0	0.0	0.0	0.0	0.0	0.0	0.0	0.0	0.0	0.0	0.0	0.0	144.48275862068965	0.0	0.006896955	0.48925656	0.88085712	-8.0878	-0.9003399999999999	3.00622	400854.0	1775936923.67543	0.0	1.0	0.0	-1.0	-1.0	-1.0	1775936923.67543	peace	Peace	1	20260411_124810	Trigger
19144.26	41528.385	-4551.57	-14673.51	0.0	0.0	0.0	0.0	0.0	0.0	0.0	0.0	0.0	0.0	0.0	0.0	0.0	0.0	144.48275862068965	0.0	0.006896955	0.48925656	0.88085712	-8.0878	-0.9003399999999999	3.00622	400855.0	1775936923.679255	0.0	1.0	0.0	-1.0	-1.0	-1.0	1775936923.679255	peace	Peace	1	20260411_124810	Trigger
19210.14	42436.845	-4502.115	-14657.805	0.0	0.0	0.0	0.0	0.0	0.0	0.0	0.0	0.0	0.0	0.0	0.0	0.0	0.0	144.48275862068965	0.0	0.006896955	0.48925656	0.88085712	-8.0878	-0.9003399999999999	3.00622	400856.0	1775936923.679273	0.0	1.0	0.0	-1.0	-1.0	-1.0	1775936923.679273	peace	Peace	1	20260411_124810	Trigger
21286.035	39991.68	-2246.355	-12616.74	0.0	0.0	0.0	0.0	0.0	0.0	0.0	0.0	0.0	0.0	0.0	0.0	0.0	0.0	144.48275862068965	0.0	0.006896955	0.48925656	0.88085712	-8.0878	-0.9003399999999999	3.00622	400857.0	1775936923.683351	0.0	1.0	0.0	-1.0	-1.0	-1.0	1775936923.683351	peace	Peace	1	20260411_124810	Trigger
24143.445	35473.814999999995	918.36	-9700.425	0.0	0.0	0.0	0.0	0.0	0.0	0.0	0.0	0.0	0.0	0.0	0.0	0.0	0.0	144.48275862068965	0.0	0.006896955	0.48925656	0.88085712	-8.0878	-0.9003399999999999	3.00622	400858.0	1775936923.683373	0.0	1.0	0.0	-1.0	-1.0	-1.0	1775936923.683373	peace	Peace	1	20260411_124810	Trigger
26295.254999999997	31302.675	3359.3849999999998	-7423.0199999999995	0.0	0.0	0.0	0.0	0.0	0.0	0.0	0.0	0.0	0.0	0.0	0.0	0.0	0.0	144.48275862068965	0.0	0.00891111	0.486387915	0.888608565	-9.18652	-1.03768	4.39488	400859.0	1775936923.687365	0.0	1.0	0.0	-1.0	-1.0	-1.0	1775936923.687365	peace	Peace	1	20260411_124810	Trigger
26415.18	30001.184999999998	3560.67	-7212.285	0.0	0.0	0.0	0.0	0.0	0.0	0.0	0.0	0.0	0.0	0.0	0.0	0.0	0.0	144.48275862068965	0.0	0.00891111	0.486387915	0.888608565	-9.18652	-1.03768	4.39488	400860.0	1775936923.687383	0.0	1.0	0.0	-1.0	-1.0	-1.0	1775936923.687383	peace	Peace	1	20260411_124810	Trigger
24735.735	31932.18	1670.985	-8928.404999999999	0.0	0.0	0.0	0.0	0.0	0.0	0.0	0.0	0.0	0.0	0.0	0.0	0.0	0.0	144.48275862068965	0.0	0.00891111	0.486387915	0.888608565	-9.18652	-1.03768	4.39488	400861.0	1775936923.69127	0.0	1.0	0.0	-1.0	-1.0	-1.0	1775936923.69127	peace	Peace	1	20260411_124810	Trigger
21869.46	36464.31	-1498.725	-11845.305	0.0	0.0	0.0	0.0	0.0	0.0	0.0	0.0	0.0	0.0	0.0	0.0	0.0	0.0	144.48275862068965	0.0	0.00891111	0.486387915	0.888608565	-9.18652	-1.03768	4.39488	400862.0	1775936923.691289	0.0	1.0	0.0	-1.0	-1.0	-1.0	1775936923.691289	peace	Peace	1	20260411_124810	Trigger
19546.245	40827.645	-4114.53	-14268.15	0.0	0.0	0.0	0.0	0.0	0.0	0.0	0.0	0.0	0.0	0.0	0.0	0.0	0.0	144.48275862068965	0.0	0.00891111	0.486387915	0.888608565	-9.18652	-1.03768	4.39488	400863.0	1775936923.695395	0.0	1.0	0.0	-1.0	-1.0	-1.0	1775936923.695395	peace	Peace	1	20260411_124810	Trigger
18981.855	42698.835	-4761.224999999999	-14892.974999999999	0.0	0.0	0.0	0.0	0.0	0.0	0.0	0.0	0.0	0.0	0.0	0.0	0.0	0.0	144.48275862068965	0.0	0.00891111	0.486387915	0.888608565	-9.18652	-1.03768	4.39488	400864.0	1775936923.695414	0.0	1.0	0.0	-1.0	-1.0	-1.0	1775936923.695414	peace	Peace	1	20260411_124810	Trigger
20472.3	41310.63	-3130.6949999999997	-13414.545	0.0	0.0	0.0	0.0	0.0	0.0	0.0	0.0	0.0	0.0	0.0	0.0	0.0	0.0	144.48275862068965	0.0	0.00891111	0.486387915	0.888608565	-9.18652	-1.03768	4.39488	400865.0	1775936923.699366	0.0	1.0	0.0	-1.0	-1.0	-1.0	1775936923.699366	peace	Peace	1	20260411_124810	Trigger
23231.7	37236.915	-94.27499999999999	-10626.029999999999	0.0	0.0	0.0	0.0	0.0	0.0	0.0	0.0	0.0	0.0	0.0	0.0	0.0	0.0	144.48275862068965	0.0	0.00891111	0.486387915	0.888608565	-9.18652	-1.03768	4.39488	400866.0	1775936923.699385	0.0	1.0	0.0	-1.0	-1.0	-1.0	1775936923.699385	peace	Peace	1	20260411_124810	Trigger
25832.43	32602.23	2779.9649999999997	-7965.315	0.0	0.0	0.0	0.0	0.0	0.0	0.0	0.0	0.0	0.0	0.0	0.0	0.0	0.0	144.48275862068965	0.0	0.00891111	0.486387915	0.888608565	-9.18652	-1.03768	4.39488	400867.0	1775936923.703397	0.0	1.0	0.0	-1.0	-1.0	-1.0	1775936923.703397	peace	Peace	1	20260411_124810	Trigger
26572.23	30358.035	3679.065	-7114.59	0.0	0.0	0.0	0.0	0.0	0.0	0.0	0.0	0.0	0.0	0.0	0.0	0.0	0.0	144.48275862068965	0.0	0.00891111	0.486387915	0.888608565	-9.18652	-1.03768	4.39488	400868.0	1775936923.703417	0.0	1.0	0.0	-1.0	-1.0	-1.0	1775936923.703417	peace	Peace	1	20260411_124810	Trigger
25458.075	31248.945	2435.4	-8231.67	0.0	0.0	0.0	0.0	0.0	0.0	0.0	0.0	0.0	0.0	0.0	0.0	0.0	0.0	144.48275862068965	0.0	0.010192845	0.47900268	0.8876320050000001	-9.33912	-0.28994	1.8769799999999999	400869.0	1775936923.707302	0.0	1.0	0.0	-1.0	-1.0	-1.0	1775936923.707302	peace	Peace	1	20260411_124810	Trigger
22776.165	35236.979999999996	-538.605	-10957.814999999999	0.0	0.0	0.0	0.0	0.0	0.0	0.0	0.0	0.0	0.0	0.0	0.0	0.0	0.0	144.48275862068965	0.0	0.010192845	0.47900268	0.8876320050000001	-9.33912	-0.28994	1.8769799999999999	400870.0	1775936923.707321	0.0	1.0	0.0	-1.0	-1.0	-1.0	1775936923.707321	peace	Peace	1	20260411_124810	Trigger
20102.895	39969.54	-3521.6549999999997	-13712.039999999999	0.0	0.0	0.0	0.0	0.0	0.0	0.0	0.0	0.0	0.0	0.0	0.0	0.0	0.0	144.48275862068965	0.0	0.010192845	0.47900268	0.8876320050000001	-9.33912	-0.28994	1.8769799999999999	400871.0	1775936923.712519	0.0	1.0	0.0	-1.0	-1.0	-1.0	1775936923.712519	peace	Peace	1	20260411_124810	Trigger
18941.67	42731.595	-4832.73	-14947.605	0.0	0.0	0.0	0.0	0.0	0.0	0.0	0.0	0.0	0.0	0.0	0.0	0.0	0.0	144.48275862068965	0.0	0.010192845	0.47900268	0.8876320050000001	-9.33912	-0.28994	1.8769799999999999	400872.0	1775936923.712538	0.0	1.0	0.0	-1.0	-1.0	-1.0	1775936923.712538	peace	Peace	1	20260411_124810	Trigger
19777.32	42436.485	-3920.31	-14132.519999999999	0.0	0.0	0.0	0.0	0.0	0.0	0.0	0.0	0.0	0.0	0.0	0.0	0.0	0.0	144.48275862068965	0.0	0.010192845	0.47900268	0.8876320050000001	-9.33912	-0.28994	1.8769799999999999	400873.0	1775936923.715419	0.0	1.0	0.0	-1.0	-1.0	-1.0	1775936923.715419	peace	Peace	1	20260411_124810	Trigger
22307.309999999998	39001.365	-1144.44	-11588.039999999999	0.0	0.0	0.0	0.0	0.0	0.0	0.0	0.0	0.0	0.0	0.0	0.0	0.0	0.0	144.48275862068965	0.0	0.010192845	0.47900268	0.8876320050000001	-9.33912	-0.28994	1.8769799999999999	400874.0	1775936923.715437	0.0	1.0	0.0	-1.0	-1.0	-1.0	1775936923.715437	peace	Peace	1	20260411_124810	Trigger
25114.77	34291.665	1940.715	-8739.18	0.0	0.0	0.0	0.0	0.0	0.0	0.0	0.0	0.0	0.0	0.0	0.0	0.0	0.0	144.48275862068965	0.0	0.010192845	0.47900268	0.8876320050000001	-9.33912	-0.28994	1.8769799999999999	400875.0	1775936923.720849	0.0	1.0	0.0	-1.0	-1.0	-1.0	1775936923.720849	peace	Peace	1	20260411_124810	Trigger
26512.829999999998	31115.07	3562.3799999999997	-7228.304999999999	0.0	0.0	0.0	0.0	0.0	0.0	0.0	0.0	0.0	0.0	0.0	0.0	0.0	0.0	144.48275862068965	0.0	0.010192845	0.47900268	0.8876320050000001	-9.33912	-0.28994	1.8769799999999999	400876.0	1775936923.720868	0.0	1.0	0.0	-1.0	-1.0	-1.0	1775936923.720868	peace	Peace	1	20260411_124810	Trigger
25950.42	31010.129999999997	2957.13	-7759.485	0.0	0.0	0.0	0.0	0.0	0.0	0.0	0.0	0.0	0.0	0.0	0.0	0.0	0.0	144.48275862068965	0.0	0.010192845	0.47900268	0.8876320050000001	-9.33912	-0.28994	1.8769799999999999	400877.0	1775936923.728439	0.0	1.0	0.0	-1.0	-1.0	-1.0	1775936923.728439	peace	Peace	1	20260411_124810	Trigger
23610.42	34207.2	359.145	-10130.355	0.0	0.0	0.0	0.0	0.0	0.0	0.0	0.0	0.0	0.0	0.0	0.0	0.0	0.0	144.48275862068965	0.0	0.010192845	0.47900268	0.8876320050000001	-9.33912	-0.28994	1.8769799999999999	400878.0	1775936923.728458	0.0	1.0	0.0	-1.0	-1.0	-1.0	1775936923.728458	peace	Peace	1	20260411_124810	Trigger
20774.16	38999.924999999996	-2795.7149999999997	-13041.269999999999	0.0	0.0	0.0	0.0	0.0	0.0	0.0	0.0	0.0	0.0	0.0	0.0	0.0	0.0	144.48275862068965	0.0	0.012329070000000001	0.47814819000000003	0.88805925	-7.53844	1.03768	1.70912	400879.0	1775936923.728473	0.0	1.0	0.0	-1.0	-1.0	-1.0	1775936923.728473	peace	Peace	1	20260411_124810	Trigger
19056.105	42548.445	-4747.32	-14860.845	0.0	0.0	0.0	0.0	0.0	0.0	0.0	0.0	0.0	0.0	0.0	0.0	0.0	0.0	144.48275862068965	0.0	0.012329070000000001	0.47814819000000003	0.88805925	-7.53844	1.03768	1.70912	400880.0	1775936923.72848	0.0	1.0	0.0	-1.0	-1.0	-1.0	1775936923.72848	peace	Peace	1	20260411_124810	Trigger
19214.954999999998	43318.53	-4558.32	-14716.394999999999	0.0	0.0	0.0	0.0	0.0	0.0	0.0	0.0	0.0	0.0	0.0	0.0	0.0	0.0	144.48275862068965	0.0	0.012329070000000001	0.47814819000000003	0.88805925	-7.53844	1.03768	1.70912	400881.0	1775936923.731383	0.0	1.0	0.0	-1.0	-1.0	-1.0	1775936923.731383	peace	Peace	1	20260411_124810	Trigger
21393.855	40676.445	-2171.43	-12536.73	0.0	0.0	0.0	0.0	0.0	0.0	0.0	0.0	0.0	0.0	0.0	0.0	0.0	0.0	144.48275862068965	0.0	0.012329070000000001	0.47814819000000003	0.88805925	-7.53844	1.03768	1.70912	400882.0	1775936923.731409	0.0	1.0	0.0	-1.0	-1.0	-1.0	1775936923.731409	peace	Peace	1	20260411_124810	Trigger
24248.52	36128.61	960.795	-9651.24	0.0	0.0	0.0	0.0	0.0	0.0	0.0	0.0	0.0	0.0	0.0	0.0	0.0	0.0	144.48275862068965	0.0	0.012329070000000001	0.47814819000000003	0.88805925	-7.53844	1.03768	1.70912	400883.0	1775936923.735437	0.0	1.0	0.0	-1.0	-1.0	-1.0	1775936923.735437	peace	Peace	1	20260411_124810	Trigger
26228.52	32177.07	3201.2549999999997	-7569.719999999999	0.0	0.0	0.0	0.0	0.0	0.0	0.0	0.0	0.0	0.0	0.0	0.0	0.0	0.0	144.48275862068965	0.0	0.012329070000000001	0.47814819000000003	0.88805925	-7.53844	1.03768	1.70912	400884.0	1775936923.735456	0.0	1.0	0.0	-1.0	-1.0	-1.0	1775936923.735456	peace	Peace	1	20260411_124810	Trigger
26227.62	31132.754999999997	3243.33	-7508.88	0.0	0.0	0.0	0.0	0.0	0.0	0.0	0.0	0.0	0.0	0.0	0.0	0.0	0.0	144.48275862068965	0.0	0.012329070000000001	0.47814819000000003	0.88805925	-7.53844	1.03768	1.70912	400885.0	1775936923.740323	0.0	1.0	0.0	-1.0	-1.0	-1.0	1775936923.740323	peace	Peace	1	20260411_124810	Trigger
24409.575	33333.435	1202.895	-9363.555	0.0	0.0	0.0	0.0	0.0	0.0	0.0	0.0	0.0	0.0	0.0	0.0	0.0	0.0	144.48275862068965	0.0	0.012329070000000001	0.47814819000000003	0.88805925	-7.53844	1.03768	1.70912	400886.0	1775936923.740342	0.0	1.0	0.0	-1.0	-1.0	-1.0	1775936923.740342	peace	Peace	1	20260411_124810	Trigger
21608.28	37860.885	-1896.6599999999999	-12214.574999999999	0.0	0.0	0.0	0.0	0.0	0.0	0.0	0.0	0.0	0.0	0.0	0.0	0.0	0.0	144.48275862068965	0.0	0.012329070000000001	0.47814819000000003	0.88805925	-7.53844	1.03768	1.70912	400887.0	1775936923.743453	0.0	1.0	0.0	-1.0	-1.0	-1.0	1775936923.743453	peace	Peace	1	20260411_124810	Trigger
19482.21	41930.325	-4298.264999999999	-14443.56	0.0	0.0	0.0	0.0	0.0	0.0	0.0	0.0	0.0	0.0	0.0	0.0	0.0	0.0	144.48275862068965	0.0	0.012329070000000001	0.47814819000000003	0.88805925	-7.53844	1.03768	1.70912	400888.0	1775936923.743472	0.0	1.0	0.0	-1.0	-1.0	-1.0	1775936923.743472	peace	Peace	1	20260411_124810	Trigger
19035.675	43600.86	-4794.03	-14931.72	0.0	0.0	0.0	0.0	0.0	0.0	0.0	0.0	0.0	0.0	0.0	0.0	0.0	0.0	144.34482758620692	0.0	0.012268035	0.48107787	0.883725765	-13.169379999999999	0.57988	2.53316	400889.0	1775936923.747539	0.0	1.0	0.0	-1.0	-1.0	-1.0	1775936923.747539	peace	Peace	1	20260411_124810	Trigger
20598.48	42057.045	-3083.7599999999998	-13379.445	0.0	0.0	0.0	0.0	0.0	0.0	0.0	0.0	0.0	0.0	0.0	0.0	0.0	0.0	144.34482758620692	0.0	0.012268035	0.48107787	0.883725765	-13.169379999999999	0.57988	2.53316	400890.0	1775936923.747557	0.0	1.0	0.0	-1.0	-1.0	-1.0	1775936923.747557	peace	Peace	1	20260411_124810	Trigger
23263.335	38035.665	-144.765	-10676.789999999999	0.0	0.0	0.0	0.0	0.0	0.0	0.0	0.0	0.0	0.0	0.0	0.0	0.0	0.0	144.34482758620692	0.0	0.012268035	0.48107787	0.883725765	-13.169379999999999	0.57988	2.53316	400891.0	1775936923.751545	0.0	1.0	0.0	-1.0	-1.0	-1.0	1775936923.751545	peace	Peace	1	20260411_124810	Trigger
25625.295	33671.744999999995	2502.45	-8230.275	0.0	0.0	0.0	0.0	0.0	0.0	0.0	0.0	0.0	0.0	0.0	0.0	0.0	0.0	144.34482758620692	0.0	0.012268035	0.48107787	0.883725765	-13.169379999999999	0.57988	2.53316	400892.0	1775936923.751564	0.0	1.0	0.0	-1.0	-1.0	-1.0	1775936923.751564	peace	Peace	1	20260411_124810	Trigger
26265.329999999998	31663.485	3267.495	-7504.38	0.0	0.0	0.0	0.0	0.0	0.0	0.0	0.0	0.0	0.0	0.0	0.0	0.0	0.0	144.34482758620692	0.0	0.012268035	0.48107787	0.883725765	-13.169379999999999	0.57988	2.53316	400893.0	1775936923.755476	0.0	1.0	0.0	-1.0	-1.0	-1.0	1775936923.755476	peace	Peace	1	20260411_124810	Trigger
25067.7	32764.905	1913.58	-8724.015	0.0	0.0	0.0	0.0	0.0	0.0	0.0	0.0	0.0	0.0	0.0	0.0	0.0	0.0	144.34482758620692	0.0	0.012268035	0.48107787	0.883725765	-13.169379999999999	0.57988	2.53316	400894.0	1775936923.755495	0.0	1.0	0.0	-1.0	-1.0	-1.0	1775936923.755495	peace	Peace	1	20260411_124810	Trigger
22456.305	36735.885	-992.2049999999999	-11387.205	0.0	0.0	0.0	0.0	0.0	0.0	0.0	0.0	0.0	0.0	0.0	0.0	0.0	0.0	144.34482758620692	0.0	0.012268035	0.48107787	0.883725765	-13.169379999999999	0.57988	2.53316	400895.0	1775936923.759537	0.0	1.0	0.0	-1.0	-1.0	-1.0	1775936923.759537	peace	Peace	1	20260411_124810	Trigger
19979.91	41162.805	-3776.67	-13957.83	0.0	0.0	0.0	0.0	0.0	0.0	0.0	0.0	0.0	0.0	0.0	0.0	0.0	0.0	144.34482758620692	0.0	0.012268035	0.48107787	0.883725765	-13.169379999999999	0.57988	2.53316	400896.0	1775936923.759556	0.0	1.0	0.0	-1.0	-1.0	-1.0	1775936923.759556	peace	Peace	1	20260411_124810	Trigger
18968.805	43648.875	-4916.115	-15034.095	0.0	0.0	0.0	0.0	0.0	0.0	0.0	0.0	0.0	0.0	0.0	0.0	0.0	0.0	144.34482758620692	0.0	0.012268035	0.48107787	0.883725765	-13.169379999999999	0.57988	2.53316	400897.0	1775936923.763471	0.0	1.0	0.0	-1.0	-1.0	-1.0	1775936923.763471	peace	Peace	1	20260411_124810	Trigger
19910.16	43159.5	-3883.23	-14113.664999999999	0.0	0.0	0.0	0.0	0.0	0.0	0.0	0.0	0.0	0.0	0.0	0.0	0.0	0.0	144.34482758620692	0.0	0.012268035	0.48107787	0.883725765	-13.169379999999999	0.57988	2.53316	400898.0	1775936923.76349	0.0	1.0	0.0	-1.0	-1.0	-1.0	1775936923.76349	peace	Peace	1	20260411_124810	Trigger
22466.7	39597.705	-1072.62	-11536.515	0.0	0.0	0.0	0.0	0.0	0.0	0.0	0.0	0.0	0.0	0.0	0.0	0.0	0.0	144.34482758620692	0.0	0.0068359200000000005	0.478575435	0.88659441	-14.29862	-0.01526	2.4263399999999997	400899.0	1775936923.767587	0.0	1.0	0.0	-1.0	-1.0	-1.0	1775936923.767587	peace	Peace	1	20260411_124810	Trigger
25079.399999999998	35060.94	1828.62	-8856.135	0.0	0.0	0.0	0.0	0.0	0.0	0.0	0.0	0.0	0.0	0.0	0.0	0.0	0.0	144.34482758620692	0.0	0.0068359200000000005	0.478575435	0.88659441	-14.29862	-0.01526	2.4263399999999997	400900.0	1775936923.767606	0.0	1.0	0.0	-1.0	-1.0	-1.0	1775936923.767606	peace	Peace	1	20260411_124810	Trigger
26265.645	32187.329999999998	3219.5699999999997	-7557.03	0.0	0.0	0.0	0.0	0.0	0.0	0.0	0.0	0.0	0.0	0.0	0.0	0.0	0.0	144.34482758620692	0.0	0.0068359200000000005	0.478575435	0.88659441	-14.29862	-0.01526	2.4263399999999997	400901.0	1775936923.771513	0.0	1.0	0.0	-1.0	-1.0	-1.0	1775936923.771513	peace	Peace	1	20260411_124810	Trigger
25601.579999999998	32299.695	2493.27	-8197.965	0.0	0.0	0.0	0.0	0.0	0.0	0.0	0.0	0.0	0.0	0.0	0.0	0.0	0.0	144.34482758620692	0.0	0.0068359200000000005	0.478575435	0.88659441	-14.29862	-0.01526	2.4263399999999997	400902.0	1775936923.771532	0.0	1.0	0.0	-1.0	-1.0	-1.0	1775936923.771532	peace	Peace	1	20260411_124810	Trigger
23319.405	35526.735	-69.975	-10534.32	0.0	0.0	0.0	0.0	0.0	0.0	0.0	0.0	0.0	0.0	0.0	0.0	0.0	0.0	144.34482758620692	0.0	0.0068359200000000005	0.478575435	0.88659441	-14.29862	-0.01526	2.4263399999999997	400903.0	1775936923.775573	0.0	1.0	0.0	-1.0	-1.0	-1.0	1775936923.775573	peace	Peace	1	20260411_124810	Trigger
20653.695	40079.655	-3050.0099999999998	-13282.38	0.0	0.0	0.0	0.0	0.0	0.0	0.0	0.0	0.0	0.0	0.0	0.0	0.0	0.0	144.34482758620692	0.0	0.0068359200000000005	0.478575435	0.88659441	-14.29862	-0.01526	2.4263399999999997	400904.0	1775936923.775592	0.0	1.0	0.0	-1.0	-1.0	-1.0	1775936923.775592	peace	Peace	1	20260411_124810	Trigger
19146.6	43290.18	-4768.514999999999	-14888.25	0.0	0.0	0.0	0.0	0.0	0.0	0.0	0.0	0.0	0.0	0.0	0.0	0.0	0.0	144.34482758620692	0.0	0.0068359200000000005	0.478575435	0.88659441	-14.29862	-0.01526	2.4263399999999997	400905.0	1775936923.779545	0.0	1.0	0.0	-1.0	-1.0	-1.0	1775936923.779545	peace	Peace	1	20260411_124810	Trigger
19423.079999999998	43818.57	-4436.82	-14607.675	0.0	0.0	0.0	0.0	0.0	0.0	0.0	0.0	0.0	0.0	0.0	0.0	0.0	0.0	144.34482758620692	0.0	0.0068359200000000005	0.478575435	0.88659441	-14.29862	-0.01526	2.4263399999999997	400906.0	1775936923.779564	0.0	1.0	0.0	-1.0	-1.0	-1.0	1775936923.779564	peace	Peace	1	20260411_124810	Trigger
21659.67	40983.435	-1978.5149999999999	-12359.789999999999	0.0	0.0	0.0	0.0	0.0	0.0	0.0	0.0	0.0	0.0	0.0	0.0	0.0	0.0	144.34482758620692	0.0	0.0068359200000000005	0.478575435	0.88659441	-14.29862	-0.01526	2.4263399999999997	400907.0	1775936923.783602	0.0	1.0	0.0	-1.0	-1.0	-1.0	1775936923.783602	peace	Peace	1	20260411_124810	Trigger
24367.454999999998	36544.365	991.035	-9624.555	0.0	0.0	0.0	0.0	0.0	0.0	0.0	0.0	0.0	0.0	0.0	0.0	0.0	0.0	144.34482758620692	0.0	0.0068359200000000005	0.478575435	0.88659441	-14.29862	-0.01526	2.4263399999999997	400908.0	1775936923.78362	0.0	1.0	0.0	-1.0	-1.0	-1.0	1775936923.78362	peace	Peace	1	20260411_124810	Trigger
26114.76	32909.13	2986.1549999999997	-7769.88	0.0	0.0	0.0	0.0	0.0	0.0	0.0	0.0	0.0	0.0	0.0	0.0	0.0	0.0	144.34482758620692	0.0	0.00329589	0.465880155	0.892392735	-11.41448	-1.89224	1.78542	400909.0	1775936923.787576	0.0	1.0	0.0	-1.0	-1.0	-1.0	1775936923.787576	peace	Peace	1	20260411_124810	Trigger
25993.98	32131.079999999998	2877.075	-7846.065	0.0	0.0	0.0	0.0	0.0	0.0	0.0	0.0	0.0	0.0	0.0	0.0	0.0	0.0	144.34482758620692	0.0	0.00329589	0.465880155	0.892392735	-11.41448	-1.89224	1.78542	400910.0	1775936923.787594	0.0	1.0	0.0	-1.0	-1.0	-1.0	1775936923.787594	peace	Peace	1	20260411_124810	Trigger
24189.12	34438.229999999996	816.93	-9719.324999999999	0.0	0.0	0.0	0.0	0.0	0.0	0.0	0.0	0.0	0.0	0.0	0.0	0.0	0.0	144.34482758620692	0.0	0.00329589	0.465880155	0.892392735	-11.41448	-1.89224	1.78542	400911.0	1775936923.792766	0.0	1.0	0.0	-1.0	-1.0	-1.0	1775936923.792766	peace	Peace	1	20260411_124810	Trigger
21470.895	38866.86	-2199.96	-12497.445	0.0	0.0	0.0	0.0	0.0	0.0	0.0	0.0	0.0	0.0	0.0	0.0	0.0	0.0	144.34482758620692	0.0	0.00329589	0.465880155	0.892392735	-11.41448	-1.89224	1.78542	400912.0	1775936923.792785	0.0	1.0	0.0	-1.0	-1.0	-1.0	1775936923.792785	peace	Peace	1	20260411_124810	Trigger
19509.12	42656.22	-4427.28	-14561.865	0.0	0.0	0.0	0.0	0.0	0.0	0.0	0.0	0.0	0.0	0.0	0.0	0.0	0.0	144.34482758620692	0.0	0.00329589	0.465880155	0.892392735	-11.41448	-1.89224	1.78542	400913.0	1775936923.795628	0.0	1.0	0.0	-1.0	-1.0	-1.0	1775936923.795628	peace	Peace	1	20260411_124810	Trigger
19154.61	44093.07	-4772.88	-14902.244999999999	0.0	0.0	0.0	0.0	0.0	0.0	0.0	0.0	0.0	0.0	0.0	0.0	0.0	0.0	144.34482758620692	0.0	0.00329589	0.465880155	0.892392735	-11.41448	-1.89224	1.78542	400914.0	1775936923.795665	0.0	1.0	0.0	-1.0	-1.0	-1.0	1775936923.795665	peace	Peace	1	20260411_124810	Trigger
20925.27	42210.765	-2856.4649999999997	-13158.18	0.0	0.0	0.0	0.0	0.0	0.0	0.0	0.0	0.0	0.0	0.0	0.0	0.0	0.0	144.34482758620692	0.0	0.00329589	0.465880155	0.892392735	-11.41448	-1.89224	1.78542	400915.0	1775936923.799583	0.0	1.0	0.0	-1.0	-1.0	-1.0	1775936923.799583	peace	Peace	1	20260411_124810	Trigger
23617.17	38033.46	132.795	-10405.215	0.0	0.0	0.0	0.0	0.0	0.0	0.0	0.0	0.0	0.0	0.0	0.0	0.0	0.0	144.34482758620692	0.0	0.00329589	0.465880155	0.892392735	-11.41448	-1.89224	1.78542	400916.0	1775936923.799613	0.0	1.0	0.0	-1.0	-1.0	-1.0	1775936923.799613	peace	Peace	1	20260411_124810	Trigger
25848.405	33827.174999999996	2648.115	-8075.745	0.0	0.0	0.0	0.0	0.0	0.0	0.0	0.0	0.0	0.0	0.0	0.0	0.0	0.0	144.34482758620692	0.0	0.00329589	0.465880155	0.892392735	-11.41448	-1.89224	1.78542	400917.0	1775936923.803588	0.0	1.0	0.0	-1.0	-1.0	-1.0	1775936923.803588	peace	Peace	1	20260411_124810	Trigger
26244.809999999998	32158.485	3148.38	-7591.995	0.0	0.0	0.0	0.0	0.0	0.0	0.0	0.0	0.0	0.0	0.0	0.0	0.0	0.0	144.34482758620692	0.0	0.00329589	0.465880155	0.892392735	-11.41448	-1.89224	1.78542	400918.0	1775936923.803615	0.0	1.0	0.0	-1.0	-1.0	-1.0	1775936923.803615	peace	Peace	1	20260411_124810	Trigger
24945.344999999998	33457.365	1668.2849999999999	-8925.39	0.0	0.0	0.0	0.0	0.0	0.0	0.0	0.0	0.0	0.0	0.0	0.0	0.0	0.0	144.34482758620692	0.0	0.005676255	0.457579395	0.893735505	-7.858899999999999	-1.57178	1.57178	400919.0	1775936923.807582	0.0	1.0	0.0	-1.0	-1.0	-1.0	1775936923.807582	peace	Peace	1	20260411_124810	Trigger
22332.42	37502.729999999996	-1262.97	-11618.055	0.0	0.0	0.0	0.0	0.0	0.0	0.0	0.0	0.0	0.0	0.0	0.0	0.0	0.0	144.34482758620692	0.0	0.005676255	0.457579395	0.893735505	-7.858899999999999	-1.57178	1.57178	400920.0	1775936923.807606	0.0	1.0	0.0	-1.0	-1.0	-1.0	1775936923.807606	peace	Peace	1	20260411_124810	Trigger
19979.37	41767.784999999996	-3919.23	-14066.144999999999	0.0	0.0	0.0	0.0	0.0	0.0	0.0	0.0	0.0	0.0	0.0	0.0	0.0	0.0	144.34482758620692	0.0	0.005676255	0.457579395	0.893735505	-7.858899999999999	-1.57178	1.57178	400921.0	1775936923.812942	0.0	1.0	0.0	-1.0	-1.0	-1.0	1775936923.812942	peace	Peace	1	20260411_124810	Trigger
19124.864999999998	44022.195	-4872.285	-14969.609999999999	0.0	0.0	0.0	0.0	0.0	0.0	0.0	0.0	0.0	0.0	0.0	0.0	0.0	0.0	144.34482758620692	0.0	0.005676255	0.457579395	0.893735505	-7.858899999999999	-1.57178	1.57178	400922.0	1775936923.812966	0.0	1.0	0.0	-1.0	-1.0	-1.0	1775936923.812966	peace	Peace	1	20260411_124810	Trigger
20278.079999999998	43159.545	-3603.96	-13829.265	0.0	0.0	0.0	0.0	0.0	0.0	0.0	0.0	0.0	0.0	0.0	0.0	0.0	0.0	144.34482758620692	0.0	0.005676255	0.457579395	0.893735505	-7.858899999999999	-1.57178	1.57178	400923.0	1775936923.818538	0.0	1.0	0.0	-1.0	-1.0	-1.0	1775936923.818538	peace	Peace	1	20260411_124810	Trigger
22858.155	39439.71	-758.3399999999999	-11215.529999999999	0.0	0.0	0.0	0.0	0.0	0.0	0.0	0.0	0.0	0.0	0.0	0.0	0.0	0.0	144.34482758620692	0.0	0.005676255	0.457579395	0.893735505	-7.858899999999999	-1.57178	1.57178	400924.0	1775936923.818561	0.0	1.0	0.0	-1.0	-1.0	-1.0	1775936923.818561	peace	Peace	1	20260411_124810	Trigger
25424.864999999998	34938.045	2091.105	-8580.735	0.0	0.0	0.0	0.0	0.0	0.0	0.0	0.0	0.0	0.0	0.0	0.0	0.0	0.0	144.34482758620692	0.0	0.005676255	0.457579395	0.893735505	-7.858899999999999	-1.57178	1.57178	400925.0	1775936923.825772	0.0	1.0	0.0	-1.0	-1.0	-1.0	1775936923.825772	peace	Peace	1	20260411_124810	Trigger
26394.48	32378.039999999997	3254.895	-7486.92	0.0	0.0	0.0	0.0	0.0	0.0	0.0	0.0	0.0	0.0	0.0	0.0	0.0	0.0	144.34482758620692	0.0	0.005676255	0.457579395	0.893735505	-7.858899999999999	-1.57178	1.57178	400926.0	1775936923.825791	0.0	1.0	0.0	-1.0	-1.0	-1.0	1775936923.825791	peace	Peace	1	20260411_124810	Trigger
25621.02	32721.344999999998	2390.13	-8254.26	0.0	0.0	0.0	0.0	0.0	0.0	0.0	0.0	0.0	0.0	0.0	0.0	0.0	0.0	144.34482758620692	0.0	0.005676255	0.457579395	0.893735505	-7.858899999999999	-1.57178	1.57178	400927.0	1775936923.825828	0.0	1.0	0.0	-1.0	-1.0	-1.0	1775936923.825828	peace	Peace	1	20260411_124810	Trigger
23245.11	36128.655	-258.65999999999997	-10674.99	0.0	0.0	0.0	0.0	0.0	0.0	0.0	0.0	0.0	0.0	0.0	0.0	0.0	0.0	144.34482758620692	0.0	0.005676255	0.457579395	0.893735505	-7.858899999999999	-1.57178	1.57178	400928.0	1775936923.825843	0.0	1.0	0.0	-1.0	-1.0	-1.0	1775936923.825843	peace	Peace	1	20260411_124810	Trigger
20635.065	40643.82	-3197.7	-13391.55	0.0	0.0	0.0	0.0	0.0	0.0	0.0	0.0	0.0	0.0	0.0	0.0	0.0	0.0	144.34482758620692	0.0	0.00891111	0.455015925	0.895932765	-6.5618	-1.69386	1.0682	400929.0	1775936923.830195	0.0	1.0	0.0	-1.0	-1.0	-1.0	1775936923.830195	peace	Peace	1	20260411_124810	Trigger
19270.62	43644.869999999995	-4769.1449999999995	-14859.945	0.0	0.0	0.0	0.0	0.0	0.0	0.0	0.0	0.0	0.0	0.0	0.0	0.0	0.0	144.34482758620692	0.0	0.00891111	0.455015925	0.895932765	-6.5618	-1.69386	1.0682	400930.0	1775936923.830222	0.0	1.0	0.0	-1.0	-1.0	-1.0	1775936923.830222	peace	Peace	1	20260411_124810	Trigger
19785.195	43830.045	-4180.635	-14345.01	0.0	0.0	0.0	0.0	0.0	0.0	0.0	0.0	0.0	0.0	0.0	0.0	0.0	0.0	144.34482758620692	0.0	0.00891111	0.455015925	0.895932765	-6.5618	-1.69386	1.0682	400931.0	1775936923.831744	0.0	1.0	0.0	-1.0	-1.0	-1.0	1775936923.831744	peace	Peace	1	20260411_124810	Trigger
22098.96	40774.409999999996	-1622.07	-11998.98	0.0	0.0	0.0	0.0	0.0	0.0	0.0	0.0	0.0	0.0	0.0	0.0	0.0	0.0	144.34482758620692	0.0	0.00891111	0.455015925	0.895932765	-6.5618	-1.69386	1.0682	400932.0	1775936923.831769	0.0	1.0	0.0	-1.0	-1.0	-1.0	1775936923.831769	peace	Peace	1	20260411_124810	Trigger
24787.485	36295.244999999995	1355.94	-9253.08	0.0	0.0	0.0	0.0	0.0	0.0	0.0	0.0	0.0	0.0	0.0	0.0	0.0	0.0	144.34482758620692	0.0	0.00891111	0.455015925	0.895932765	-6.5618	-1.69386	1.0682	400933.0	1775936923.835661	0.0	1.0	0.0	-1.0	-1.0	-1.0	1775936923.835661	peace	Peace	1	20260411_124810	Trigger
26374.545	32871.645	3166.1099999999997	-7571.295	0.0	0.0	0.0	0.0	0.0	0.0	0.0	0.0	0.0	0.0	0.0	0.0	0.0	0.0	144.34482758620692	0.0	0.00891111	0.455015925	0.895932765	-6.5618	-1.69386	1.0682	400934.0	1775936923.835695	0.0	1.0	0.0	-1.0	-1.0	-1.0	1775936923.835695	peace	Peace	1	20260411_124810	Trigger
26111.879999999997	32296.77	2880.0	-7808.219999999999	0.0	0.0	0.0	0.0	0.0	0.0	0.0	0.0	0.0	0.0	0.0	0.0	0.0	0.0	144.34482758620692	0.0	0.00891111	0.455015925	0.895932765	-6.5618	-1.69386	1.0682	400935.0	1775936923.844216	0.0	1.0	0.0	-1.0	-1.0	-1.0	1775936923.844216	peace	Peace	1	20260411_124810	Trigger
24142.815	34867.034999999996	661.635	-9823.365	0.0	0.0	0.0	0.0	0.0	0.0	0.0	0.0	0.0	0.0	0.0	0.0	0.0	0.0	144.34482758620692	0.0	0.00891111	0.455015925	0.895932765	-6.5618	-1.69386	1.0682	400936.0	1775936923.84424	0.0	1.0	0.0	-1.0	-1.0	-1.0	1775936923.84424	peace	Peace	1	20260411_124810	Trigger
21427.739999999998	39353.13	-2358.765	-12600.855	0.0	0.0	0.0	0.0	0.0	0.0	0.0	0.0	0.0	0.0	0.0	0.0	0.0	0.0	144.34482758620692	0.0	0.00891111	0.455015925	0.895932765	-6.5618	-1.69386	1.0682	400937.0	1775936923.844496	0.0	1.0	0.0	-1.0	-1.0	-1.0	1775936923.844496	peace	Peace	1	20260411_124810	Trigger
19581.344999999998	43003.08	-4459.724999999999	-14551.515	0.0	0.0	0.0	0.0	0.0	0.0	0.0	0.0	0.0	0.0	0.0	0.0	0.0	0.0	144.34482758620692	0.0	0.00891111	0.455015925	0.895932765	-6.5618	-1.69386	1.0682	400938.0	1775936923.844519	0.0	1.0	0.0	-1.0	-1.0	-1.0	1775936923.844519	peace	Peace	1	20260411_124810	Trigger
19476.585	44132.085	-4571.775	-14683.275	0.0	0.0	0.0	0.0	0.0	0.0	0.0	0.0	0.0	0.0	0.0	0.0	0.0	0.0	144.34482758620692	0.0	0.010070775	0.448668285	0.90258558	-1.43444	-1.77016	-0.27468	400939.0	1775936923.847675	0.0	1.0	0.0	-1.0	-1.0	-1.0	1775936923.847675	peace	Peace	1	20260411_124810	Trigger
21366.0	41961.96	-2499.39	-12792.42	0.0	0.0	0.0	0.0	0.0	0.0	0.0	0.0	0.0	0.0	0.0	0.0	0.0	0.0	144.34482758620692	0.0	0.010070775	0.448668285	0.90258558	-1.43444	-1.77016	-0.27468	400940.0	1775936923.847698	0.0	1.0	0.0	-1.0	-1.0	-1.0	1775936923.847698	peace	Peace	1	20260411_124810	Trigger
24088.32	37676.07	508.77	-10025.01	0.0	0.0	0.0	0.0	0.0	0.0	0.0	0.0	0.0	0.0	0.0	0.0	0.0	0.0	144.34482758620692	0.0	0.010070775	0.448668285	0.90258558	-1.43444	-1.77016	-0.27468	400941.0	1775936923.85192	0.0	1.0	0.0	-1.0	-1.0	-1.0	1775936923.85192	peace	Peace	1	20260411_124810	Trigger
26194.184999999998	33613.92	2889.225	-7819.0199999999995	0.0	0.0	0.0	0.0	0.0	0.0	0.0	0.0	0.0	0.0	0.0	0.0	0.0	0.0	144.34482758620692	0.0	0.010070775	0.448668285	0.90258558	-1.43444	-1.77016	-0.27468	400942.0	1775936923.851944	0.0	1.0	0.0	-1.0	-1.0	-1.0	1775936923.851944	peace	Peace	1	20260411_124810	Trigger
26440.245	32180.985	3228.8849999999998	-7485.255	0.0	0.0	0.0	0.0	0.0	0.0	0.0	0.0	0.0	0.0	0.0	0.0	0.0	0.0	144.34482758620692	0.0	0.010070775	0.448668285	0.90258558	-1.43444	-1.77016	-0.27468	400943.0	1775936923.858002	0.0	1.0	0.0	-1.0	-1.0	-1.0	1775936923.858002	peace	Peace	1	20260411_124810	Trigger
24974.594999999998	33778.305	1567.08	-8989.425	0.0	0.0	0.0	0.0	0.0	0.0	0.0	0.0	0.0	0.0	0.0	0.0	0.0	0.0	144.34482758620692	0.0	0.010070775	0.448668285	0.90258558	-1.43444	-1.77016	-0.27468	400944.0	1775936923.858026	0.0	1.0	0.0	-1.0	-1.0	-1.0	1775936923.858026	peace	Peace	1	20260411_124810	Trigger
22308.03	37959.21	-1406.8799999999999	-11717.685	0.0	0.0	0.0	0.0	0.0	0.0	0.0	0.0	0.0	0.0	0.0	0.0	0.0	0.0	144.34482758620692	0.0	0.010070775	0.448668285	0.90258558	-1.43444	-1.77016	-0.27468	400945.0	1775936923.859765	0.0	1.0	0.0	-1.0	-1.0	-1.0	1775936923.859765	peace	Peace	1	20260411_124810	Trigger
20041.559999999998	42122.88	-3971.52	-14088.285	0.0	0.0	0.0	0.0	0.0	0.0	0.0	0.0	0.0	0.0	0.0	0.0	0.0	0.0	144.34482758620692	0.0	0.010070775	0.448668285	0.90258558	-1.43444	-1.77016	-0.27468	400946.0	1775936923.859788	0.0	1.0	0.0	-1.0	-1.0	-1.0	1775936923.859788	peace	Peace	1	20260411_124810	Trigger
19366.29	44110.215	-4728.69	-14814.314999999999	0.0	0.0	0.0	0.0	0.0	0.0	0.0	0.0	0.0	0.0	0.0	0.0	0.0	0.0	144.34482758620692	0.0	0.010070775	0.448668285	0.90258558	-1.43444	-1.77016	-0.27468	400947.0	1775936923.863828	0.0	1.0	0.0	-1.0	-1.0	-1.0	1775936923.863828	peace	Peace	1	20260411_124810	Trigger
20680.785	42961.86	-3285.0899999999997	-13509.765	0.0	0.0	0.0	0.0	0.0	0.0	0.0	0.0	0.0	0.0	0.0	0.0	0.0	0.0	144.34482758620692	0.0	0.010070775	0.448668285	0.90258558	-1.43444	-1.77016	-0.27468	400948.0	1775936923.863852	0.0	1.0	0.0	-1.0	-1.0	-1.0	1775936923.863852	peace	Peace	1	20260411_124810	Trigger
23317.11	39083.625	-380.205	-10844.369999999999	0.0	0.0	0.0	0.0	0.0	0.0	0.0	0.0	0.0	0.0	0.0	0.0	0.0	0.0	144.34482758620692	0.0	0.008728005	0.44171029500000003	0.90051039	5.0358	-1.2207999999999999	-1.0682	400949.0	1775936923.867843	0.0	1.0	0.0	-1.0	-1.0	-1.0	1775936923.867843	peace	Peace	1	20260411_124810	Trigger
25807.364999999998	34643.835	2396.295	-8278.65	0.0	0.0	0.0	0.0	0.0	0.0	0.0	0.0	0.0	0.0	0.0	0.0	0.0	0.0	144.34482758620692	0.0	0.008728005	0.44171029500000003	0.90051039	5.0358	-1.2207999999999999	-1.0682	400950.0	1775936923.867866	0.0	1.0	0.0	-1.0	-1.0	-1.0	1775936923.867866	peace	Peace	1	20260411_124810	Trigger
26625.059999999998	32306.625	3389.085	-7342.0199999999995	0.0	0.0	0.0	0.0	0.0	0.0	0.0	0.0	0.0	0.0	0.0	0.0	0.0	0.0	144.34482758620692	0.0	0.008728005	0.44171029500000003	0.90051039	5.0358	-1.2207999999999999	-1.0682	400951.0	1775936923.871839	0.0	1.0	0.0	-1.0	-1.0	-1.0	1775936923.871839	peace	Peace	1	20260411_124810	Trigger
25703.055	32918.76	2331.585	-8292.869999999999	0.0	0.0	0.0	0.0	0.0	0.0	0.0	0.0	0.0	0.0	0.0	0.0	0.0	0.0	144.34482758620692	0.0	0.008728005	0.44171029500000003	0.90051039	5.0358	-1.2207999999999999	-1.0682	400952.0	1775936923.871862	0.0	1.0	0.0	-1.0	-1.0	-1.0	1775936923.871862	peace	Peace	1	20260411_124810	Trigger
23219.145	36562.275	-430.28999999999996	-10815.029999999999	0.0	0.0	0.0	0.0	0.0	0.0	0.0	0.0	0.0	0.0	0.0	0.0	0.0	0.0	144.34482758620692	0.0	0.008728005	0.44171029500000003	0.90051039	5.0358	-1.2207999999999999	-1.0682	400953.0	1775936923.875873	0.0	1.0	0.0	-1.0	-1.0	-1.0	1775936923.875873	peace	Peace	1	20260411_124810	Trigger
20642.309999999998	41070.195	-3305.43	-13463.775	0.0	0.0	0.0	0.0	0.0	0.0	0.0	0.0	0.0	0.0	0.0	0.0	0.0	0.0	144.34482758620692	0.0	0.008728005	0.44171029500000003	0.90051039	5.0358	-1.2207999999999999	-1.0682	400954.0	1775936923.875896	0.0	1.0	0.0	-1.0	-1.0	-1.0	1775936923.875896	peace	Peace	1	20260411_124810	Trigger
19433.655	43859.924999999996	-4692.69	-14768.01	0.0	0.0	0.0	0.0	0.0	0.0	0.0	0.0	0.0	0.0	0.0	0.0	0.0	0.0	144.34482758620692	0.0	0.008728005	0.44171029500000003	0.90051039	5.0358	-1.2207999999999999	-1.0682	400955.0	1775936923.879748	0.0	1.0	0.0	-1.0	-1.0	-1.0	1775936923.879748	peace	Peace	1	20260411_124810	Trigger
20107.305	43780.77	-3942.225	-14100.345	0.0	0.0	0.0	0.0	0.0	0.0	0.0	0.0	0.0	0.0	0.0	0.0	0.0	0.0	144.34482758620692	0.0	0.008728005	0.44171029500000003	0.90051039	5.0358	-1.2207999999999999	-1.0682	400956.0	1775936923.879771	0.0	1.0	0.0	-1.0	-1.0	-1.0	1775936923.879771	peace	Peace	1	20260411_124810	Trigger
22527.495	40519.71	-1287.0	-11671.965	0.0	0.0	0.0	0.0	0.0	0.0	0.0	0.0	0.0	0.0	0.0	0.0	0.0	0.0	144.34482758620692	0.0	0.008728005	0.44171029500000003	0.90051039	5.0358	-1.2207999999999999	-1.0682	400957.0	1775936923.88525	0.0	1.0	0.0	-1.0	-1.0	-1.0	1775936923.88525	peace	Peace	1	20260411_124810	Trigger
25197.66	35994.51	1673.46	-8944.83	0.0	0.0	0.0	0.0	0.0	0.0	0.0	0.0	0.0	0.0	0.0	0.0	0.0	0.0	144.34482758620692	0.0	0.008728005	0.44171029500000003	0.90051039	5.0358	-1.2207999999999999	-1.0682	400958.0	1775936923.885284	0.0	1.0	0.0	-1.0	-1.0	-1.0	1775936923.885284	peace	Peace	1	20260411_124810	Trigger
26632.125	32763.645	3350.205	-7384.23	0.0	0.0	0.0	0.0	0.0	0.0	0.0	0.0	0.0	0.0	0.0	0.0	0.0	0.0	144.34482758620692	0.0	0.008850075	0.44665413	0.898374165	5.08158	-0.5341	-0.62566	400959.0	1775936923.887878	0.0	1.0	0.0	-1.0	-1.0	-1.0	1775936923.887878	peace	Peace	1	20260411_124810	Trigger
26204.985	32461.289999999997	2887.92	-7786.3949999999995	0.0	0.0	0.0	0.0	0.0	0.0	0.0	0.0	0.0	0.0	0.0	0.0	0.0	0.0	144.34482758620692	0.0	0.008850075	0.44665413	0.898374165	5.08158	-0.5341	-0.62566	400960.0	1775936923.887904	0.0	1.0	0.0	-1.0	-1.0	-1.0	1775936923.887904	peace	Peace	1	20260411_124810	Trigger
24084.629999999997	35304.435	515.295	-9944.414999999999	0.0	0.0	0.0	0.0	0.0	0.0	0.0	0.0	0.0	0.0	0.0	0.0	0.0	0.0	144.34482758620692	0.0	0.008850075	0.44665413	0.898374165	5.08158	-0.5341	-0.62566	400961.0	1775936923.891795	0.0	1.0	0.0	-1.0	-1.0	-1.0	1775936923.891795	peace	Peace	1	20260411_124810	Trigger
21369.51	39873.51	-2524.68	-12742.289999999999	0.0	0.0	0.0	0.0	0.0	0.0	0.0	0.0	0.0	0.0	0.0	0.0	0.0	0.0	144.34482758620692	0.0	0.008850075	0.44665413	0.898374165	5.08158	-0.5341	-0.62566	400962.0	1775936923.891819	0.0	1.0	0.0	-1.0	-1.0	-1.0	1775936923.891819	peace	Peace	1	20260411_124810	Trigger
19673.64	43370.82	-4473.045	-14557.23	0.0	0.0	0.0	0.0	0.0	0.0	0.0	0.0	0.0	0.0	0.0	0.0	0.0	0.0	144.34482758620692	0.0	0.008850075	0.44665413	0.898374165	5.08158	-0.5341	-0.62566	400963.0	1775936923.895862	0.0	1.0	0.0	-1.0	-1.0	-1.0	1775936923.895862	peace	Peace	1	20260411_124810	Trigger
19697.985	44278.83	-4421.43	-14538.779999999999	0.0	0.0	0.0	0.0	0.0	0.0	0.0	0.0	0.0	0.0	0.0	0.0	0.0	0.0	144.34482758620692	0.0	0.008850075	0.44665413	0.898374165	5.08158	-0.5341	-0.62566	400964.0	1775936923.895886	0.0	1.0	0.0	-1.0	-1.0	-1.0	1775936923.895886	peace	Peace	1	20260411_124810	Trigger
21724.785	41850.9	-2198.97	-12507.975	0.0	0.0	0.0	0.0	0.0	0.0	0.0	0.0	0.0	0.0	0.0	0.0	0.0	0.0	144.34482758620692	0.0	0.008850075	0.44665413	0.898374165	5.08158	-0.5341	-0.62566	400965.0	1775936923.899949	0.0	1.0	0.0	-1.0	-1.0	-1.0	1775936923.899949	peace	Peace	1	20260411_124810	Trigger
24456.015	37490.76	826.3349999999999	-9724.545	0.0	0.0	0.0	0.0	0.0	0.0	0.0	0.0	0.0	0.0	0.0	0.0	0.0	0.0	144.34482758620692	0.0	0.008850075	0.44665413	0.898374165	5.08158	-0.5341	-0.62566	400966.0	1775936923.899973	0.0	1.0	0.0	-1.0	-1.0	-1.0	1775936923.899973	peace	Peace	1	20260411_124810	Trigger
26473.68	33525.405	3104.865	-7612.695	0.0	0.0	0.0	0.0	0.0	0.0	0.0	0.0	0.0	0.0	0.0	0.0	0.0	0.0	144.34482758620692	0.0	0.008850075	0.44665413	0.898374165	5.08158	-0.5341	-0.62566	400967.0	1775936923.903883	0.0	1.0	0.0	-1.0	-1.0	-1.0	1775936923.903883	peace	Peace	1	20260411_124810	Trigger
26545.41	32327.414999999997	3247.6949999999997	-7457.355	0.0	0.0	0.0	0.0	0.0	0.0	0.0	0.0	0.0	0.0	0.0	0.0	0.0	0.0	144.34482758620692	0.0	0.008850075	0.44665413	0.898374165	5.08158	-0.5341	-0.62566	400968.0	1775936923.903923	0.0	1.0	0.0	-1.0	-1.0	-1.0	1775936923.903923	peace	Peace	1	20260411_124810	Trigger
24940.079999999998	34232.58	1404.0449999999998	-9135.99	0.0	0.0	0.0	0.0	0.0	0.0	0.0	0.0	0.0	0.0	0.0	0.0	0.0	0.0	144.34482758620692	0.0	0.010436985	0.45934941	0.895200345	0.8087799999999999	-0.12208	1.03768	400969.0	1775936923.90813	0.0	1.0	0.0	-1.0	-1.0	-1.0	1775936923.90813	peace	Peace	1	20260411_124810	Trigger
22190.579999999998	38601.045	-1634.355	-11922.119999999999	0.0	0.0	0.0	0.0	0.0	0.0	0.0	0.0	0.0	0.0	0.0	0.0	0.0	0.0	144.34482758620692	0.0	0.010436985	0.45934941	0.895200345	0.8087799999999999	-0.12208	1.03768	400970.0	1775936923.908156	0.0	1.0	0.0	-1.0	-1.0	-1.0	1775936923.908156	peace	Peace	1	20260411_124810	Trigger
20034.719999999998	42668.235	-4073.85	-14175.9	0.0	0.0	0.0	0.0	0.0	0.0	0.0	0.0	0.0	0.0	0.0	0.0	0.0	0.0	144.34482758620692	0.0	0.010436985	0.45934941	0.895200345	0.8087799999999999	-0.12208	1.03768	400971.0	1775936923.911949	0.0	1.0	0.0	-1.0	-1.0	-1.0	1775936923.911949	peace	Peace	1	20260411_124810	Trigger
19479.645	44468.415	-4684.7699999999995	-14765.49	0.0	0.0	0.0	0.0	0.0	0.0	0.0	0.0	0.0	0.0	0.0	0.0	0.0	0.0	144.34482758620692	0.0	0.010436985	0.45934941	0.895200345	0.8087799999999999	-0.12208	1.03768	400972.0	1775936923.911972	0.0	1.0	0.0	-1.0	-1.0	-1.0	1775936923.911972	peace	Peace	1	20260411_124810	Trigger
20957.985	43039.935	-3055.6349999999998	-13288.32	0.0	0.0	0.0	0.0	0.0	0.0	0.0	0.0	0.0	0.0	0.0	0.0	0.0	0.0	144.34482758620692	0.0	0.010436985	0.45934941	0.895200345	0.8087799999999999	-0.12208	1.03768	400973.0	1775936923.921325	0.0	1.0	0.0	-1.0	-1.0	-1.0	1775936923.921325	peace	Peace	1	20260411_124810	Trigger
23648.309999999998	39015.18	-102.14999999999999	-10578.24	0.0	0.0	0.0	0.0	0.0	0.0	0.0	0.0	0.0	0.0	0.0	0.0	0.0	0.0	144.34482758620692	0.0	0.010436985	0.45934941	0.895200345	0.8087799999999999	-0.12208	1.03768	400974.0	1775936923.921349	0.0	1.0	0.0	-1.0	-1.0	-1.0	1775936923.921349	peace	Peace	1	20260411_124810	Trigger
26077.454999999998	34601.58	2611.17	-8065.08	0.0	0.0	0.0	0.0	0.0	0.0	0.0	0.0	0.0	0.0	0.0	0.0	0.0	0.0	144.34482758620692	0.0	0.010436985	0.45934941	0.895200345	0.8087799999999999	-0.12208	1.03768	400975.0	1775936923.921377	0.0	1.0	0.0	-1.0	-1.0	-1.0	1775936923.921377	peace	Peace	1	20260411_124810	Trigger
26691.434999999998	32548.905	3382.92	-7334.054999999999	0.0	0.0	0.0	0.0	0.0	0.0	0.0	0.0	0.0	0.0	0.0	0.0	0.0	0.0	144.34482758620692	0.0	0.010436985	0.45934941	0.895200345	0.8087799999999999	-0.12208	1.03768	400976.0	1775936923.921399	0.0	1.0	0.0	-1.0	-1.0	-1.0	1775936923.921399	peace	Peace	1	20260411_124810	Trigger
25582.815	33469.02	2134.125	-8457.705	0.0	0.0	0.0	0.0	0.0	0.0	0.0	0.0	0.0	0.0	0.0	0.0	0.0	0.0	144.34482758620692	0.0	0.010436985	0.45934941	0.895200345	0.8087799999999999	-0.12208	1.03768	400977.0	1775936923.925358	0.0	1.0	0.0	-1.0	-1.0	-1.0	1775936923.925358	peace	Peace	1	20260411_124810	Trigger
23019.75	37291.095	-719.775	-11070.855	0.0	0.0	0.0	0.0	0.0	0.0	0.0	0.0	0.0	0.0	0.0	0.0	0.0	0.0	144.34482758620692	0.0	0.010436985	0.45934941	0.895200345	0.8087799999999999	-0.12208	1.03768	400978.0	1775936923.925381	0.0	1.0	0.0	-1.0	-1.0	-1.0	1775936923.925381	peace	Peace	1	20260411_124810	Trigger
20551.41	41700.51	-3503.25	-13641.074999999999	0.0	0.0	0.0	0.0	0.0	0.0	0.0	0.0	0.0	0.0	0.0	0.0	0.0	0.0	144.34482758620692	0.0	0.00964353	0.46826052	0.89526138	-4.63904	-0.50358	2.73154	400979.0	1775936923.931107	0.0	1.0	0.0	-1.0	-1.0	-1.0	1775936923.931107	peace	Peace	1	20260411_124810	Trigger
19471.41	44305.92	-4726.8	-14791.455	0.0	0.0	0.0	0.0	0.0	0.0	0.0	0.0	0.0	0.0	0.0	0.0	0.0	0.0	144.34482758620692	0.0	0.00964353	0.46826052	0.89526138	-4.63904	-0.50358	2.73154	400980.0	1775936923.931129	0.0	1.0	0.0	-1.0	-1.0	-1.0	1775936923.931129	peace	Peace	1	20260411_124810	Trigger
20320.38	43948.53	-3788.8199999999997	-13953.285	0.0	0.0	0.0	0.0	0.0	0.0	0.0	0.0	0.0	0.0	0.0	0.0	0.0	0.0	144.34482758620692	0.0	0.00964353	0.46826052	0.89526138	-4.63904	-0.50358	2.73154	400981.0	1775936923.932077	0.0	1.0	0.0	-1.0	-1.0	-1.0	1775936923.932077	peace	Peace	1	20260411_124810	Trigger
22821.434999999998	40471.56	-1038.42	-11432.564999999999	0.0	0.0	0.0	0.0	0.0	0.0	0.0	0.0	0.0	0.0	0.0	0.0	0.0	0.0	144.34482758620692	0.0	0.00964353	0.46826052	0.89526138	-4.63904	-0.50358	2.73154	400982.0	1775936923.9321	0.0	1.0	0.0	-1.0	-1.0	-1.0	1775936923.9321	peace	Peace	1	20260411_124810	Trigger
25467.434999999998	35944.83	1897.155	-8723.25	0.0	0.0	0.0	0.0	0.0	0.0	0.0	0.0	0.0	0.0	0.0	0.0	0.0	0.0	144.34482758620692	0.0	0.00964353	0.46826052	0.89526138	-4.63904	-0.50358	2.73154	400983.0	1775936923.935911	0.0	1.0	0.0	-1.0	-1.0	-1.0	1775936923.935911	peace	Peace	1	20260411_124810	Trigger
26720.28	32978.565	3374.37	-7343.639999999999	0.0	0.0	0.0	0.0	0.0	0.0	0.0	0.0	0.0	0.0	0.0	0.0	0.0	0.0	144.34482758620692	0.0	0.00964353	0.46826052	0.89526138	-4.63904	-0.50358	2.73154	400984.0	1775936923.935933	0.0	1.0	0.0	-1.0	-1.0	-1.0	1775936923.935933	peace	Peace	1	20260411_124810	Trigger
26139.825	32930.1	2726.505	-7917.12	0.0	0.0	0.0	0.0	0.0	0.0	0.0	0.0	0.0	0.0	0.0	0.0	0.0	0.0	144.34482758620692	0.0	0.00964353	0.46826052	0.89526138	-4.63904	-0.50358	2.73154	400985.0	1775936923.940022	0.0	1.0	0.0	-1.0	-1.0	-1.0	1775936923.940022	peace	Peace	1	20260411_124810	Trigger
23895.675	36031.59	214.065	-10208.88	0.0	0.0	0.0	0.0	0.0	0.0	0.0	0.0	0.0	0.0	0.0	0.0	0.0	0.0	144.34482758620692	0.0	0.00964353	0.46826052	0.89526138	-4.63904	-0.50358	2.73154	400986.0	1775936923.940061	0.0	1.0	0.0	-1.0	-1.0	-1.0	1775936923.940061	peace	Peace	1	20260411_124810	Trigger
21230.325	40568.715	-2763.63	-12950.595	0.0	0.0	0.0	0.0	0.0	0.0	0.0	0.0	0.0	0.0	0.0	0.0	0.0	0.0	144.34482758620692	0.0	0.00964353	0.46826052	0.89526138	-4.63904	-0.50358	2.73154	400987.0	1775936923.944	0.0	1.0	0.0	-1.0	-1.0	-1.0	1775936923.944	peace	Peace	1	20260411_124810	Trigger
19650.465	43874.235	-4570.2	-14631.39	0.0	0.0	0.0	0.0	0.0	0.0	0.0	0.0	0.0	0.0	0.0	0.0	0.0	0.0	144.34482758620692	0.0	0.00964353	0.46826052	0.89526138	-4.63904	-0.50358	2.73154	400988.0	1775936923.944023	0.0	1.0	0.0	-1.0	-1.0	-1.0	1775936923.944023	peace	Peace	1	20260411_124810	Trigger
19846.079999999998	44532.854999999996	-4341.0599999999995	-14449.5	0.0	0.0	0.0	0.0	0.0	0.0	0.0	0.0	0.0	0.0	0.0	0.0	0.0	0.0	144.34482758620692	0.0	0.008422830000000001	0.46765017000000003	0.895566555	-7.446879999999999	-1.57178	3.92182	400989.0	1775936923.948115	0.0	1.0	0.0	-1.0	-1.0	-1.0	1775936923.948115	peace	Peace	1	20260411_124810	Trigger
22003.11	41839.02	-1978.5149999999999	-12290.984999999999	0.0	0.0	0.0	0.0	0.0	0.0	0.0	0.0	0.0	0.0	0.0	0.0	0.0	0.0	144.34482758620692	0.0	0.008422830000000001	0.46765017000000003	0.895566555	-7.446879999999999	-1.57178	3.92182	400990.0	1775936923.948149	0.0	1.0	0.0	-1.0	-1.0	-1.0	1775936923.948149	peace	Peace	1	20260411_124810	Trigger
24746.805	37387.71	1048.635	-9501.164999999999	0.0	0.0	0.0	0.0	0.0	0.0	0.0	0.0	0.0	0.0	0.0	0.0	0.0	0.0	144.34482758620692	0.0	0.008422830000000001	0.46765017000000003	0.895566555	-7.446879999999999	-1.57178	3.92182	400991.0	1775936923.952108	0.0	1.0	0.0	-1.0	-1.0	-1.0	1775936923.952108	peace	Peace	1	20260411_124810	Trigger
26573.535	33649.965	3143.0699999999997	-7556.804999999999	0.0	0.0	0.0	0.0	0.0	0.0	0.0	0.0	0.0	0.0	0.0	0.0	0.0	0.0	144.34482758620692	0.0	0.008422830000000001	0.46765017000000003	0.895566555	-7.446879999999999	-1.57178	3.92182	400992.0	1775936923.952141	0.0	1.0	0.0	-1.0	-1.0	-1.0	1775936923.952141	peace	Peace	1	20260411_124810	Trigger
26497.035	32733.809999999998	3108.33	-7565.985	0.0	0.0	0.0	0.0	0.0	0.0	0.0	0.0	0.0	0.0	0.0	0.0	0.0	0.0	144.34482758620692	0.0	0.008422830000000001	0.46765017000000003	0.895566555	-7.446879999999999	-1.57178	3.92182	400993.0	1775936923.955996	0.0	1.0	0.0	-1.0	-1.0	-1.0	1775936923.955996	peace	Peace	1	20260411_124810	Trigger
24736.23	34899.255	1120.185	-9370.26	0.0	0.0	0.0	0.0	0.0	0.0	0.0	0.0	0.0	0.0	0.0	0.0	0.0	0.0	144.34482758620692	0.0	0.008422830000000001	0.46765017000000003	0.895566555	-7.446879999999999	-1.57178	3.92182	400994.0	1775936923.956028	0.0	1.0	0.0	-1.0	-1.0	-1.0	1775936923.956028	peace	Peace	1	20260411_124810	Trigger
22032.495	39299.805	-1892.745	-12139.83	0.0	0.0	0.0	0.0	0.0	0.0	0.0	0.0	0.0	0.0	0.0	0.0	0.0	0.0	144.34482758620692	0.0	0.008422830000000001	0.46765017000000003	0.895566555	-7.446879999999999	-1.57178	3.92182	400995.0	1775936923.963103	0.0	1.0	0.0	-1.0	-1.0	-1.0	1775936923.963103	peace	Peace	1	20260411_124810	Trigger
19985.76	43211.52	-4216.635	-14291.369999999999	0.0	0.0	0.0	0.0	0.0	0.0	0.0	0.0	0.0	0.0	0.0	0.0	0.0	0.0	144.34482758620692	0.0	0.008422830000000001	0.46765017000000003	0.895566555	-7.446879999999999	-1.57178	3.92182	400996.0	1775936923.963129	0.0	1.0	0.0	-1.0	-1.0	-1.0	1775936923.963129	peace	Peace	1	20260411_124810	Trigger
19567.934999999998	44805.284999999996	-4671.8099999999995	-14738.355	0.0	0.0	0.0	0.0	0.0	0.0	0.0	0.0	0.0	0.0	0.0	0.0	0.0	0.0	144.34482758620692	0.0	0.008422830000000001	0.46765017000000003	0.895566555	-7.446879999999999	-1.57178	3.92182	400997.0	1775936923.96415	0.0	1.0	0.0	-1.0	-1.0	-1.0	1775936923.96415	peace	Peace	1	20260411_124810	Trigger
21201.12	43092.494999999995	-2881.89	-13112.595	0.0	0.0	0.0	0.0	0.0	0.0	0.0	0.0	0.0	0.0	0.0	0.0	0.0	0.0	144.34482758620692	0.0	0.008422830000000001	0.46765017000000003	0.895566555	-7.446879999999999	-1.57178	3.92182	400998.0	1775936923.964175	0.0	1.0	0.0	-1.0	-1.0	-1.0	1775936923.964175	peace	Peace	1	20260411_124810	Trigger
23909.895	38944.619999999995	104.67	-10367.91	0.0	0.0	0.0	0.0	0.0	0.0	0.0	0.0	0.0	0.0	0.0	0.0	0.0	0.0	144.34482758620692	0.0	0.00866697	0.45812871	0.898740375	-6.5618	-2.2127	2.4110799999999997	400999.0	1775936923.968224	0.0	1.0	0.0	-1.0	-1.0	-1.0	1775936923.968224	peace	Peace	1	20260411_124810	Trigger
26213.805	34678.845	2686.6349999999998	-7978.049999999999	0.0	0.0	0.0	0.0	0.0	0.0	0.0	0.0	0.0	0.0	0.0	0.0	0.0	0.0	144.34482758620692	0.0	0.00866697	0.45812871	0.898740375	-6.5618	-2.2127	2.4110799999999997	401000.0	1775936923.96825	0.0	1.0	0.0	-1.0	-1.0	-1.0	1775936923.96825	peace	Peace	1	20260411_124810	Trigger
26709.704999999998	32851.53	3315.7349999999997	-7376.8949999999995	0.0	0.0	0.0	0.0	0.0	0.0	0.0	0.0	0.0	0.0	0.0	0.0	0.0	0.0	144.34482758620692	0.0	0.00866697	0.45812871	0.898740375	-6.5618	-2.2127	2.4110799999999997	401001.0	1775936923.972097	0.0	1.0	0.0	-1.0	-1.0	-1.0	1775936923.972097	peace	Peace	1	20260411_124810	Trigger
25470.405	34021.034999999996	1913.85	-8640.09	0.0	0.0	0.0	0.0	0.0	0.0	0.0	0.0	0.0	0.0	0.0	0.0	0.0	0.0	144.34482758620692	0.0	0.00866697	0.45812871	0.898740375	-6.5618	-2.2127	2.4110799999999997	401002.0	1775936923.972121	0.0	1.0	0.0	-1.0	-1.0	-1.0	1775936923.972121	peace	Peace	1	20260411_124810	Trigger
22855.725	38002.14	-998.415	-11309.22	0.0	0.0	0.0	0.0	0.0	0.0	0.0	0.0	0.0	0.0	0.0	0.0	0.0	0.0	144.34482758620692	0.0	0.00866697	0.45812871	0.898740375	-6.5618	-2.2127	2.4110799999999997	401003.0	1775936923.976141	0.0	1.0	0.0	-1.0	-1.0	-1.0	1775936923.976141	peace	Peace	1	20260411_124810	Trigger
20422.215	42340.32	-3736.08	-13838.67	0.0	0.0	0.0	0.0	0.0	0.0	0.0	0.0	0.0	0.0	0.0	0.0	0.0	0.0	144.34482758620692	0.0	0.00866697	0.45812871	0.898740375	-6.5618	-2.2127	2.4110799999999997	401004.0	1775936923.976165	0.0	1.0	0.0	-1.0	-1.0	-1.0	1775936923.976165	peace	Peace	1	20260411_124810	Trigger
19464.93	44730.27	-4814.46	-14857.83	0.0	0.0	0.0	0.0	0.0	0.0	0.0	0.0	0.0	0.0	0.0	0.0	0.0	0.0	144.34482758620692	0.0	0.00866697	0.45812871	0.898740375	-6.5618	-2.2127	2.4110799999999997	401005.0	1775936923.98005	0.0	1.0	0.0	-1.0	-1.0	-1.0	1775936923.98005	peace	Peace	1	20260411_124810	Trigger
20503.8	44096.67	-3674.8799999999997	-13831.92	0.0	0.0	0.0	0.0	0.0	0.0	0.0	0.0	0.0	0.0	0.0	0.0	0.0	0.0	144.34482758620692	0.0	0.00866697	0.45812871	0.898740375	-6.5618	-2.2127	2.4110799999999997	401006.0	1775936923.980075	0.0	1.0	0.0	-1.0	-1.0	-1.0	1775936923.980075	peace	Peace	1	20260411_124810	Trigger
23087.295	40443.705	-834.5699999999999	-11226.689999999999	0.0	0.0	0.0	0.0	0.0	0.0	0.0	0.0	0.0	0.0	0.0	0.0	0.0	0.0	144.34482758620692	0.0	0.00866697	0.45812871	0.898740375	-6.5618	-2.2127	2.4110799999999997	401007.0	1775936923.987764	0.0	1.0	0.0	-1.0	-1.0	-1.0	1775936923.987764	peace	Peace	1	20260411_124810	Trigger
25677.27	35929.799999999996	2043.27	-8571.555	0.0	0.0	0.0	0.0	0.0	0.0	0.0	0.0	0.0	0.0	0.0	0.0	0.0	0.0	144.34482758620692	0.0	0.00866697	0.45812871	0.898740375	-6.5618	-2.2127	2.4110799999999997	401008.0	1775936923.987794	0.0	1.0	0.0	-1.0	-1.0	-1.0	1775936923.987794	peace	Peace	1	20260411_124810	Trigger
26746.515	33193.575	3321.6299999999997	-7378.469999999999	0.0	0.0	0.0	0.0	0.0	0.0	0.0	0.0	0.0	0.0	0.0	0.0	0.0	0.0	144.34482758620692	0.0	0.011535615	0.449400705	0.9008766	-3.3419399999999997	-2.53316	1.8006799999999998	401009.0	1775936923.988215	0.0	1.0	0.0	-1.0	-1.0	-1.0	1775936923.988215	peace	Peace	1	20260411_124810	Trigger
26039.07	33384.465	2527.335	-8081.639999999999	0.0	0.0	0.0	0.0	0.0	0.0	0.0	0.0	0.0	0.0	0.0	0.0	0.0	0.0	144.34482758620692	0.0	0.011535615	0.449400705	0.9008766	-3.3419399999999997	-2.53316	1.8006799999999998	401010.0	1775936923.98824	0.0	1.0	0.0	-1.0	-1.0	-1.0	1775936923.98824	peace	Peace	1	20260411_124810	Trigger
23713.92	36681.03	-81.315	-10461.6	0.0	0.0	0.0	0.0	0.0	0.0	0.0	0.0	0.0	0.0	0.0	0.0	0.0	0.0	144.34482758620692	0.0	0.011535615	0.449400705	0.9008766	-3.3419399999999997	-2.53316	1.8006799999999998	401011.0	1775936923.992173	0.0	1.0	0.0	-1.0	-1.0	-1.0	1775936923.992173	peace	Peace	1	20260411_124810	Trigger
21072.645	41214.06	-3034.755	-13184.144999999999	0.0	0.0	0.0	0.0	0.0	0.0	0.0	0.0	0.0	0.0	0.0	0.0	0.0	0.0	144.34482758620692	0.0	0.011535615	0.449400705	0.9008766	-3.3419399999999997	-2.53316	1.8006799999999998	401012.0	1775936923.992196	0.0	1.0	0.0	-1.0	-1.0	-1.0	1775936923.992196	peace	Peace	1	20260411_124810	Trigger
19593.54	44372.52	-4711.41	-14745.375	0.0	0.0	0.0	0.0	0.0	0.0	0.0	0.0	0.0	0.0	0.0	0.0	0.0	0.0	144.34482758620692	0.0	0.011535615	0.449400705	0.9008766	-3.3419399999999997	-2.53316	1.8006799999999998	401013.0	1775936923.996156	0.0	1.0	0.0	-1.0	-1.0	-1.0	1775936923.996156	peace	Peace	1	20260411_124810	Trigger
19942.02	44818.92	-4306.635	-14404.365	0.0	0.0	0.0	0.0	0.0	0.0	0.0	0.0	0.0	0.0	0.0	0.0	0.0	0.0	144.34482758620692	0.0	0.011535615	0.449400705	0.9008766	-3.3419399999999997	-2.53316	1.8006799999999998	401014.0	1775936923.996179	0.0	1.0	0.0	-1.0	-1.0	-1.0	1775936923.996179	peace	Peace	1	20260411_124810	Trigger
22229.774999999998	41888.159999999996	-1809.27	-12121.199999999999	0.0	0.0	0.0	0.0	0.0	0.0	0.0	0.0	0.0	0.0	0.0	0.0	0.0	0.0	144.34482758620692	0.0	0.011535615	0.449400705	0.9008766	-3.3419399999999997	-2.53316	1.8006799999999998	401015.0	1775936924.00011	0.0	1.0	0.0	-1.0	-1.0	-1.0	1775936924.00011	peace	Peace	1	20260411_124810	Trigger
24955.11	37403.595	1200.375	-9348.21	0.0	0.0	0.0	0.0	0.0	0.0	0.0	0.0	0.0	0.0	0.0	0.0	0.0	0.0	144.34482758620692	0.0	0.011535615	0.449400705	0.9008766	-3.3419399999999997	-2.53316	1.8006799999999998	401016.0	1775936924.000135	0.0	1.0	0.0	-1.0	-1.0	-1.0	1775936924.000135	peace	Peace	1	20260411_124810	Trigger
26641.125	33848.82	3144.87	-7541.054999999999	0.0	0.0	0.0	0.0	0.0	0.0	0.0	0.0	0.0	0.0	0.0	0.0	0.0	0.0	144.34482758620692	0.0	0.011535615	0.449400705	0.9008766	-3.3419399999999997	-2.53316	1.8006799999999998	401017.0	1775936924.004154	0.0	1.0	0.0	-1.0	-1.0	-1.0	1775936924.004154	peace	Peace	1	20260411_124810	Trigger
26432.01	33145.244999999995	2952.0899999999997	-7696.62	0.0	0.0	0.0	0.0	0.0	0.0	0.0	0.0	0.0	0.0	0.0	0.0	0.0	0.0	144.34482758620692	0.0	0.011535615	0.449400705	0.9008766	-3.3419399999999997	-2.53316	1.8006799999999998	401018.0	1775936924.004177	0.0	1.0	0.0	-1.0	-1.0	-1.0	1775936924.004177	peace	Peace	1	20260411_124810	Trigger
24530.895	35555.939999999995	812.295	-9642.69	0.0	0.0	0.0	0.0	0.0	0.0	0.0	0.0	0.0	0.0	0.0	0.0	0.0	0.0	144.34482758620692	0.0	0.012634245	0.446593095	0.9017310900000001	-0.8087799999999999	-1.9227599999999998	2.9604399999999997	401019.0	1775936924.008219	0.0	1.0	0.0	-1.0	-1.0	-1.0	1775936924.008219	peace	Peace	1	20260411_124810	Trigger
21803.085	40033.755	-2224.08	-12435.119999999999	0.0	0.0	0.0	0.0	0.0	0.0	0.0	0.0	0.0	0.0	0.0	0.0	0.0	0.0	144.34482758620692	0.0	0.012634245	0.446593095	0.9017310900000001	-0.8087799999999999	-1.9227599999999998	2.9604399999999997	401020.0	1775936924.008243	0.0	1.0	0.0	-1.0	-1.0	-1.0	1775936924.008243	peace	Peace	1	20260411_124810	Trigger
19869.075	43804.53	-4427.6849999999995	-14478.21	0.0	0.0	0.0	0.0	0.0	0.0	0.0	0.0	0.0	0.0	0.0	0.0	0.0	0.0	144.34482758620692	0.0	0.012634245	0.446593095	0.9017310900000001	-0.8087799999999999	-1.9227599999999998	2.9604399999999997	401021.0	1775936924.01226	0.0	1.0	0.0	-1.0	-1.0	-1.0	1775936924.01226	peace	Peace	1	20260411_124810	Trigger
19613.88	45164.159999999996	-4701.735	-14759.595	0.0	0.0	0.0	0.0	0.0	0.0	0.0	0.0	0.0	0.0	0.0	0.0	0.0	0.0	144.34482758620692	0.0	0.012634245	0.446593095	0.9017310900000001	-0.8087799999999999	-1.9227599999999998	2.9604399999999997	401022.0	1775936924.012284	0.0	1.0	0.0	-1.0	-1.0	-1.0	1775936924.012284	peace	Peace	1	20260411_124810	Trigger
21444.344999999998	43169.13	-2703.33	-12937.769999999999	0.0	0.0	0.0	0.0	0.0	0.0	0.0	0.0	0.0	0.0	0.0	0.0	0.0	0.0	144.34482758620692	0.0	0.012634245	0.446593095	0.9017310900000001	-0.8087799999999999	-1.9227599999999998	2.9604399999999997	401023.0	1775936924.016256	0.0	1.0	0.0	-1.0	-1.0	-1.0	1775936924.016256	peace	Peace	1	20260411_124810	Trigger
24181.875	38923.244999999995	318.735	-10162.755	0.0	0.0	0.0	0.0	0.0	0.0	0.0	0.0	0.0	0.0	0.0	0.0	0.0	0.0	144.34482758620692	0.0	0.012634245	0.446593095	0.9017310900000001	-0.8087799999999999	-1.9227599999999998	2.9604399999999997	401024.0	1775936924.01628	0.0	1.0	0.0	-1.0	-1.0	-1.0	1775936924.01628	peace	Peace	1	20260411_124810	Trigger
26365.094999999998	34760.025	2781.72	-7884.764999999999	0.0	0.0	0.0	0.0	0.0	0.0	0.0	0.0	0.0	0.0	0.0	0.0	0.0	0.0	144.34482758620692	0.0	0.012634245	0.446593095	0.9017310900000001	-0.8087799999999999	-1.9227599999999998	2.9604399999999997	401025.0	1775936924.020181	0.0	1.0	0.0	-1.0	-1.0	-1.0	1775936924.020181	peace	Peace	1	20260411_124810	Trigger
26680.815	33172.92	3207.555	-7473.0599999999995	0.0	0.0	0.0	0.0	0.0	0.0	0.0	0.0	0.0	0.0	0.0	0.0	0.0	0.0	144.34482758620692	0.0	0.012634245	0.446593095	0.9017310900000001	-0.8087799999999999	-1.9227599999999998	2.9604399999999997	401026.0	1775936924.020204	0.0	1.0	0.0	-1.0	-1.0	-1.0	1775936924.020204	peace	Peace	1	20260411_124810	Trigger
25282.71	34605.36	1631.0249999999999	-8892.539999999999	0.0	0.0	0.0	0.0	0.0	0.0	0.0	0.0	0.0	0.0	0.0	0.0	0.0	0.0	144.34482758620692	0.0	0.012634245	0.446593095	0.9017310900000001	-0.8087799999999999	-1.9227599999999998	2.9604399999999997	401027.0	1775936924.024396	0.0	1.0	0.0	-1.0	-1.0	-1.0	1775936924.024396	peace	Peace	1	20260411_124810	Trigger
22620.285	38745.27	-1334.97	-11610.765	0.0	0.0	0.0	0.0	0.0	0.0	0.0	0.0	0.0	0.0	0.0	0.0	0.0	0.0	144.34482758620692	0.0	0.012634245	0.446593095	0.9017310900000001	-0.8087799999999999	-1.9227599999999998	2.9604399999999997	401028.0	1775936924.024419	0.0	1.0	0.0	-1.0	-1.0	-1.0	1775936924.024419	peace	Peace	1	20260411_124810	Trigger
20320.785	42991.02	-3939.93	-14018.265	0.0	0.0	0.0	0.0	0.0	0.0	0.0	0.0	0.0	0.0	0.0	0.0	0.0	0.0	144.34482758620692	0.0	0.01440426	0.445982745	0.90356214	0.01526	-2.22796	2.60946	401029.0	1775936924.028459	0.0	1.0	0.0	-1.0	-1.0	-1.0	1775936924.028459	peace	Peace	1	20260411_124810	Trigger
19519.559999999998	45177.255	-4846.5	-14877.18	0.0	0.0	0.0	0.0	0.0	0.0	0.0	0.0	0.0	0.0	0.0	0.0	0.0	0.0	144.34482758620692	0.0	0.01440426	0.445982745	0.90356214	0.01526	-2.22796	2.60946	401030.0	1775936924.028482	0.0	1.0	0.0	-1.0	-1.0	-1.0	1775936924.028482	peace	Peace	1	20260411_124810	Trigger
20683.755	44230.32	-3555.72	-13717.845	0.0	0.0	0.0	0.0	0.0	0.0	0.0	0.0	0.0	0.0	0.0	0.0	0.0	0.0	144.34482758620692	0.0	0.01440426	0.445982745	0.90356214	0.01526	-2.22796	2.60946	401031.0	1775936924.032206	0.0	1.0	0.0	-1.0	-1.0	-1.0	1775936924.032206	peace	Peace	1	20260411_124810	Trigger
23301.135	40402.53	-668.34	-11076.119999999999	0.0	0.0	0.0	0.0	0.0	0.0	0.0	0.0	0.0	0.0	0.0	0.0	0.0	0.0	144.34482758620692	0.0	0.01440426	0.445982745	0.90356214	0.01526	-2.22796	2.60946	401032.0	1775936924.032229	0.0	1.0	0.0	-1.0	-1.0	-1.0	1775936924.032229	peace	Peace	1	20260411_124810	Trigger
25842.015	35932.68	2142.1349999999998	-8476.289999999999	0.0	0.0	0.0	0.0	0.0	0.0	0.0	0.0	0.0	0.0	0.0	0.0	0.0	0.0	144.34482758620692	0.0	0.01440426	0.445982745	0.90356214	0.01526	-2.22796	2.60946	401033.0	1775936924.036317	0.0	1.0	0.0	-1.0	-1.0	-1.0	1775936924.036317	peace	Peace	1	20260411_124810	Trigger
26738.055	33453.765	3225.7799999999997	-7457.264999999999	0.0	0.0	0.0	0.0	0.0	0.0	0.0	0.0	0.0	0.0	0.0	0.0	0.0	0.0	144.34482758620692	0.0	0.01440426	0.445982745	0.90356214	0.01526	-2.22796	2.60946	401034.0	1775936924.03634	0.0	1.0	0.0	-1.0	-1.0	-1.0	1775936924.03634	peace	Peace	1	20260411_124810	Trigger
25896.105	33901.515	2289.33	-8289.404999999999	0.0	0.0	0.0	0.0	0.0	0.0	0.0	0.0	0.0	0.0	0.0	0.0	0.0	0.0	144.34482758620692	0.0	0.01440426	0.445982745	0.90356214	0.01526	-2.22796	2.60946	401035.0	1775936924.040338	0.0	1.0	0.0	-1.0	-1.0	-1.0	1775936924.040338	peace	Peace	1	20260411_124810	Trigger
23508.855	37391.895	-389.565	-10738.395	0.0	0.0	0.0	0.0	0.0	0.0	0.0	0.0	0.0	0.0	0.0	0.0	0.0	0.0	144.34482758620692	0.0	0.01440426	0.445982745	0.90356214	0.01526	-2.22796	2.60946	401036.0	1775936924.040361	0.0	1.0	0.0	-1.0	-1.0	-1.0	1775936924.040361	peace	Peace	1	20260411_124810	Trigger
20931.795	41846.805	-3269.6549999999997	-13400.144999999999	0.0	0.0	0.0	0.0	0.0	0.0	0.0	0.0	0.0	0.0	0.0	0.0	0.0	0.0	144.34482758620692	0.0	0.01440426	0.445982745	0.90356214	0.01526	-2.22796	2.60946	401037.0	1775936924.044234	0.0	1.0	0.0	-1.0	-1.0	-1.0	1775936924.044234	peace	Peace	1	20260411_124810	Trigger
19604.07	44782.875	-4772.115	-14809.769999999999	0.0	0.0	0.0	0.0	0.0	0.0	0.0	0.0	0.0	0.0	0.0	0.0	0.0	0.0	144.34482758620692	0.0	0.01440426	0.445982745	0.90356214	0.01526	-2.22796	2.60946	401038.0	1775936924.044257	0.0	1.0	0.0	-1.0	-1.0	-1.0	1775936924.044257	peace	Peace	1	20260411_124810	Trigger
20154.96	44906.67	-4160.835	-14272.109999999999	0.0	0.0	0.0	0.0	0.0	0.0	0.0	0.0	0.0	0.0	0.0	0.0	0.0	0.0	144.34482758620692	0.0	0.014465295	0.45031623	0.902890755	-0.71722	-0.24416	3.83026	401039.0	1775936924.048353	0.0	1.0	0.0	-1.0	-1.0	-1.0	1775936924.048353	peace	Peace	1	20260411_124810	Trigger
22511.655	41734.08	-1578.195	-11907.045	0.0	0.0	0.0	0.0	0.0	0.0	0.0	0.0	0.0	0.0	0.0	0.0	0.0	0.0	144.34482758620692	0.0	0.014465295	0.45031623	0.902890755	-0.71722	-0.24416	3.83026	401040.0	1775936924.048376	0.0	1.0	0.0	-1.0	-1.0	-1.0	1775936924.048376	peace	Peace	1	20260411_124810	Trigger
25216.829999999998	37230.615	1414.53	-9146.16	0.0	0.0	0.0	0.0	0.0	0.0	0.0	0.0	0.0	0.0	0.0	0.0	0.0	0.0	144.34482758620692	0.0	0.014465295	0.45031623	0.902890755	-0.71722	-0.24416	3.83026	401041.0	1775936924.052256	0.0	1.0	0.0	-1.0	-1.0	-1.0	1775936924.052256	peace	Peace	1	20260411_124810	Trigger
26742.195	33876.72	3187.08	-7496.19	0.0	0.0	0.0	0.0	0.0	0.0	0.0	0.0	0.0	0.0	0.0	0.0	0.0	0.0	144.34482758620692	0.0	0.014465295	0.45031623	0.902890755	-0.71722	-0.24416	3.83026	401042.0	1775936924.052279	0.0	1.0	0.0	-1.0	-1.0	-1.0	1775936924.052279	peace	Peace	1	20260411_124810	Trigger
26419.094999999998	33387.57	2848.23	-7786.485	0.0	0.0	0.0	0.0	0.0	0.0	0.0	0.0	0.0	0.0	0.0	0.0	0.0	0.0	144.34482758620692	0.0	0.014465295	0.45031623	0.902890755	-0.71722	-0.24416	3.83026	401043.0	1775936924.056331	0.0	1.0	0.0	-1.0	-1.0	-1.0	1775936924.056331	peace	Peace	1	20260411_124810	Trigger
24367.995	36055.755	549.36	-9885.645	0.0	0.0	0.0	0.0	0.0	0.0	0.0	0.0	0.0	0.0	0.0	0.0	0.0	0.0	144.34482758620692	0.0	0.014465295	0.45031623	0.902890755	-0.71722	-0.24416	3.83026	401044.0	1775936924.056375	0.0	1.0	0.0	-1.0	-1.0	-1.0	1775936924.056375	peace	Peace	1	20260411_124810	Trigger
21619.26	40562.055	-2503.305	-12701.925	0.0	0.0	0.0	0.0	0.0	0.0	0.0	0.0	0.0	0.0	0.0	0.0	0.0	0.0	144.34482758620692	0.0	0.014465295	0.45031623	0.902890755	-0.71722	-0.24416	3.83026	401045.0	1775936924.060305	0.0	1.0	0.0	-1.0	-1.0	-1.0	1775936924.060305	peace	Peace	1	20260411_124810	Trigger
19809.945	44169.435	-4574.205	-14621.939999999999	0.0	0.0	0.0	0.0	0.0	0.0	0.0	0.0	0.0	0.0	0.0	0.0	0.0	0.0	144.34482758620692	0.0	0.014465295	0.45031623	0.902890755	-0.71722	-0.24416	3.83026	401046.0	1775936924.060329	0.0	1.0	0.0	-1.0	-1.0	-1.0	1775936924.060329	peace	Peace	1	20260411_124810	Trigger
19735.425	45285.299999999996	-4647.24	-14707.935	0.0	0.0	0.0	0.0	0.0	0.0	0.0	0.0	0.0	0.0	0.0	0.0	0.0	0.0	144.34482758620692	0.0	0.014465295	0.45031623	0.902890755	-0.71722	-0.24416	3.83026	401047.0	1775936924.064365	0.0	1.0	0.0	-1.0	-1.0	-1.0	1775936924.064365	peace	Peace	1	20260411_124810	Trigger
21695.265	43003.755	-2527.065	-12764.925	0.0	0.0	0.0	0.0	0.0	0.0	0.0	0.0	0.0	0.0	0.0	0.0	0.0	0.0	144.34482758620692	0.0	0.014465295	0.45031623	0.902890755	-0.71722	-0.24416	3.83026	401048.0	1775936924.06439	0.0	1.0	0.0	-1.0	-1.0	-1.0	1775936924.06439	peace	Peace	1	20260411_124810	Trigger
24474.42	38649.51	539.685	-9948.914999999999	0.0	0.0	0.0	0.0	0.0	0.0	0.0	0.0	0.0	0.0	0.0	0.0	0.0	0.0	144.34482758620692	0.0	0.015563925000000001	0.45312384	0.90246351	-3.052	-1.09872	4.059159999999999	401049.0	1775936924.070207	0.0	1.0	0.0	-1.0	-1.0	-1.0	1775936924.070207	peace	Peace	1	20260411_124810	Trigger
26575.785	34614.63	2946.285	-7732.799999999999	0.0	0.0	0.0	0.0	0.0	0.0	0.0	0.0	0.0	0.0	0.0	0.0	0.0	0.0	144.34482758620692	0.0	0.015563925000000001	0.45312384	0.90246351	-3.052	-1.09872	4.059159999999999	401050.0	1775936924.070231	0.0	1.0	0.0	-1.0	-1.0	-1.0	1775936924.070231	peace	Peace	1	20260411_124810	Trigger
26717.355	33237.045	3169.035	-7506.945	0.0	0.0	0.0	0.0	0.0	0.0	0.0	0.0	0.0	0.0	0.0	0.0	0.0	0.0	144.34482758620692	0.0	0.015563925000000001	0.45312384	0.90246351	-3.052	-1.09872	4.059159999999999	401051.0	1775936924.072393	0.0	1.0	0.0	-1.0	-1.0	-1.0	1775936924.072393	peace	Peace	1	20260411_124810	Trigger
25157.565	34923.96	1407.735	-9099.99	0.0	0.0	0.0	0.0	0.0	0.0	0.0	0.0	0.0	0.0	0.0	0.0	0.0	0.0	144.34482758620692	0.0	0.015563925000000001	0.45312384	0.90246351	-3.052	-1.09872	4.059159999999999	401052.0	1775936924.072416	0.0	1.0	0.0	-1.0	-1.0	-1.0	1775936924.072416	peace	Peace	1	20260411_124810	Trigger
22408.785	39199.229999999996	-1648.62	-11894.535	0.0	0.0	0.0	0.0	0.0	0.0	0.0	0.0	0.0	0.0	0.0	0.0	0.0	0.0	144.34482758620692	0.0	0.015563925000000001	0.45312384	0.90246351	-3.052	-1.09872	4.059159999999999	401053.0	1775936924.076352	0.0	1.0	0.0	-1.0	-1.0	-1.0	1775936924.076352	peace	Peace	1	20260411_124810	Trigger
20192.985	43362.225	-4166.955	-14220.09	0.0	0.0	0.0	0.0	0.0	0.0	0.0	0.0	0.0	0.0	0.0	0.0	0.0	0.0	144.34482758620692	0.0	0.015563925000000001	0.45312384	0.90246351	-3.052	-1.09872	4.059159999999999	401054.0	1775936924.076375	0.0	1.0	0.0	-1.0	-1.0	-1.0	1775936924.076375	peace	Peace	1	20260411_124810	Trigger
19562.579999999998	45364.095	-4867.0199999999995	-14895.18	0.0	0.0	0.0	0.0	0.0	0.0	0.0	0.0	0.0	0.0	0.0	0.0	0.0	0.0	144.34482758620692	0.0	0.015563925000000001	0.45312384	0.90246351	-3.052	-1.09872	4.059159999999999	401055.0	1775936924.080334	0.0	1.0	0.0	-1.0	-1.0	-1.0	1775936924.080334	peace	Peace	1	20260411_124810	Trigger
20984.94	44143.604999999996	-3305.0699999999997	-13493.835	0.0	0.0	0.0	0.0	0.0	0.0	0.0	0.0	0.0	0.0	0.0	0.0	0.0	0.0	144.34482758620692	0.0	0.015563925000000001	0.45312384	0.90246351	-3.052	-1.09872	4.059159999999999	401056.0	1775936924.080357	0.0	1.0	0.0	-1.0	-1.0	-1.0	1775936924.080357	peace	Peace	1	20260411_124810	Trigger
23693.175	40133.115	-338.58	-10781.145	0.0	0.0	0.0	0.0	0.0	0.0	0.0	0.0	0.0	0.0	0.0	0.0	0.0	0.0	144.34482758620692	0.0	0.015563925000000001	0.45312384	0.90246351	-3.052	-1.09872	4.059159999999999	401057.0	1775936924.084461	0.0	1.0	0.0	-1.0	-1.0	-1.0	1775936924.084461	peace	Peace	1	20260411_124810	Trigger
26153.235	35619.57	2403.72	-8241.074999999999	0.0	0.0	0.0	0.0	0.0	0.0	0.0	0.0	0.0	0.0	0.0	0.0	0.0	0.0	144.34482758620692	0.0	0.015563925000000001	0.45312384	0.90246351	-3.052	-1.09872	4.059159999999999	401058.0	1775936924.084483	0.0	1.0	0.0	-1.0	-1.0	-1.0	1775936924.084483	peace	Peace	1	20260411_124810	Trigger
26927.19	33247.755	3349.395	-7343.955	0.0	0.0	0.0	0.0	0.0	0.0	0.0	0.0	0.0	0.0	0.0	0.0	0.0	0.0	144.34482758620692	0.0	0.016845660000000002	0.445494465	0.90783459	2.39582	0.27468	3.6624	401059.0	1775936924.088346	0.0	1.0	0.0	-1.0	-1.0	-1.0	1775936924.088346	peace	Peace	1	20260411_124810	Trigger
25920.0	33922.17	2231.145	-8344.35	0.0	0.0	0.0	0.0	0.0	0.0	0.0	0.0	0.0	0.0	0.0	0.0	0.0	0.0	144.34482758620692	0.0	0.016845660000000002	0.445494465	0.90783459	2.39582	0.27468	3.6624	401060.0	1775936924.088369	0.0	1.0	0.0	-1.0	-1.0	-1.0	1775936924.088369	peace	Peace	1	20260411_124810	Trigger
23356.305	37695.284999999996	-635.31	-10972.664999999999	0.0	0.0	0.0	0.0	0.0	0.0	0.0	0.0	0.0	0.0	0.0	0.0	0.0	0.0	144.34482758620692	0.0	0.016845660000000002	0.445494465	0.90783459	2.39582	0.27468	3.6624	401061.0	1775936924.092351	0.0	1.0	0.0	-1.0	-1.0	-1.0	1775936924.092351	peace	Peace	1	20260411_124810	Trigger
20714.67	42266.43	-3603.555	-13704.255	0.0	0.0	0.0	0.0	0.0	0.0	0.0	0.0	0.0	0.0	0.0	0.0	0.0	0.0	144.34482758620692	0.0	0.016845660000000002	0.445494465	0.90783459	2.39582	0.27468	3.6624	401062.0	1775936924.092374	0.0	1.0	0.0	-1.0	-1.0	-1.0	1775936924.092374	peace	Peace	1	20260411_124810	Trigger
19447.559999999998	45134.729999999996	-5015.79	-15034.275	0.0	0.0	0.0	0.0	0.0	0.0	0.0	0.0	0.0	0.0	0.0	0.0	0.0	0.0	144.34482758620692	0.0	0.016845660000000002	0.445494465	0.90783459	2.39582	0.27468	3.6624	401063.0	1775936924.09647	0.0	1.0	0.0	-1.0	-1.0	-1.0	1775936924.09647	peace	Peace	1	20260411_124810	Trigger
20244.42	45021.195	-4135.68	-14263.515	0.0	0.0	0.0	0.0	0.0	0.0	0.0	0.0	0.0	0.0	0.0	0.0	0.0	0.0	144.34482758620692	0.0	0.016845660000000002	0.445494465	0.90783459	2.39582	0.27468	3.6624	401064.0	1775936924.096504	0.0	1.0	0.0	-1.0	-1.0	-1.0	1775936924.096504	peace	Peace	1	20260411_124810	Trigger
22845.329999999998	41549.31	-1288.8	-11655.09	0.0	0.0	0.0	0.0	0.0	0.0	0.0	0.0	0.0	0.0	0.0	0.0	0.0	0.0	144.34482758620692	0.0	0.016845660000000002	0.445494465	0.90783459	2.39582	0.27468	3.6624	401065.0	1775936924.100435	0.0	1.0	0.0	-1.0	-1.0	-1.0	1775936924.100435	peace	Peace	1	20260411_124810	Trigger
25621.02	36839.43	1761.615	-8839.35	0.0	0.0	0.0	0.0	0.0	0.0	0.0	0.0	0.0	0.0	0.0	0.0	0.0	0.0	144.34482758620692	0.0	0.016845660000000002	0.445494465	0.90783459	2.39582	0.27468	3.6624	401066.0	1775936924.10046	0.0	1.0	0.0	-1.0	-1.0	-1.0	1775936924.10046	peace	Peace	1	20260411_124810	Trigger
27061.515	33528.735	3420.765	-7288.469999999999	0.0	0.0	0.0	0.0	0.0	0.0	0.0	0.0	0.0	0.0	0.0	0.0	0.0	0.0	144.34482758620692	0.0	0.016845660000000002	0.445494465	0.90783459	2.39582	0.27468	3.6624	401067.0	1775936924.104418	0.0	1.0	0.0	-1.0	-1.0	-1.0	1775936924.104418	peace	Peace	1	20260411_124810	Trigger
26526.825	33253.335	2859.705	-7776.945	0.0	0.0	0.0	0.0	0.0	0.0	0.0	0.0	0.0	0.0	0.0	0.0	0.0	0.0	144.34482758620692	0.0	0.016845660000000002	0.445494465	0.90783459	2.39582	0.27468	3.6624	401068.0	1775936924.104445	0.0	1.0	0.0	-1.0	-1.0	-1.0	1775936924.104445	peace	Peace	1	20260411_124810	Trigger
24281.594999999998	36302.85	358.2	-10063.89	0.0	0.0	0.0	0.0	0.0	0.0	0.0	0.0	0.0	0.0	0.0	0.0	0.0	0.0	144.34482758620692	0.0	0.012268035	0.43261608	0.91027599	4.92898	-2.12114	5.4020399999999995	401069.0	1775936924.10854	0.0	1.0	0.0	-1.0	-1.0	-1.0	1775936924.10854	peace	Peace	1	20260411_124810	Trigger
21436.29	41050.26	-2785.365	-12955.904999999999	0.0	0.0	0.0	0.0	0.0	0.0	0.0	0.0	0.0	0.0	0.0	0.0	0.0	0.0	144.34482758620692	0.0	0.012268035	0.43261608	0.91027599	4.92898	-2.12114	5.4020399999999995	401070.0	1775936924.108564	0.0	1.0	0.0	-1.0	-1.0	-1.0	1775936924.108564	peace	Peace	1	20260411_124810	Trigger
19609.11	44694.36	-4844.88	-14867.46	0.0	0.0	0.0	0.0	0.0	0.0	0.0	0.0	0.0	0.0	0.0	0.0	0.0	0.0	144.34482758620692	0.0	0.012268035	0.43261608	0.91027599	4.92898	-2.12114	5.4020399999999995	401071.0	1775936924.112461	0.0	1.0	0.0	-1.0	-1.0	-1.0	1775936924.112461	peace	Peace	1	20260411_124810	Trigger
19667.925	45632.43	-4766.67	-14826.375	0.0	0.0	0.0	0.0	0.0	0.0	0.0	0.0	0.0	0.0	0.0	0.0	0.0	0.0	144.34482758620692	0.0	0.012268035	0.43261608	0.91027599	4.92898	-2.12114	5.4020399999999995	401072.0	1775936924.112488	0.0	1.0	0.0	-1.0	-1.0	-1.0	1775936924.112488	peace	Peace	1	20260411_124810	Trigger
21886.829999999998	43011.945	-2363.4	-12629.744999999999	0.0	0.0	0.0	0.0	0.0	0.0	0.0	0.0	0.0	0.0	0.0	0.0	0.0	0.0	144.34482758620692	0.0	0.012268035	0.43261608	0.91027599	4.92898	-2.12114	5.4020399999999995	401073.0	1775936924.120938	0.0	1.0	0.0	-1.0	-1.0	-1.0	1775936924.120938	peace	Peace	1	20260411_124810	Trigger
24813.045	38407.409999999996	853.1999999999999	-9665.414999999999	0.0	0.0	0.0	0.0	0.0	0.0	0.0	0.0	0.0	0.0	0.0	0.0	0.0	0.0	144.34482758620692	0.0	0.012268035	0.43261608	0.91027599	4.92898	-2.12114	5.4020399999999995	401074.0	1775936924.120963	0.0	1.0	0.0	-1.0	-1.0	-1.0	1775936924.120963	peace	Peace	1	20260411_124810	Trigger
26851.004999999997	34373.79	3163.6349999999998	-7525.17	0.0	0.0	0.0	0.0	0.0	0.0	0.0	0.0	0.0	0.0	0.0	0.0	0.0	0.0	144.34482758620692	0.0	0.012268035	0.43261608	0.91027599	4.92898	-2.12114	5.4020399999999995	401075.0	1775936924.121118	0.0	1.0	0.0	-1.0	-1.0	-1.0	1775936924.121118	peace	Peace	1	20260411_124810	Trigger
26835.93	33190.155	3214.7999999999997	-7456.815	0.0	0.0	0.0	0.0	0.0	0.0	0.0	0.0	0.0	0.0	0.0	0.0	0.0	0.0	144.34482758620692	0.0	0.012268035	0.43261608	0.91027599	4.92898	-2.12114	5.4020399999999995	401076.0	1775936924.121141	0.0	1.0	0.0	-1.0	-1.0	-1.0	1775936924.121141	peace	Peace	1	20260411_124810	Trigger
25093.485	35228.115	1251.8999999999999	-9232.38	0.0	0.0	0.0	0.0	0.0	0.0	0.0	0.0	0.0	0.0	0.0	0.0	0.0	0.0	144.34482758620692	0.0	0.012268035	0.43261608	0.91027599	4.92898	-2.12114	5.4020399999999995	401077.0	1775936924.124827	0.0	1.0	0.0	-1.0	-1.0	-1.0	1775936924.124827	peace	Peace	1	20260411_124810	Trigger
22289.219999999998	39724.244999999995	-1871.1899999999998	-12109.23	0.0	0.0	0.0	0.0	0.0	0.0	0.0	0.0	0.0	0.0	0.0	0.0	0.0	0.0	144.34482758620692	0.0	0.012268035	0.43261608	0.91027599	4.92898	-2.12114	5.4020399999999995	401078.0	1775936924.124851	0.0	1.0	0.0	-1.0	-1.0	-1.0	1775936924.124851	peace	Peace	1	20260411_124810	Trigger
20106.719999999998	43879.905	-4350.285	-14403.689999999999	0.0	0.0	0.0	0.0	0.0	0.0	0.0	0.0	0.0	0.0	0.0	0.0	0.0	0.0	144.34482758620692	0.0	0.011535615	0.42089736	0.9164405250000001	16.038259999999998	-2.48738	-0.59514	401079.0	1775936924.128501	0.0	1.0	0.0	-1.0	-1.0	-1.0	1775936924.128501	peace	Peace	1	20260411_124810	Trigger
19532.295	45754.335	-4979.5199999999995	-15009.525	0.0	0.0	0.0	0.0	0.0	0.0	0.0	0.0	0.0	0.0	0.0	0.0	0.0	0.0	144.34482758620692	0.0	0.011535615	0.42089736	0.9164405250000001	16.038259999999998	-2.48738	-0.59514	401080.0	1775936924.128525	0.0	1.0	0.0	-1.0	-1.0	-1.0	1775936924.128525	peace	Peace	1	20260411_124810	Trigger
21056.309999999998	44258.31	-3306.915	-13487.625	0.0	0.0	0.0	0.0	0.0	0.0	0.0	0.0	0.0	0.0	0.0	0.0	0.0	0.0	144.34482758620692	0.0	0.011535615	0.42089736	0.9164405250000001	16.038259999999998	-2.48738	-0.59514	401081.0	1775936924.132539	0.0	1.0	0.0	-1.0	-1.0	-1.0	1775936924.132539	peace	Peace	1	20260411_124810	Trigger
23820.66	40046.58	-257.03999999999996	-10683.494999999999	0.0	0.0	0.0	0.0	0.0	0.0	0.0	0.0	0.0	0.0	0.0	0.0	0.0	0.0	144.34482758620692	0.0	0.011535615	0.42089736	0.9164405250000001	16.038259999999998	-2.48738	-0.59514	401082.0	1775936924.132562	0.0	1.0	0.0	-1.0	-1.0	-1.0	1775936924.132562	peace	Peace	1	20260411_124810	Trigger
26304.975	35547.03	2527.47	-8108.82	0.0	0.0	0.0	0.0	0.0	0.0	0.0	0.0	0.0	0.0	0.0	0.0	0.0	0.0	144.34482758620692	0.0	0.011535615	0.42089736	0.9164405250000001	16.038259999999998	-2.48738	-0.59514	401083.0	1775936924.136593	0.0	1.0	0.0	-1.0	-1.0	-1.0	1775936924.136593	peace	Peace	1	20260411_124810	Trigger
26985.555	33420.104999999996	3355.3799999999997	-7314.21	0.0	0.0	0.0	0.0	0.0	0.0	0.0	0.0	0.0	0.0	0.0	0.0	0.0	0.0	144.34482758620692	0.0	0.011535615	0.42089736	0.9164405250000001	16.038259999999998	-2.48738	-0.59514	401084.0	1775936924.136616	0.0	1.0	0.0	-1.0	-1.0	-1.0	1775936924.136616	peace	Peace	1	20260411_124810	Trigger
25830.495	34395.885	2055.375	-8477.369999999999	0.0	0.0	0.0	0.0	0.0	0.0	0.0	0.0	0.0	0.0	0.0	0.0	0.0	0.0	144.34482758620692	0.0	0.011535615	0.42089736	0.9164405250000001	16.038259999999998	-2.48738	-0.59514	401085.0	1775936924.140712	0.0	1.0	0.0	-1.0	-1.0	-1.0	1775936924.140712	peace	Peace	1	20260411_124810	Trigger
23193.045	38383.784999999996	-876.555	-11164.095	0.0	0.0	0.0	0.0	0.0	0.0	0.0	0.0	0.0	0.0	0.0	0.0	0.0	0.0	144.34482758620692	0.0	0.011535615	0.42089736	0.9164405250000001	16.038259999999998	-2.48738	-0.59514	401086.0	1775936924.140743	0.0	1.0	0.0	-1.0	-1.0	-1.0	1775936924.140743	peace	Peace	1	20260411_124810	Trigger
20589.614999999998	42906.42	-3784.545	-13843.215	0.0	0.0	0.0	0.0	0.0	0.0	0.0	0.0	0.0	0.0	0.0	0.0	0.0	0.0	144.34482758620692	0.0	0.011535615	0.42089736	0.9164405250000001	16.038259999999998	-2.48738	-0.59514	401087.0	1775936924.144543	0.0	1.0	0.0	-1.0	-1.0	-1.0	1775936924.144543	peace	Peace	1	20260411_124810	Trigger
19455.344999999998	45595.17	-5058.315	-15041.07	0.0	0.0	0.0	0.0	0.0	0.0	0.0	0.0	0.0	0.0	0.0	0.0	0.0	0.0	144.34482758620692	0.0	0.011535615	0.42089736	0.9164405250000001	16.038259999999998	-2.48738	-0.59514	401088.0	1775936924.144567	0.0	1.0	0.0	-1.0	-1.0	-1.0	1775936924.144567	peace	Peace	1	20260411_124810	Trigger
20315.475	45222.299999999996	-4104.8099999999995	-14194.529999999999	0.0	0.0	0.0	0.0	0.0	0.0	0.0	0.0	0.0	0.0	0.0	0.0	0.0	0.0	144.34482758620692	0.0	0.01196286	0.419737695	0.915219825	24.35496	-3.15882	-1.7396399999999999	401089.0	1775936924.14859	0.0	1.0	0.0	-1.0	-1.0	-1.0	1775936924.14859	peace	Peace	1	20260411_124810	Trigger
22922.19	41577.255	-1245.24	-11579.58	0.0	0.0	0.0	0.0	0.0	0.0	0.0	0.0	0.0	0.0	0.0	0.0	0.0	0.0	144.34482758620692	0.0	0.01196286	0.419737695	0.915219825	24.35496	-3.15882	-1.7396399999999999	401090.0	1775936924.148613	0.0	1.0	0.0	-1.0	-1.0	-1.0	1775936924.148613	peace	Peace	1	20260411_124810	Trigger
25767.0	36876.33	1856.745	-8729.279999999999	0.0	0.0	0.0	0.0	0.0	0.0	0.0	0.0	0.0	0.0	0.0	0.0	0.0	0.0	144.34482758620692	0.0	0.01196286	0.419737695	0.915219825	24.35496	-3.15882	-1.7396399999999999	401091.0	1775936924.152605	0.0	1.0	0.0	-1.0	-1.0	-1.0	1775936924.152605	peace	Peace	1	20260411_124810	Trigger
27121.094999999998	33782.715	3409.335	-7283.565	0.0	0.0	0.0	0.0	0.0	0.0	0.0	0.0	0.0	0.0	0.0	0.0	0.0	0.0	144.34482758620692	0.0	0.01196286	0.419737695	0.915219825	24.35496	-3.15882	-1.7396399999999999	401092.0	1775936924.152646	0.0	1.0	0.0	-1.0	-1.0	-1.0	1775936924.152646	peace	Peace	1	20260411_124810	Trigger
26504.82	33727.545	2759.94	-7877.655	0.0	0.0	0.0	0.0	0.0	0.0	0.0	0.0	0.0	0.0	0.0	0.0	0.0	0.0	144.34482758620692	0.0	0.01196286	0.419737695	0.915219825	24.35496	-3.15882	-1.7396399999999999	401093.0	1775936924.156666	0.0	1.0	0.0	-1.0	-1.0	-1.0	1775936924.156666	peace	Peace	1	20260411_124810	Trigger
24159.059999999998	36946.26	139.545	-10266.029999999999	0.0	0.0	0.0	0.0	0.0	0.0	0.0	0.0	0.0	0.0	0.0	0.0	0.0	0.0	144.34482758620692	0.0	0.01196286	0.419737695	0.915219825	24.35496	-3.15882	-1.7396399999999999	401094.0	1775936924.156689	0.0	1.0	0.0	-1.0	-1.0	-1.0	1775936924.156689	peace	Peace	1	20260411_124810	Trigger
21361.184999999998	41619.645	-2939.7599999999998	-13084.244999999999	0.0	0.0	0.0	0.0	0.0	0.0	0.0	0.0	0.0	0.0	0.0	0.0	0.0	0.0	144.34482758620692	0.0	0.01196286	0.419737695	0.915219825	24.35496	-3.15882	-1.7396399999999999	401095.0	1775936924.160552	0.0	1.0	0.0	-1.0	-1.0	-1.0	1775936924.160552	peace	Peace	1	20260411_124810	Trigger
19760.985	45065.97	-4785.929999999999	-14799.24	0.0	0.0	0.0	0.0	0.0	0.0	0.0	0.0	0.0	0.0	0.0	0.0	0.0	0.0	144.34482758620692	0.0	0.01196286	0.419737695	0.915219825	24.35496	-3.15882	-1.7396399999999999	401096.0	1775936924.160575	0.0	1.0	0.0	-1.0	-1.0	-1.0	1775936924.160575	peace	Peace	1	20260411_124810	Trigger
19886.309999999998	45799.604999999996	-4596.48	-14647.41	0.0	0.0	0.0	0.0	0.0	0.0	0.0	0.0	0.0	0.0	0.0	0.0	0.0	0.0	144.34482758620692	0.0	0.01196286	0.419737695	0.915219825	24.35496	-3.15882	-1.7396399999999999	401097.0	1775936924.164656	0.0	1.0	0.0	-1.0	-1.0	-1.0	1775936924.164656	peace	Peace	1	20260411_124810	Trigger
22077.719999999998	42990.165	-2186.1	-12443.535	0.0	0.0	0.0	0.0	0.0	0.0	0.0	0.0	0.0	0.0	0.0	0.0	0.0	0.0	144.34482758620692	0.0	0.01196286	0.419737695	0.915219825	24.35496	-3.15882	-1.7396399999999999	401098.0	1775936924.164689	0.0	1.0	0.0	-1.0	-1.0	-1.0	1775936924.164689	peace	Peace	1	20260411_124810	Trigger
24915.645	38374.74	941.4449999999999	-9563.085	0.0	0.0	0.0	0.0	0.0	0.0	0.0	0.0	0.0	0.0	0.0	0.0	0.0	0.0	144.34482758620692	0.0	0.01770015	0.42248427	0.9020973	25.758879999999998	-0.50358	2.99096	401099.0	1775936924.16864	0.0	1.0	0.0	-1.0	-1.0	-1.0	1775936924.16864	peace	Peace	1	20260411_124810	Trigger
26933.895	34480.845	3205.035	-7453.71	0.0	0.0	0.0	0.0	0.0	0.0	0.0	0.0	0.0	0.0	0.0	0.0	0.0	0.0	144.34482758620692	0.0	0.01770015	0.42248427	0.9020973	25.758879999999998	-0.50358	2.99096	401100.0	1775936924.168664	0.0	1.0	0.0	-1.0	-1.0	-1.0	1775936924.168664	peace	Peace	1	20260411_124810	Trigger
26936.594999999998	33407.865	3226.9049999999997	-7419.0599999999995	0.0	0.0	0.0	0.0	0.0	0.0	0.0	0.0	0.0	0.0	0.0	0.0	0.0	0.0	144.34482758620692	0.0	0.01770015	0.42248427	0.9020973	25.758879999999998	-0.50358	2.99096	401101.0	1775936924.172702	0.0	1.0	0.0	-1.0	-1.0	-1.0	1775936924.172702	peace	Peace	1	20260411_124810	Trigger
25051.68	35565.21	1121.985	-9331.515	0.0	0.0	0.0	0.0	0.0	0.0	0.0	0.0	0.0	0.0	0.0	0.0	0.0	0.0	144.34482758620692	0.0	0.01770015	0.42248427	0.9020973	25.758879999999998	-0.50358	2.99096	401102.0	1775936924.172726	0.0	1.0	0.0	-1.0	-1.0	-1.0	1775936924.172726	peace	Peace	1	20260411_124810	Trigger
22131.18	40089.78	-2080.44	-12265.154999999999	0.0	0.0	0.0	0.0	0.0	0.0	0.0	0.0	0.0	0.0	0.0	0.0	0.0	0.0	144.34482758620692	0.0	0.01770015	0.42248427	0.9020973	25.758879999999998	-0.50358	2.99096	401103.0	1775936924.176622	0.0	1.0	0.0	-1.0	-1.0	-1.0	1775936924.176622	peace	Peace	1	20260411_124810	Trigger
19987.02	44204.759999999995	-4530.014999999999	-14540.355	0.0	0.0	0.0	0.0	0.0	0.0	0.0	0.0	0.0	0.0	0.0	0.0	0.0	0.0	144.34482758620692	0.0	0.01770015	0.42248427	0.9020973	25.758879999999998	-0.50358	2.99096	401104.0	1775936924.176647	0.0	1.0	0.0	-1.0	-1.0	-1.0	1775936924.176647	peace	Peace	1	20260411_124810	Trigger
19530.945	45968.4	-5031.45	-15044.265	0.0	0.0	0.0	0.0	0.0	0.0	0.0	0.0	0.0	0.0	0.0	0.0	0.0	0.0	144.34482758620692	0.0	0.01770015	0.42248427	0.9020973	25.758879999999998	-0.50358	2.99096	401105.0	1775936924.180733	0.0	1.0	0.0	-1.0	-1.0	-1.0	1775936924.180733	peace	Peace	1	20260411_124810	Trigger
21233.565	44233.784999999996	-3148.65	-13332.42	0.0	0.0	0.0	0.0	0.0	0.0	0.0	0.0	0.0	0.0	0.0	0.0	0.0	0.0	144.34482758620692	0.0	0.01770015	0.42248427	0.9020973	25.758879999999998	-0.50358	2.99096	401106.0	1775936924.180781	0.0	1.0	0.0	-1.0	-1.0	-1.0	1775936924.180781	peace	Peace	1	20260411_124810	Trigger
24080.67	39874.049999999996	-11.655	-10446.119999999999	0.0	0.0	0.0	0.0	0.0	0.0	0.0	0.0	0.0	0.0	0.0	0.0	0.0	0.0	144.34482758620692	0.0	0.01770015	0.42248427	0.9020973	25.758879999999998	-0.50358	2.99096	401107.0	1775936924.184631	0.0	1.0	0.0	-1.0	-1.0	-1.0	1775936924.184631	peace	Peace	1	20260411_124810	Trigger
26546.265	35397.63	2730.105	-7907.94	0.0	0.0	0.0	0.0	0.0	0.0	0.0	0.0	0.0	0.0	0.0	0.0	0.0	0.0	144.34482758620692	0.0	0.01770015	0.42248427	0.9020973	25.758879999999998	-0.50358	2.99096	401108.0	1775936924.184655	0.0	1.0	0.0	-1.0	-1.0	-1.0	1775936924.184655	peace	Peace	1	20260411_124810	Trigger
27128.879999999997	33382.305	3433.9049999999997	-7234.469999999999	0.0	0.0	0.0	0.0	0.0	0.0	0.0	0.0	0.0	0.0	0.0	0.0	0.0	0.0	144.34482758620692	0.0	0.02832024	0.434874375	0.8944068900000001	27.45274	6.21082	1.63282	401109.0	1775936924.188638	0.0	1.0	0.0	-1.0	-1.0	-1.0	1775936924.188638	peace	Peace	1	20260411_124810	Trigger
25960.32	34501.455	2082.42	-8446.32	0.0	0.0	0.0	0.0	0.0	0.0	0.0	0.0	0.0	0.0	0.0	0.0	0.0	0.0	144.34482758620692	0.0	0.02832024	0.434874375	0.8944068900000001	27.45274	6.21082	1.63282	401110.0	1775936924.188661	0.0	1.0	0.0	-1.0	-1.0	-1.0	1775936924.188661	peace	Peace	1	20260411_124810	Trigger
23231.925	38614.814999999995	-927.27	-11205.765	0.0	0.0	0.0	0.0	0.0	0.0	0.0	0.0	0.0	0.0	0.0	0.0	0.0	0.0	144.34482758620692	0.0	0.02832024	0.434874375	0.8944068900000001	27.45274	6.21082	1.63282	401111.0	1775936924.192631	0.0	1.0	0.0	-1.0	-1.0	-1.0	1775936924.192631	peace	Peace	1	20260411_124810	Trigger
20616.795	43190.369999999995	-3827.43	-13896.359999999999	0.0	0.0	0.0	0.0	0.0	0.0	0.0	0.0	0.0	0.0	0.0	0.0	0.0	0.0	144.34482758620692	0.0	0.02832024	0.434874375	0.8944068900000001	27.45274	6.21082	1.63282	401112.0	1775936924.192658	0.0	1.0	0.0	-1.0	-1.0	-1.0	1775936924.192658	peace	Peace	1	20260411_124810	Trigger
19398.645	45825.705	-5126.22	-15128.099999999999	0.0	0.0	0.0	0.0	0.0	0.0	0.0	0.0	0.0	0.0	0.0	0.0	0.0	0.0	144.34482758620692	0.0	0.02832024	0.434874375	0.8944068900000001	27.45274	6.21082	1.63282	401113.0	1775936924.196705	0.0	1.0	0.0	-1.0	-1.0	-1.0	1775936924.196705	peace	Peace	1	20260411_124810	Trigger
20448.63	45241.335	-3989.745	-14104.664999999999	0.0	0.0	0.0	0.0	0.0	0.0	0.0	0.0	0.0	0.0	0.0	0.0	0.0	0.0	144.34482758620692	0.0	0.02832024	0.434874375	0.8944068900000001	27.45274	6.21082	1.63282	401114.0	1775936924.196728	0.0	1.0	0.0	-1.0	-1.0	-1.0	1775936924.196728	peace	Peace	1	20260411_124810	Trigger
23178.105	41420.34	-1012.68	-11368.529999999999	0.0	0.0	0.0	0.0	0.0	0.0	0.0	0.0	0.0	0.0	0.0	0.0	0.0	0.0	144.34482758620692	0.0	0.02832024	0.434874375	0.8944068900000001	27.45274	6.21082	1.63282	401115.0	1775936924.200745	0.0	1.0	0.0	-1.0	-1.0	-1.0	1775936924.200745	peace	Peace	1	20260411_124810	Trigger
25958.61	36682.83	2067.75	-8529.705	0.0	0.0	0.0	0.0	0.0	0.0	0.0	0.0	0.0	0.0	0.0	0.0	0.0	0.0	144.34482758620692	0.0	0.02832024	0.434874375	0.8944068900000001	27.45274	6.21082	1.63282	401116.0	1775936924.200769	0.0	1.0	0.0	-1.0	-1.0	-1.0	1775936924.200769	peace	Peace	1	20260411_124810	Trigger
27205.02	33712.604999999996	3529.62	-7172.325	0.0	0.0	0.0	0.0	0.0	0.0	0.0	0.0	0.0	0.0	0.0	0.0	0.0	0.0	144.34482758620692	0.0	0.02832024	0.434874375	0.8944068900000001	27.45274	6.21082	1.63282	401117.0	1775936924.204688	0.0	1.0	0.0	-1.0	-1.0	-1.0	1775936924.204688	peace	Peace	1	20260411_124810	Trigger
26560.035	33753.96	2797.38	-7820.73	0.0	0.0	0.0	0.0	0.0	0.0	0.0	0.0	0.0	0.0	0.0	0.0	0.0	0.0	144.34482758620692	0.0	0.02832024	0.434874375	0.8944068900000001	27.45274	6.21082	1.63282	401118.0	1775936924.204713	0.0	1.0	0.0	-1.0	-1.0	-1.0	1775936924.204713	peace	Peace	1	20260411_124810	Trigger
24132.96	37136.159999999996	92.88	-10288.484999999999	0.0	0.0	0.0	0.0	0.0	0.0	0.0	0.0	0.0	0.0	0.0	0.0	0.0	0.0	144.34482758620692	0.0	0.025207455	0.46313358	0.895200345	18.6172	3.69292	0.79352	401119.0	1775936924.208749	0.0	1.0	0.0	-1.0	-1.0	-1.0	1775936924.208749	peace	Peace	1	20260411_124810	Trigger
21293.864999999998	41929.424999999996	-3050.2349999999997	-13185.225	0.0	0.0	0.0	0.0	0.0	0.0	0.0	0.0	0.0	0.0	0.0	0.0	0.0	0.0	144.34482758620692	0.0	0.025207455	0.46313358	0.895200345	18.6172	3.69292	0.79352	401120.0	1775936924.208773	0.0	1.0	0.0	-1.0	-1.0	-1.0	1775936924.208773	peace	Peace	1	20260411_124810	Trigger
19611.045	45371.295	-4940.235	-14938.695	0.0	0.0	0.0	0.0	0.0	0.0	0.0	0.0	0.0	0.0	0.0	0.0	0.0	0.0	144.34482758620692	0.0	0.025207455	0.46313358	0.895200345	18.6172	3.69292	0.79352	401121.0	1775936924.212824	0.0	1.0	0.0	-1.0	-1.0	-1.0	1775936924.212824	peace	Peace	1	20260411_124810	Trigger
19895.715	45936.0	-4627.304999999999	-14667.3	0.0	0.0	0.0	0.0	0.0	0.0	0.0	0.0	0.0	0.0	0.0	0.0	0.0	0.0	144.34482758620692	0.0	0.025207455	0.46313358	0.895200345	18.6172	3.69292	0.79352	401122.0	1775936924.212848	0.0	1.0	0.0	-1.0	-1.0	-1.0	1775936924.212848	peace	Peace	1	20260411_124810	Trigger
22263.48	42909.705	-2083.455	-12314.789999999999	0.0	0.0	0.0	0.0	0.0	0.0	0.0	0.0	0.0	0.0	0.0	0.0	0.0	0.0	144.34482758620692	0.0	0.025207455	0.46313358	0.895200345	18.6172	3.69292	0.79352	401123.0	1775936924.216696	0.0	1.0	0.0	-1.0	-1.0	-1.0	1775936924.216696	peace	Peace	1	20260411_124810	Trigger
25121.25	38215.71	1111.23	-9358.83	0.0	0.0	0.0	0.0	0.0	0.0	0.0	0.0	0.0	0.0	0.0	0.0	0.0	0.0	144.34482758620692	0.0	0.025207455	0.46313358	0.895200345	18.6172	3.69292	0.79352	401124.0	1775936924.21672	0.0	1.0	0.0	-1.0	-1.0	-1.0	1775936924.21672	peace	Peace	1	20260411_124810	Trigger
26994.914999999997	34398.225	3250.2599999999998	-7376.94	0.0	0.0	0.0	0.0	0.0	0.0	0.0	0.0	0.0	0.0	0.0	0.0	0.0	0.0	144.34482758620692	0.0	0.025207455	0.46313358	0.895200345	18.6172	3.69292	0.79352	401125.0	1775936924.22084	0.0	1.0	0.0	-1.0	-1.0	-1.0	1775936924.22084	peace	Peace	1	20260411_124810	Trigger
26928.945	33414.93	3184.92	-7406.955	0.0	0.0	0.0	0.0	0.0	0.0	0.0	0.0	0.0	0.0	0.0	0.0	0.0	0.0	144.34482758620692	0.0	0.025207455	0.46313358	0.895200345	18.6172	3.69292	0.79352	401126.0	1775936924.220864	0.0	1.0	0.0	-1.0	-1.0	-1.0	1775936924.220864	peace	Peace	1	20260411_124810	Trigger
24984.765	35807.22	976.905	-9422.685	0.0	0.0	0.0	0.0	0.0	0.0	0.0	0.0	0.0	0.0	0.0	0.0	0.0	0.0	144.34482758620692	0.0	0.025207455	0.46313358	0.895200345	18.6172	3.69292	0.79352	401127.0	1775936924.226137	0.0	1.0	0.0	-1.0	-1.0	-1.0	1775936924.226137	peace	Peace	1	20260411_124810	Trigger
22121.594999999998	40524.075	-2192.85	-12372.525	0.0	0.0	0.0	0.0	0.0	0.0	0.0	0.0	0.0	0.0	0.0	0.0	0.0	0.0	144.34482758620692	0.0	0.025207455	0.46313358	0.895200345	18.6172	3.69292	0.79352	401128.0	1775936924.226162	0.0	1.0	0.0	-1.0	-1.0	-1.0	1775936924.226162	peace	Peace	1	20260411_124810	Trigger
19943.37	44650.799999999996	-4628.79	-14625.269999999999	0.0	0.0	0.0	0.0	0.0	0.0	0.0	0.0	0.0	0.0	0.0	0.0	0.0	0.0	144.34482758620692	0.0	0.012390105	0.482481675	0.90392835	11.0635	-3.44876	4.62378	401129.0	1775936924.228835	0.0	1.0	0.0	-1.0	-1.0	-1.0	1775936924.228835	peace	Peace	1	20260411_124810	Trigger
19584.45	46284.119999999995	-5021.235	-14998.23	0.0	0.0	0.0	0.0	0.0	0.0	0.0	0.0	0.0	0.0	0.0	0.0	0.0	0.0	144.34482758620692	0.0	0.012390105	0.482481675	0.90392835	11.0635	-3.44876	4.62378	401130.0	1775936924.228863	0.0	1.0	0.0	-1.0	-1.0	-1.0	1775936924.228863	peace	Peace	1	20260411_124810	Trigger
21384.405	44305.38	-3046.68	-13185.404999999999	0.0	0.0	0.0	0.0	0.0	0.0	0.0	0.0	0.0	0.0	0.0	0.0	0.0	0.0	144.34482758620692	0.0	0.012390105	0.482481675	0.90392835	11.0635	-3.44876	4.62378	401131.0	1775936924.232787	0.0	1.0	0.0	-1.0	-1.0	-1.0	1775936924.232787	peace	Peace	1	20260411_124810	Trigger
24253.379999999997	39809.385	126.49499999999999	-10268.73	0.0	0.0	0.0	0.0	0.0	0.0	0.0	0.0	0.0	0.0	0.0	0.0	0.0	0.0	144.34482758620692	0.0	0.012390105	0.482481675	0.90392835	11.0635	-3.44876	4.62378	401132.0	1775936924.232812	0.0	1.0	0.0	-1.0	-1.0	-1.0	1775936924.232812	peace	Peace	1	20260411_124810	Trigger
26657.954999999998	35336.295	2852.64	-7757.19	0.0	0.0	0.0	0.0	0.0	0.0	0.0	0.0	0.0	0.0	0.0	0.0	0.0	0.0	144.34482758620692	0.0	0.012390105	0.482481675	0.90392835	11.0635	-3.44876	4.62378	401133.0	1775936924.236781	0.0	1.0	0.0	-1.0	-1.0	-1.0	1775936924.236781	peace	Peace	1	20260411_124810	Trigger
27272.16	33387.21	3596.085	-7054.065	0.0	0.0	0.0	0.0	0.0	0.0	0.0	0.0	0.0	0.0	0.0	0.0	0.0	0.0	144.34482758620692	0.0	0.012390105	0.482481675	0.90392835	11.0635	-3.44876	4.62378	401134.0	1775936924.236805	0.0	1.0	0.0	-1.0	-1.0	-1.0	1775936924.236805	peace	Peace	1	20260411_124810	Trigger
25981.965	34696.125	2054.025	-8431.244999999999	0.0	0.0	0.0	0.0	0.0	0.0	0.0	0.0	0.0	0.0	0.0	0.0	0.0	0.0	144.34482758620692	0.0	0.012390105	0.482481675	0.90392835	11.0635	-3.44876	4.62378	401135.0	1775936924.240789	0.0	1.0	0.0	-1.0	-1.0	-1.0	1775936924.240789	peace	Peace	1	20260411_124810	Trigger
23053.86	39045.78	-1220.49	-11404.035	0.0	0.0	0.0	0.0	0.0	0.0	0.0	0.0	0.0	0.0	0.0	0.0	0.0	0.0	144.34482758620692	0.0	0.012390105	0.482481675	0.90392835	11.0635	-3.44876	4.62378	401136.0	1775936924.240813	0.0	1.0	0.0	-1.0	-1.0	-1.0	1775936924.240813	peace	Peace	1	20260411_124810	Trigger
20262.555	43717.95	-4271.8949999999995	-14207.67	0.0	0.0	0.0	0.0	0.0	0.0	0.0	0.0	0.0	0.0	0.0	0.0	0.0	0.0	144.34482758620692	0.0	0.012390105	0.482481675	0.90392835	11.0635	-3.44876	4.62378	401137.0	1775936924.244926	0.0	1.0	0.0	-1.0	-1.0	-1.0	1775936924.244926	peace	Peace	1	20260411_124810	Trigger
19318.005	46293.705	-5319.45	-15232.769999999999	0.0	0.0	0.0	0.0	0.0	0.0	0.0	0.0	0.0	0.0	0.0	0.0	0.0	0.0	144.34482758620692	0.0	0.012390105	0.482481675	0.90392835	11.0635	-3.44876	4.62378	401138.0	1775936924.244959	0.0	1.0	0.0	-1.0	-1.0	-1.0	1775936924.244959	peace	Peace	1	20260411_124810	Trigger
20677.274999999998	45511.29	-3925.17	-14038.605	0.0	0.0	0.0	0.0	0.0	0.0	0.0	0.0	0.0	0.0	0.0	0.0	0.0	0.0	144.34482758620692	0.0	0.01428219	0.475279545	0.8933692950000001	11.094019999999999	-3.8455199999999996	5.7225	401139.0	1775936924.24893	0.0	1.0	0.0	-1.0	-1.0	-1.0	1775936924.24893	peace	Peace	1	20260411_124810	Trigger
23417.684999999998	41496.57	-854.01	-11192.715	0.0	0.0	0.0	0.0	0.0	0.0	0.0	0.0	0.0	0.0	0.0	0.0	0.0	0.0	144.34482758620692	0.0	0.01428219	0.475279545	0.8933692950000001	11.094019999999999	-3.8455199999999996	5.7225	401140.0	1775936924.248957	0.0	1.0	0.0	-1.0	-1.0	-1.0	1775936924.248957	peace	Peace	1	20260411_124810	Trigger
26077.364999999998	36671.174999999996	2195.685	-8339.94	0.0	0.0	0.0	0.0	0.0	0.0	0.0	0.0	0.0	0.0	0.0	0.0	0.0	0.0	144.34482758620692	0.0	0.01428219	0.475279545	0.8933692950000001	11.094019999999999	-3.8455199999999996	5.7225	401141.0	1775936924.252846	0.0	1.0	0.0	-1.0	-1.0	-1.0	1775936924.252846	peace	Peace	1	20260411_124810	Trigger
27365.985	33736.905	3610.4849999999997	-7004.115	0.0	0.0	0.0	0.0	0.0	0.0	0.0	0.0	0.0	0.0	0.0	0.0	0.0	0.0	144.34482758620692	0.0	0.01428219	0.475279545	0.8933692950000001	11.094019999999999	-3.8455199999999996	5.7225	401142.0	1775936924.252882	0.0	1.0	0.0	-1.0	-1.0	-1.0	1775936924.252882	peace	Peace	1	20260411_124810	Trigger
26703.585	33943.86	2840.805	-7698.599999999999	0.0	0.0	0.0	0.0	0.0	0.0	0.0	0.0	0.0	0.0	0.0	0.0	0.0	0.0	144.34482758620692	0.0	0.01428219	0.475279545	0.8933692950000001	11.094019999999999	-3.8455199999999996	5.7225	401143.0	1775936924.25709	0.0	1.0	0.0	-1.0	-1.0	-1.0	1775936924.25709	peace	Peace	1	20260411_124810	Trigger
24048.405	37619.325	-38.745	-10359.404999999999	0.0	0.0	0.0	0.0	0.0	0.0	0.0	0.0	0.0	0.0	0.0	0.0	0.0	0.0	144.68965517241378	0.0	0.01428219	0.475279545	0.8933692950000001	11.094019999999999	-3.8455199999999996	5.7225	401144.0	1775936924.257124	0.0	1.0	0.0	-1.0	-1.0	-1.0	1775936924.257124	peace	Peace	1	20260411_124810	Trigger
21046.995	42593.4	-3341.6099999999997	-13425.39	0.0	0.0	0.0	0.0	0.0	0.0	0.0	0.0	0.0	0.0	0.0	0.0	0.0	0.0	144.68965517241378	0.0	0.01428219	0.475279545	0.8933692950000001	11.094019999999999	-3.8455199999999996	5.7225	401145.0	1775936924.261743	0.0	1.0	0.0	-1.0	-1.0	-1.0	1775936924.261743	peace	Peace	1	20260411_124810	Trigger
19451.43	46057.365	-5178.78	-15144.974999999999	0.0	0.0	0.0	0.0	0.0	0.0	0.0	0.0	0.0	0.0	0.0	0.0	0.0	0.0	144.68965517241378	0.0	0.01428219	0.475279545	0.8933692950000001	11.094019999999999	-3.8455199999999996	5.7225	401146.0	1775936924.26177	0.0	1.0	0.0	-1.0	-1.0	-1.0	1775936924.26177	peace	Peace	1	20260411_124810	Trigger
19789.02	46535.58	-4763.97	-14784.39	0.0	0.0	0.0	0.0	0.0	0.0	0.0	0.0	0.0	0.0	0.0	0.0	0.0	0.0	144.68965517241378	0.0	0.01428219	0.475279545	0.8933692950000001	11.094019999999999	-3.8455199999999996	5.7225	401147.0	1775936924.264912	0.0	1.0	0.0	-1.0	-1.0	-1.0	1775936924.264912	peace	Peace	1	20260411_124810	Trigger
22269.375	43209.494999999995	-2023.155	-12248.145	0.0	0.0	0.0	0.0	0.0	0.0	0.0	0.0	0.0	0.0	0.0	0.0	0.0	0.0	144.68965517241378	0.0	0.01428219	0.475279545	0.8933692950000001	11.094019999999999	-3.8455199999999996	5.7225	401148.0	1775936924.264937	0.0	1.0	0.0	-1.0	-1.0	-1.0	1775936924.264937	peace	Peace	1	20260411_124810	Trigger
25238.385	38321.685	1190.0249999999999	-9282.555	0.0	0.0	0.0	0.0	0.0	0.0	0.0	0.0	0.0	0.0	0.0	0.0	0.0	0.0	144.68965517241378	0.0	0.024108825	0.490782435	0.87328878	-3.2198599999999997	9.52224	16.72496	401149.0	1775936924.270309	0.0	1.0	0.0	-1.0	-1.0	-1.0	1775936924.270309	peace	Peace	1	20260411_124810	Trigger
27087.3	34443.18	3263.1299999999997	-7315.29	0.0	0.0	0.0	0.0	0.0	0.0	0.0	0.0	0.0	0.0	0.0	0.0	0.0	0.0	144.68965517241378	0.0	0.024108825	0.490782435	0.87328878	-3.2198599999999997	9.52224	16.72496	401150.0	1775936924.270336	0.0	1.0	0.0	-1.0	-1.0	-1.0	1775936924.270336	peace	Peace	1	20260411_124810	Trigger
27048.69	33588.0	3143.52	-7374.33	0.0	0.0	0.0	0.0	0.0	0.0	0.0	0.0	0.0	0.0	0.0	0.0	0.0	0.0	144.68965517241378	0.0	0.024108825	0.490782435	0.87328878	-3.2198599999999997	9.52224	16.72496	401151.0	1775936924.272879	0.0	1.0	0.0	-1.0	-1.0	-1.0	1775936924.272879	peace	Peace	1	20260411_124810	Trigger
24969.105	36340.604999999996	799.785	-9520.965	0.0	0.0	0.0	0.0	0.0	0.0	0.0	0.0	0.0	0.0	0.0	0.0	0.0	0.0	144.68965517241378	0.0	0.024108825	0.490782435	0.87328878	-3.2198599999999997	9.52224	16.72496	401152.0	1775936924.272903	0.0	1.0	0.0	-1.0	-1.0	-1.0	1775936924.272903	peace	Peace	1	20260411_124810	Trigger
21936.465	41338.125	-2481.435	-12587.175	0.0	0.0	0.0	0.0	0.0	0.0	0.0	0.0	0.0	0.0	0.0	0.0	0.0	0.0	144.68965517241378	0.0	0.024108825	0.490782435	0.87328878	-3.2198599999999997	9.52224	16.72496	401153.0	1775936924.276886	0.0	1.0	0.0	-1.0	-1.0	-1.0	1775936924.276886	peace	Peace	1	20260411_124810	Trigger
19704.96	45519.479999999996	-4872.96	-14819.445	0.0	0.0	0.0	0.0	0.0	0.0	0.0	0.0	0.0	0.0	0.0	0.0	0.0	0.0	144.68965517241378	0.0	0.024108825	0.490782435	0.87328878	-3.2198599999999997	9.52224	16.72496	401154.0	1775936924.27691	0.0	1.0	0.0	-1.0	-1.0	-1.0	1775936924.27691	peace	Peace	1	20260411_124810	Trigger
19431.989999999998	47028.06	-5190.389999999999	-15155.73	0.0	0.0	0.0	0.0	0.0	0.0	0.0	0.0	0.0	0.0	0.0	0.0	0.0	0.0	144.68965517241378	0.0	0.024108825	0.490782435	0.87328878	-3.2198599999999997	9.52224	16.72496	401155.0	1775936924.282772	0.0	1.0	0.0	-1.0	-1.0	-1.0	1775936924.282772	peace	Peace	1	20260411_124810	Trigger
21458.385	44751.284999999996	-3010.725	-13169.97	0.0	0.0	0.0	0.0	0.0	0.0	0.0	0.0	0.0	0.0	0.0	0.0	0.0	0.0	144.68965517241378	0.0	0.024108825	0.490782435	0.87328878	-3.2198599999999997	9.52224	16.72496	401156.0	1775936924.282804	0.0	1.0	0.0	-1.0	-1.0	-1.0	1775936924.282804	peace	Peace	1	20260411_124810	Trigger
24437.43	40028.13	281.655	-10134.404999999999	0.0	0.0	0.0	0.0	0.0	0.0	0.0	0.0	0.0	0.0	0.0	0.0	0.0	0.0	144.68965517241378	0.0	0.024108825	0.490782435	0.87328878	-3.2198599999999997	9.52224	16.72496	401157.0	1775936924.284931	0.0	1.0	0.0	-1.0	-1.0	-1.0	1775936924.284931	peace	Peace	1	20260411_124810	Trigger
26883.989999999998	35438.625	3009.33	-7621.065	0.0	0.0	0.0	0.0	0.0	0.0	0.0	0.0	0.0	0.0	0.0	0.0	0.0	0.0	144.68965517241378	0.0	0.024108825	0.490782435	0.87328878	-3.2198599999999997	9.52224	16.72496	401158.0	1775936924.284956	0.0	1.0	0.0	-1.0	-1.0	-1.0	1775936924.284956	peace	Peace	1	20260411_124810	Trigger
27413.684999999998	33563.655	3636.9449999999997	-7027.0199999999995	0.0	0.0	0.0	0.0	0.0	0.0	0.0	0.0	0.0	0.0	0.0	0.0	0.0	0.0	144.68965517241378	0.0	0.021057075	0.538145595	0.890805825	-33.35836	2.19744	25.66732	401159.0	1775936924.28896	0.0	1.0	0.0	-1.0	-1.0	-1.0	1775936924.28896	peace	Peace	1	20260411_124810	Trigger
25845.75	35176.185	1884.2849999999999	-8615.789999999999	0.0	0.0	0.0	0.0	0.0	0.0	0.0	0.0	0.0	0.0	0.0	0.0	0.0	0.0	144.68965517241378	0.0	0.021057075	0.538145595	0.890805825	-33.35836	2.19744	25.66732	401160.0	1775936924.288992	0.0	1.0	0.0	-1.0	-1.0	-1.0	1775936924.288992	peace	Peace	1	20260411_124810	Trigger
22795.739999999998	39844.575	-1531.8899999999999	-11745.675	0.0	0.0	0.0	0.0	0.0	0.0	0.0	0.0	0.0	0.0	0.0	0.0	0.0	0.0	144.68965517241378	0.0	0.021057075	0.538145595	0.890805825	-33.35836	2.19744	25.66732	401161.0	1775936924.294577	0.0	1.0	0.0	-1.0	-1.0	-1.0	1775936924.294577	peace	Peace	1	20260411_124810	Trigger
20154.285	44590.095	-4441.679999999999	-14442.39	0.0	0.0	0.0	0.0	0.0	0.0	0.0	0.0	0.0	0.0	0.0	0.0	0.0	0.0	144.68965517241378	0.0	0.021057075	0.538145595	0.890805825	-33.35836	2.19744	25.66732	401162.0	1775936924.294604	0.0	1.0	0.0	-1.0	-1.0	-1.0	1775936924.294604	peace	Peace	1	20260411_124810	Trigger
19198.53	47080.034999999996	-5472.495	-15433.695	0.0	0.0	0.0	0.0	0.0	0.0	0.0	0.0	0.0	0.0	0.0	0.0	0.0	0.0	144.68965517241378	0.0	0.021057075	0.538145595	0.890805825	-33.35836	2.19744	25.66732	401163.0	1775936924.296988	0.0	1.0	0.0	-1.0	-1.0	-1.0	1775936924.296988	peace	Peace	1	20260411_124810	Trigger
20592.27	45996.525	-3964.5899999999997	-14064.48	0.0	0.0	0.0	0.0	0.0	0.0	0.0	0.0	0.0	0.0	0.0	0.0	0.0	0.0	144.68965517241378	0.0	0.021057075	0.538145595	0.890805825	-33.35836	2.19744	25.66732	401164.0	1775936924.297013	0.0	1.0	0.0	-1.0	-1.0	-1.0	1775936924.297013	peace	Peace	1	20260411_124810	Trigger
23499.765	41715.09	-788.76	-11114.414999999999	0.0	0.0	0.0	0.0	0.0	0.0	0.0	0.0	0.0	0.0	0.0	0.0	0.0	0.0	144.68965517241378	0.0	0.021057075	0.538145595	0.890805825	-33.35836	2.19744	25.66732	401165.0	1775936924.300972	0.0	1.0	0.0	-1.0	-1.0	-1.0	1775936924.300972	peace	Peace	1	20260411_124810	Trigger
26293.32	36716.354999999996	2282.85	-8262.09	0.0	0.0	0.0	0.0	0.0	0.0	0.0	0.0	0.0	0.0	0.0	0.0	0.0	0.0	144.68965517241378	0.0	0.021057075	0.538145595	0.890805825	-33.35836	2.19744	25.66732	401166.0	1775936924.300997	0.0	1.0	0.0	-1.0	-1.0	-1.0	1775936924.300997	peace	Peace	1	20260411_124810	Trigger
27514.44	33842.88	3676.185	-6969.915	0.0	0.0	0.0	0.0	0.0	0.0	0.0	0.0	0.0	0.0	0.0	0.0	0.0	0.0	144.68965517241378	0.0	0.021057075	0.538145595	0.890805825	-33.35836	2.19744	25.66732	401167.0	1775936924.305038	0.0	1.0	0.0	-1.0	-1.0	-1.0	1775936924.305038	peace	Peace	1	20260411_124810	Trigger
26640.27	34317.945	2672.0099999999998	-7880.04	0.0	0.0	0.0	0.0	0.0	0.0	0.0	0.0	0.0	0.0	0.0	0.0	0.0	0.0	144.68965517241378	0.0	0.021057075	0.538145595	0.890805825	-33.35836	2.19744	25.66732	401168.0	1775936924.305062	0.0	1.0	0.0	-1.0	-1.0	-1.0	1775936924.305062	peace	Peace	1	20260411_124810	Trigger
23809.545	38361.735	-448.515	-10733.805	0.0	0.0	0.0	0.0	0.0	0.0	0.0	0.0	0.0	0.0	0.0	0.0	0.0	0.0	144.68965517241378	0.0	0.02136225	0.55517436	0.899961075	-45.94786	1.3734	34.4876	401169.0	1775936924.309021	0.0	1.0	0.0	-1.0	-1.0	-1.0	1775936924.309021	peace	Peace	1	20260411_124810	Trigger
20782.079999999998	43406.82	-3709.665	-13720.455	0.0	0.0	0.0	0.0	0.0	0.0	0.0	0.0	0.0	0.0	0.0	0.0	0.0	0.0	144.68965517241378	0.0	0.02136225	0.55517436	0.899961075	-45.94786	1.3734	34.4876	401170.0	1775936924.309046	0.0	1.0	0.0	-1.0	-1.0	-1.0	1775936924.309046	peace	Peace	1	20260411_124810	Trigger
19256.355	46728.36	-5390.955	-15296.535	0.0	0.0	0.0	0.0	0.0	0.0	0.0	0.0	0.0	0.0	0.0	0.0	0.0	0.0	144.68965517241378	0.0	0.02136225	0.55517436	0.899961075	-45.94786	1.3734	34.4876	401171.0	1775936924.312957	0.0	1.0	0.0	-1.0	-1.0	-1.0	1775936924.312957	peace	Peace	1	20260411_124810	Trigger
19912.995	46868.85	-4736.745	-14721.885	0.0	0.0	0.0	0.0	0.0	0.0	0.0	0.0	0.0	0.0	0.0	0.0	0.0	0.0	144.68965517241378	0.0	0.02136225	0.55517436	0.899961075	-45.94786	1.3734	34.4876	401172.0	1775936924.312982	0.0	1.0	0.0	-1.0	-1.0	-1.0	1775936924.312982	peace	Peace	1	20260411_124810	Trigger
22544.594999999998	43287.255	-1818.72	-12056.355	0.0	0.0	0.0	0.0	0.0	0.0	0.0	0.0	0.0	0.0	0.0	0.0	0.0	0.0	144.68965517241378	0.0	0.02136225	0.55517436	0.899961075	-45.94786	1.3734	34.4876	401173.0	1775936924.317088	0.0	1.0	0.0	-1.0	-1.0	-1.0	1775936924.317088	peace	Peace	1	20260411_124810	Trigger
25512.434999999998	38235.195	1443.915	-9051.57	0.0	0.0	0.0	0.0	0.0	0.0	0.0	0.0	0.0	0.0	0.0	0.0	0.0	0.0	144.68965517241378	0.0	0.02136225	0.55517436	0.899961075	-45.94786	1.3734	34.4876	401174.0	1775936924.317113	0.0	1.0	0.0	-1.0	-1.0	-1.0	1775936924.317113	peace	Peace	1	20260411_124810	Trigger
27382.95	34431.21	3470.895	-7153.74	0.0	0.0	0.0	0.0	0.0	0.0	0.0	0.0	0.0	0.0	0.0	0.0	0.0	0.0	144.68965517241378	0.0	0.02136225	0.55517436	0.899961075	-45.94786	1.3734	34.4876	401175.0	1775936924.321062	0.0	1.0	0.0	-1.0	-1.0	-1.0	1775936924.321062	peace	Peace	1	20260411_124810	Trigger
27148.004999999997	33810.705	3189.645	-7360.11	0.0	0.0	0.0	0.0	0.0	0.0	0.0	0.0	0.0	0.0	0.0	0.0	0.0	0.0	144.68965517241378	0.0	0.02136225	0.55517436	0.899961075	-45.94786	1.3734	34.4876	401176.0	1775936924.321089	0.0	1.0	0.0	-1.0	-1.0	-1.0	1775936924.321089	peace	Peace	1	20260411_124810	Trigger
24746.67	36920.79	536.67	-9768.24	0.0	0.0	0.0	0.0	0.0	0.0	0.0	0.0	0.0	0.0	0.0	0.0	0.0	0.0	144.68965517241378	0.0	0.02136225	0.55517436	0.899961075	-45.94786	1.3734	34.4876	401177.0	1775936924.324995	0.0	1.0	0.0	-1.0	-1.0	-1.0	1775936924.324995	peace	Peace	1	20260411_124810	Trigger
21603.78	41997.6	-2849.7599999999998	-12888.045	0.0	0.0	0.0	0.0	0.0	0.0	0.0	0.0	0.0	0.0	0.0	0.0	0.0	0.0	144.68965517241378	0.0	0.02136225	0.55517436	0.899961075	-45.94786	1.3734	34.4876	401178.0	1775936924.32502	0.0	1.0	0.0	-1.0	-1.0	-1.0	1775936924.32502	peace	Peace	1	20260411_124810	Trigger
19397.745	46023.525	-5292.72	-15166.439999999999	0.0	0.0	0.0	0.0	0.0	0.0	0.0	0.0	0.0	0.0	0.0	0.0	0.0	0.0	144.68965517241378	0.0	0.020690865	0.535704195	0.92602302	-60.917919999999995	-19.10552	38.13474	401179.0	1775936924.329082	0.0	1.0	0.0	-1.0	-1.0	-1.0	1775936924.329082	peace	Peace	1	20260411_124810	Trigger
19275.66	47311.244999999995	-5474.385	-15391.89	0.0	0.0	0.0	0.0	0.0	0.0	0.0	0.0	0.0	0.0	0.0	0.0	0.0	0.0	144.68965517241378	0.0	0.020690865	0.535704195	0.92602302	-60.917919999999995	-19.10552	38.13474	401180.0	1775936924.329106	0.0	1.0	0.0	-1.0	-1.0	-1.0	1775936924.329106	peace	Peace	1	20260411_124810	Trigger
21759.704999999998	44740.71	-2793.1949999999997	-12929.4	0.0	0.0	0.0	0.0	0.0	0.0	0.0	0.0	0.0	0.0	0.0	0.0	0.0	0.0	144.68965517241378	0.0	0.020690865	0.535704195	0.92602302	-60.917919999999995	-19.10552	38.13474	401181.0	1775936924.334643	0.0	1.0	0.0	-1.0	-1.0	-1.0	1775936924.334643	peace	Peace	1	20260411_124810	Trigger
24901.875	39930.255	712.665	-9695.744999999999	0.0	0.0	0.0	0.0	0.0	0.0	0.0	0.0	0.0	0.0	0.0	0.0	0.0	0.0	144.68965517241378	0.0	0.020690865	0.535704195	0.92602302	-60.917919999999995	-19.10552	38.13474	401182.0	1775936924.334667	0.0	1.0	0.0	-1.0	-1.0	-1.0	1775936924.334667	peace	Peace	1	20260411_124810	Trigger
27189.629999999997	35423.235	3171.24	-7382.115	0.0	0.0	0.0	0.0	0.0	0.0	0.0	0.0	0.0	0.0	0.0	0.0	0.0	0.0	144.68965517241378	0.0	0.020690865	0.535704195	0.92602302	-60.917919999999995	-19.10552	38.13474	401183.0	1775936924.337118	0.0	1.0	0.0	-1.0	-1.0	-1.0	1775936924.337118	peace	Peace	1	20260411_124810	Trigger
27456.21	33787.125	3537.6299999999997	-7000.74	0.0	0.0	0.0	0.0	0.0	0.0	0.0	0.0	0.0	0.0	0.0	0.0	0.0	0.0	144.68965517241378	0.0	0.020690865	0.535704195	0.92602302	-60.917919999999995	-19.10552	38.13474	401184.0	1775936924.337142	0.0	1.0	0.0	-1.0	-1.0	-1.0	1775936924.337142	peace	Peace	1	20260411_124810	Trigger
25628.94	35784.405	1523.205	-8821.44	0.0	0.0	0.0	0.0	0.0	0.0	0.0	0.0	0.0	0.0	0.0	0.0	0.0	0.0	144.68965517241378	0.0	0.020690865	0.535704195	0.92602302	-60.917919999999995	-19.10552	38.13474	401185.0	1775936924.341093	0.0	1.0	0.0	-1.0	-1.0	-1.0	1775936924.341093	peace	Peace	1	20260411_124810	Trigger
22493.7	40590.0	-1926.54	-12004.02	0.0	0.0	0.0	0.0	0.0	0.0	0.0	0.0	0.0	0.0	0.0	0.0	0.0	0.0	144.68965517241378	0.0	0.020690865	0.535704195	0.92602302	-60.917919999999995	-19.10552	38.13474	401186.0	1775936924.341117	0.0	1.0	0.0	-1.0	-1.0	-1.0	1775936924.341117	peace	Peace	1	20260411_124810	Trigger
20058.885	45101.97	-4653.495	-14532.119999999999	0.0	0.0	0.0	0.0	0.0	0.0	0.0	0.0	0.0	0.0	0.0	0.0	0.0	0.0	144.68965517241378	0.0	0.020690865	0.535704195	0.92602302	-60.917919999999995	-19.10552	38.13474	401187.0	1775936924.34506	0.0	1.0	0.0	-1.0	-1.0	-1.0	1775936924.34506	peace	Peace	1	20260411_124810	Trigger
19244.25	47327.085	-5504.8949999999995	-15324.885	0.0	0.0	0.0	0.0	0.0	0.0	0.0	0.0	0.0	0.0	0.0	0.0	0.0	0.0	144.68965517241378	0.0	0.020690865	0.535704195	0.92602302	-60.917919999999995	-19.10552	38.13474	401188.0	1775936924.345084	0.0	1.0	0.0	-1.0	-1.0	-1.0	1775936924.345084	peace	Peace	1	20260411_124810	Trigger
20778.39	45932.4	-3868.02	-13820.715	0.0	0.0	0.0	0.0	0.0	0.0	0.0	0.0	0.0	0.0	0.0	0.0	0.0	0.0	144.68965517241378	0.0	0.026000910000000002	0.45226935	0.950986335	-56.675639999999994	-34.54864	13.90186	401189.0	1775936924.349127	0.0	1.0	0.0	-1.0	-1.0	-1.0	1775936924.349127	peace	Peace	1	20260411_124810	Trigger
23718.239999999998	41598.72	-709.515	-10950.164999999999	0.0	0.0	0.0	0.0	0.0	0.0	0.0	0.0	0.0	0.0	0.0	0.0	0.0	0.0	144.68965517241378	0.0	0.026000910000000002	0.45226935	0.950986335	-56.675639999999994	-34.54864	13.90186	401190.0	1775936924.349151	0.0	1.0	0.0	-1.0	-1.0	-1.0	1775936924.349151	peace	Peace	1	20260411_124810	Trigger
26581.41	36782.46	2307.105	-8183.474999999999	0.0	0.0	0.0	0.0	0.0	0.0	0.0	0.0	0.0	0.0	0.0	0.0	0.0	0.0	144.68965517241378	0.0	0.026000910000000002	0.45226935	0.950986335	-56.675639999999994	-34.54864	13.90186	401191.0	1775936924.353131	0.0	1.0	0.0	-1.0	-1.0	-1.0	1775936924.353131	peace	Peace	1	20260411_124810	Trigger
27474.21	34149.42	3621.1949999999997	-6899.94	0.0	0.0	0.0	0.0	0.0	0.0	0.0	0.0	0.0	0.0	0.0	0.0	0.0	0.0	144.68965517241378	0.0	0.026000910000000002	0.45226935	0.950986335	-56.675639999999994	-34.54864	13.90186	401192.0	1775936924.353155	0.0	1.0	0.0	-1.0	-1.0	-1.0	1775936924.353155	peace	Peace	1	20260411_124810	Trigger
26402.219999999998	34954.56	2382.255	-8018.235	0.0	0.0	0.0	0.0	0.0	0.0	0.0	0.0	0.0	0.0	0.0	0.0	0.0	0.0	144.68965517241378	0.0	0.026000910000000002	0.45226935	0.950986335	-56.675639999999994	-34.54864	13.90186	401193.0	1775936924.357124	0.0	1.0	0.0	-1.0	-1.0	-1.0	1775936924.357124	peace	Peace	1	20260411_124810	Trigger
23448.375	39181.77	-900.18	-11040.705	0.0	0.0	0.0	0.0	0.0	0.0	0.0	0.0	0.0	0.0	0.0	0.0	0.0	0.0	144.68965517241378	0.0	0.026000910000000002	0.45226935	0.950986335	-56.675639999999994	-34.54864	13.90186	401194.0	1775936924.357148	0.0	1.0	0.0	-1.0	-1.0	-1.0	1775936924.357148	peace	Peace	1	20260411_124810	Trigger
20628.45	43996.95	-4035.1949999999997	-13935.42	0.0	0.0	0.0	0.0	0.0	0.0	0.0	0.0	0.0	0.0	0.0	0.0	0.0	0.0	144.68965517241378	0.0	0.026000910000000002	0.45226935	0.950986335	-56.675639999999994	-34.54864	13.90186	401195.0	1775936924.361177	0.0	1.0	0.0	-1.0	-1.0	-1.0	1775936924.361177	peace	Peace	1	20260411_124810	Trigger
19272.149999999998	46982.52	-5517.09	-15311.43	0.0	0.0	0.0	0.0	0.0	0.0	0.0	0.0	0.0	0.0	0.0	0.0	0.0	0.0	144.68965517241378	0.0	0.026000910000000002	0.45226935	0.950986335	-56.675639999999994	-34.54864	13.90186	401196.0	1775936924.361202	0.0	1.0	0.0	-1.0	-1.0	-1.0	1775936924.361202	peace	Peace	1	20260411_124810	Trigger
20130.344999999998	46843.335	-4531.59	-14425.019999999999	0.0	0.0	0.0	0.0	0.0	0.0	0.0	0.0	0.0	0.0	0.0	0.0	0.0	0.0	144.68965517241378	0.0	0.026000910000000002	0.45226935	0.950986335	-56.675639999999994	-34.54864	13.90186	401197.0	1775936924.36517	0.0	1.0	0.0	-1.0	-1.0	-1.0	1775936924.36517	peace	Peace	1	20260411_124810	Trigger
22864.86	43178.67	-1562.895	-11695.904999999999	0.0	0.0	0.0	0.0	0.0	0.0	0.0	0.0	0.0	0.0	0.0	0.0	0.0	0.0	144.68965517241378	0.0	0.026000910000000002	0.45226935	0.950986335	-56.675639999999994	-34.54864	13.90186	401198.0	1775936924.365194	0.0	1.0	0.0	-1.0	-1.0	-1.0	1775936924.365194	peace	Peace	1	20260411_124810	Trigger
25622.055	38399.58	1449.36	-8929.935	0.0	0.0	0.0	0.0	0.0	0.0	0.0	0.0	0.0	0.0	0.0	0.0	0.0	0.0	144.68965517241378	0.0	0.025695735	0.373717305	0.99255117	-51.74666	-61.98612	2.2127	401199.0	1775936924.369234	0.0	1.0	0.0	-1.0	-1.0	-1.0	1775936924.369234	peace	Peace	1	20260411_124810	Trigger
27345.555	34836.075	3331.395	-7182.179999999999	0.0	0.0	0.0	0.0	0.0	0.0	0.0	0.0	0.0	0.0	0.0	0.0	0.0	0.0	144.68965517241378	0.0	0.025695735	0.373717305	0.99255117	-51.74666	-61.98612	2.2127	401200.0	1775936924.369258	0.0	1.0	0.0	-1.0	-1.0	-1.0	1775936924.369258	peace	Peace	1	20260411_124810	Trigger
26928.18	34488.81	2855.3399999999997	-7595.19	0.0	0.0	0.0	0.0	0.0	0.0	0.0	0.0	0.0	0.0	0.0	0.0	0.0	0.0	144.68965517241378	0.0	0.025695735	0.373717305	0.99255117	-51.74666	-61.98612	2.2127	401201.0	1775936924.373129	0.0	1.0	0.0	-1.0	-1.0	-1.0	1775936924.373129	peace	Peace	1	20260411_124810	Trigger
24454.395	37845.45	138.51	-10096.92	0.0	0.0	0.0	0.0	0.0	0.0	0.0	0.0	0.0	0.0	0.0	0.0	0.0	0.0	144.68965517241378	0.0	0.025695735	0.373717305	0.99255117	-51.74666	-61.98612	2.2127	401202.0	1775936924.373167	0.0	1.0	0.0	-1.0	-1.0	-1.0	1775936924.373167	peace	Peace	1	20260411_124810	Trigger
21424.454999999998	42792.93	-3134.3849999999998	-13086.404999999999	0.0	0.0	0.0	0.0	0.0	0.0	0.0	0.0	0.0	0.0	0.0	0.0	0.0	0.0	144.68965517241378	0.0	0.025695735	0.373717305	0.99255117	-51.74666	-61.98612	2.2127	401203.0	1775936924.377197	0.0	1.0	0.0	-1.0	-1.0	-1.0	1775936924.377197	peace	Peace	1	20260411_124810	Trigger
19520.415	46350.54	-5172.57	-14983.47	0.0	0.0	0.0	0.0	0.0	0.0	0.0	0.0	0.0	0.0	0.0	0.0	0.0	0.0	144.68965517241378	0.0	0.025695735	0.373717305	0.99255117	-51.74666	-61.98612	2.2127	401204.0	1775936924.37722	0.0	1.0	0.0	-1.0	-1.0	-1.0	1775936924.37722	peace	Peace	1	20260411_124810	Trigger
19445.895	47334.284999999996	-5242.23	-15083.46	0.0	0.0	0.0	0.0	0.0	0.0	0.0	0.0	0.0	0.0	0.0	0.0	0.0	0.0	144.68965517241378	0.0	0.025695735	0.373717305	0.99255117	-51.74666	-61.98612	2.2127	401205.0	1775936924.381257	0.0	1.0	0.0	-1.0	-1.0	-1.0	1775936924.381257	peace	Peace	1	20260411_124810	Trigger
21892.5	44547.435	-2714.625	-12779.189999999999	0.0	0.0	0.0	0.0	0.0	0.0	0.0	0.0	0.0	0.0	0.0	0.0	0.0	0.0	144.68965517241378	0.0	0.025695735	0.373717305	0.99255117	-51.74666	-61.98612	2.2127	401206.0	1775936924.38128	0.0	1.0	0.0	-1.0	-1.0	-1.0	1775936924.38128	peace	Peace	1	20260411_124810	Trigger
24767.594999999998	40092.165	404.865	-9928.305	0.0	0.0	0.0	0.0	0.0	0.0	0.0	0.0	0.0	0.0	0.0	0.0	0.0	0.0	144.68965517241378	0.0	0.025695735	0.373717305	0.99255117	-51.74666	-61.98612	2.2127	401207.0	1775936924.385231	0.0	1.0	0.0	-1.0	-1.0	-1.0	1775936924.385231	peace	Peace	1	20260411_124810	Trigger
27009.945	35857.305	2811.105	-7691.085	0.0	0.0	0.0	0.0	0.0	0.0	0.0	0.0	0.0	0.0	0.0	0.0	0.0	0.0	144.68965517241378	0.0	0.025695735	0.373717305	0.99255117	-51.74666	-61.98612	2.2127	401208.0	1775936924.385256	0.0	1.0	0.0	-1.0	-1.0	-1.0	1775936924.385256	peace	Peace	1	20260411_124810	Trigger
27151.469999999998	34449.119999999995	3008.52	-7463.205	0.0	0.0	0.0	0.0	0.0	0.0	0.0	0.0	0.0	0.0	0.0	0.0	0.0	0.0	144.68965517241378	0.0	0.006530745	0.350035725	1.00500231	-10.117379999999999	-61.98612	6.867	401209.0	1775936924.389234	0.0	1.0	0.0	-1.0	-1.0	-1.0	1775936924.389234	peace	Peace	1	20260411_124810	Trigger
25179.93	36719.189999999995	941.895	-9333.045	0.0	0.0	0.0	0.0	0.0	0.0	0.0	0.0	0.0	0.0	0.0	0.0	0.0	0.0	144.68965517241378	0.0	0.006530745	0.350035725	1.00500231	-10.117379999999999	-61.98612	6.867	401210.0	1775936924.389257	0.0	1.0	0.0	-1.0	-1.0	-1.0	1775936924.389257	peace	Peace	1	20260411_124810	Trigger
22172.355	41532.795	-2287.395	-12315.689999999999	0.0	0.0	0.0	0.0	0.0	0.0	0.0	0.0	0.0	0.0	0.0	0.0	0.0	0.0	144.68965517241378	0.0	0.006530745	0.350035725	1.00500231	-10.117379999999999	-61.98612	6.867	401211.0	1775936924.393219	0.0	1.0	0.0	-1.0	-1.0	-1.0	1775936924.393219	peace	Peace	1	20260411_124810	Trigger
20024.73	45451.755	-4660.0199999999995	-14514.255	0.0	0.0	0.0	0.0	0.0	0.0	0.0	0.0	0.0	0.0	0.0	0.0	0.0	0.0	144.68965517241378	0.0	0.006530745	0.350035725	1.00500231	-10.117379999999999	-61.98612	6.867	401212.0	1775936924.393242	0.0	1.0	0.0	-1.0	-1.0	-1.0	1775936924.393242	peace	Peace	1	20260411_124810	Trigger
19349.19	47318.13	-5339.565	-15170.13	0.0	0.0	0.0	0.0	0.0	0.0	0.0	0.0	0.0	0.0	0.0	0.0	0.0	0.0	144.68965517241378	0.0	0.006530745	0.350035725	1.00500231	-10.117379999999999	-61.98612	6.867	401213.0	1775936924.39725	0.0	1.0	0.0	-1.0	-1.0	-1.0	1775936924.39725	peace	Peace	1	20260411_124810	Trigger
20996.28	45639.045	-3538.305	-13529.475	0.0	0.0	0.0	0.0	0.0	0.0	0.0	0.0	0.0	0.0	0.0	0.0	0.0	0.0	144.68965517241378	0.0	0.006530745	0.350035725	1.00500231	-10.117379999999999	-61.98612	6.867	401214.0	1775936924.397274	0.0	1.0	0.0	-1.0	-1.0	-1.0	1775936924.397274	peace	Peace	1	20260411_124810	Trigger
23720.535	41655.06	-644.5799999999999	-10890.765	0.0	0.0	0.0	0.0	0.0	0.0	0.0	0.0	0.0	0.0	0.0	0.0	0.0	0.0	144.68965517241378	0.0	0.006530745	0.350035725	1.00500231	-10.117379999999999	-61.98612	6.867	401215.0	1775936924.401319	0.0	1.0	0.0	-1.0	-1.0	-1.0	1775936924.401319	peace	Peace	1	20260411_124810	Trigger
