Channel1	Channel2	Channel3	Channel4	Channel5	Channel6	Channel7	Channel8	FilteredChannel1	FilteredChannel2	FilteredChannel3	FilteredChannel4	FilteredChannel5	FilteredChannel6	FilteredChannel7	FilteredChannel8	GyroX	GyroY	GyroZ	AccX	AccY	AccZ	PPG1	PPG2	rawPPG1	rawPPG2	rawPPG3	Hr	Hrv	Battery	Trigger	PhysicalTrigger	AutoTrigger	NumMeasurements	Timestamp	GestureLabel	CueLabel	TrialNumber	SessionId	MarkerColumn
11307.15	23971.274999999998	-3010.3199999999997	-13263.885	0.0	0.0	0.0	0.0	0.0	0.0	0.0	0.0	0.0	0.0	0.0	0.0	0.0	0.0	144.55172413793105	0.0	0.10107396	0.429869505	0.9045387	9.03392	0.77826	-1.77016	414663.0	1775936951.372845	5.0	1.0	5.0	-1.0	-1.0	-1.0	1775936951.372845	peace	Peace	2	20260411_124810	Trigger
12114.539999999999	22086.899999999998	-1943.595	-12286.71	0.0	0.0	0.0	0.0	0.0	0.0	0.0	0.0	0.0	0.0	0.0	0.0	0.0	0.0	144.55172413793105	0.0	0.10107396	0.429869505	0.9045387	9.03392	0.77826	-1.77016	414664.0	1775936951.372872	0.0	1.0	0.0	-1.0	-1.0	-1.0	1775936951.372872	peace	Peace	2	20260411_124810	Trigger
11864.43	21901.77	-2233.62	-12527.865	0.0	0.0	0.0	0.0	0.0	0.0	0.0	0.0	0.0	0.0	0.0	0.0	0.0	0.0	144.55172413793105	0.0	0.10107396	0.429869505	0.9045387	9.03392	0.77826	-1.77016	414665.0	1775936951.384361	0.0	1.0	0.0	-1.0	-1.0	-1.0	1775936951.384361	peace	Peace	2	20260411_124810	Trigger
10427.13	24235.829999999998	-3994.9649999999997	-14128.965	0.0	0.0	0.0	0.0	0.0	0.0	0.0	0.0	0.0	0.0	0.0	0.0	0.0	0.0	144.55172413793105	0.0	0.10107396	0.429869505	0.9045387	9.03392	0.77826	-1.77016	414666.0	1775936951.384365	0.0	1.0	0.0	-1.0	-1.0	-1.0	1775936951.384365	peace	Peace	2	20260411_124810	Trigger
9814.185	26075.61	-4990.59	-15004.98	0.0	0.0	0.0	0.0	0.0	0.0	0.0	0.0	0.0	0.0	0.0	0.0	0.0	0.0	144.55172413793105	0.0	0.10107396	0.429869505	0.9045387	9.03392	0.77826	-1.77016	414667.0	1775936951.38437	0.0	1.0	0.0	-1.0	-1.0	-1.0	1775936951.38437	peace	Peace	2	20260411_124810	Trigger
9445.005	27360.675	-5626.844999999999	-15573.375	0.0	0.0	0.0	0.0	0.0	0.0	0.0	0.0	0.0	0.0	0.0	0.0	0.0	0.0	144.55172413793105	0.0	0.10107396	0.429869505	0.9045387	9.03392	0.77826	-1.77016	414668.0	1775936951.384374	0.0	1.0	0.0	-1.0	-1.0	-1.0	1775936951.384374	peace	Peace	2	20260411_124810	Trigger
9463.994999999999	27766.844999999998	-5573.7	-15540.119999999999	0.0	0.0	0.0	0.0	0.0	0.0	0.0	0.0	0.0	0.0	0.0	0.0	0.0	0.0	144.55172413793105	0.0	0.10040257500000001	0.43249401	0.90380628	9.9953	0.41202	-1.7549	414669.0	1775936951.384379	0.0	1.0	0.0	-1.0	-1.0	-1.0	1775936951.384379	peace	Peace	2	20260411_124810	Trigger
10481.535	26096.895	-4294.44	-14393.519999999999	0.0	0.0	0.0	0.0	0.0	0.0	0.0	0.0	0.0	0.0	0.0	0.0	0.0	0.0	144.55172413793105	0.0	0.10040257500000001	0.43249401	0.90380628	9.9953	0.41202	-1.7549	414670.0	1775936951.384382	0.0	1.0	0.0	-1.0	-1.0	-1.0	1775936951.384382	peace	Peace	2	20260411_124810	Trigger
11054.654999999999	24512.129999999997	-3337.47	-13550.49	0.0	0.0	0.0	0.0	0.0	0.0	0.0	0.0	0.0	0.0	0.0	0.0	0.0	0.0	144.55172413793105	0.0	0.10040257500000001	0.43249401	0.90380628	9.9953	0.41202	-1.7549	414671.0	1775936951.387469	0.0	1.0	0.0	-1.0	-1.0	-1.0	1775936951.387469	peace	Peace	2	20260411_124810	Trigger
11904.255	22617.719999999998	-2184.705	-12506.895	0.0	0.0	0.0	0.0	0.0	0.0	0.0	0.0	0.0	0.0	0.0	0.0	0.0	0.0	144.55172413793105	0.0	0.10040257500000001	0.43249401	0.90380628	9.9953	0.41202	-1.7549	414672.0	1775936951.387488	0.0	1.0	0.0	-1.0	-1.0	-1.0	1775936951.387488	peace	Peace	2	20260411_124810	Trigger
12101.49	21694.094999999998	-1949.715	-12278.385	0.0	0.0	0.0	0.0	0.0	0.0	0.0	0.0	0.0	0.0	0.0	0.0	0.0	0.0	144.55172413793105	0.0	0.10040257500000001	0.43249401	0.90380628	9.9953	0.41202	-1.7549	414673.0	1775936951.3915	0.0	1.0	0.0	-1.0	-1.0	-1.0	1775936951.3915	peace	Peace	2	20260411_124810	Trigger
10826.279999999999	23467.815	-3462.12	-13639.635	0.0	0.0	0.0	0.0	0.0	0.0	0.0	0.0	0.0	0.0	0.0	0.0	0.0	0.0	144.55172413793105	0.0	0.10040257500000001	0.43249401	0.90380628	9.9953	0.41202	-1.7549	414674.0	1775936951.391518	0.0	1.0	0.0	-1.0	-1.0	-1.0	1775936951.391518	peace	Peace	2	20260411_124810	Trigger
9881.01	25746.254999999997	-4813.065	-14851.08	0.0	0.0	0.0	0.0	0.0	0.0	0.0	0.0	0.0	0.0	0.0	0.0	0.0	0.0	144.55172413793105	0.0	0.10040257500000001	0.43249401	0.90380628	9.9953	0.41202	-1.7549	414675.0	1775936951.396623	0.0	1.0	0.0	-1.0	-1.0	-1.0	1775936951.396623	peace	Peace	2	20260411_124810	Trigger
9578.25	27083.295	-5465.16	-15429.105	0.0	0.0	0.0	0.0	0.0	0.0	0.0	0.0	0.0	0.0	0.0	0.0	0.0	0.0	144.55172413793105	0.0	0.10040257500000001	0.43249401	0.90380628	9.9953	0.41202	-1.7549	414676.0	1775936951.396642	0.0	1.0	0.0	-1.0	-1.0	-1.0	1775936951.396642	peace	Peace	2	20260411_124810	Trigger
9263.88	28031.039999999997	-5803.38	-15748.605	0.0	0.0	0.0	0.0	0.0	0.0	0.0	0.0	0.0	0.0	0.0	0.0	0.0	0.0	144.55172413793105	0.0	0.10040257500000001	0.43249401	0.90380628	9.9953	0.41202	-1.7549	414677.0	1775936951.404738	0.0	1.0	0.0	-1.0	-1.0	-1.0	1775936951.404738	peace	Peace	2	20260411_124810	Trigger
10141.02	26854.11	-4742.325	-14800.59	0.0	0.0	0.0	0.0	0.0	0.0	0.0	0.0	0.0	0.0	0.0	0.0	0.0	0.0	144.55172413793105	0.0	0.10040257500000001	0.43249401	0.90380628	9.9953	0.41202	-1.7549	414678.0	1775936951.404756	0.0	1.0	0.0	-1.0	-1.0	-1.0	1775936951.404756	peace	Peace	2	20260411_124810	Trigger
10912.814999999999	25045.29	-3609.3599999999997	-13792.904999999999	0.0	0.0	0.0	0.0	0.0	0.0	0.0	0.0	0.0	0.0	0.0	0.0	0.0	0.0	144.55172413793105	0.0	0.09826635	0.441099945	0.90380628	7.095899999999999	-0.28994	-0.8698199999999999	414679.0	1775936951.405007	0.0	1.0	0.0	-1.0	-1.0	-1.0	1775936951.405007	peace	Peace	2	20260411_124810	Trigger
11645.189999999999	23279.985	-2521.935	-12814.92	0.0	0.0	0.0	0.0	0.0	0.0	0.0	0.0	0.0	0.0	0.0	0.0	0.0	0.0	144.55172413793105	0.0	0.09826635	0.441099945	0.90380628	7.095899999999999	-0.28994	-0.8698199999999999	414680.0	1775936951.405011	0.0	1.0	0.0	-1.0	-1.0	-1.0	1775936951.405011	peace	Peace	2	20260411_124810	Trigger
12213.585	21786.344999999998	-1822.185	-12169.08	0.0	0.0	0.0	0.0	0.0	0.0	0.0	0.0	0.0	0.0	0.0	0.0	0.0	0.0	144.55172413793105	0.0	0.09826635	0.441099945	0.90380628	7.095899999999999	-0.28994	-0.8698199999999999	414681.0	1775936951.407485	0.0	1.0	0.0	-1.0	-1.0	-1.0	1775936951.407485	peace	Peace	2	20260411_124810	Trigger
11339.234999999999	22743.899999999998	-2869.605	-13108.05	0.0	0.0	0.0	0.0	0.0	0.0	0.0	0.0	0.0	0.0	0.0	0.0	0.0	0.0	144.55172413793105	0.0	0.09826635	0.441099945	0.90380628	7.095899999999999	-0.28994	-0.8698199999999999	414682.0	1775936951.407503	0.0	1.0	0.0	-1.0	-1.0	-1.0	1775936951.407503	peace	Peace	2	20260411_124810	Trigger
10006.83	25278.12	-4552.335	-14616.449999999999	0.0	0.0	0.0	0.0	0.0	0.0	0.0	0.0	0.0	0.0	0.0	0.0	0.0	0.0	144.55172413793105	0.0	0.09826635	0.441099945	0.90380628	7.095899999999999	-0.28994	-0.8698199999999999	414683.0	1775936951.411608	0.0	1.0	0.0	-1.0	-1.0	-1.0	1775936951.411608	peace	Peace	2	20260411_124810	Trigger
9673.695	26733.96	-5285.295	-15265.529999999999	0.0	0.0	0.0	0.0	0.0	0.0	0.0	0.0	0.0	0.0	0.0	0.0	0.0	0.0	144.55172413793105	0.0	0.09826635	0.441099945	0.90380628	7.095899999999999	-0.28994	-0.8698199999999999	414684.0	1775936951.411626	0.0	1.0	0.0	-1.0	-1.0	-1.0	1775936951.411626	peace	Peace	2	20260411_124810	Trigger
9225.855	27979.605	-5861.835	-15789.51	0.0	0.0	0.0	0.0	0.0	0.0	0.0	0.0	0.0	0.0	0.0	0.0	0.0	0.0	144.55172413793105	0.0	0.09826635	0.441099945	0.90380628	7.095899999999999	-0.28994	-0.8698199999999999	414685.0	1775936951.415578	0.0	1.0	0.0	-1.0	-1.0	-1.0	1775936951.415578	peace	Peace	2	20260411_124810	Trigger
9783.404999999999	27448.785	-5181.389999999999	-15188.849999999999	0.0	0.0	0.0	0.0	0.0	0.0	0.0	0.0	0.0	0.0	0.0	0.0	0.0	0.0	144.55172413793105	0.0	0.09826635	0.441099945	0.90380628	7.095899999999999	-0.28994	-0.8698199999999999	414686.0	1775936951.415596	0.0	1.0	0.0	-1.0	-1.0	-1.0	1775936951.415596	peace	Peace	2	20260411_124810	Trigger
10761.48	25480.125	-3874.77	-14021.414999999999	0.0	0.0	0.0	0.0	0.0	0.0	0.0	0.0	0.0	0.0	0.0	0.0	0.0	0.0	144.55172413793105	0.0	0.09826635	0.441099945	0.90380628	7.095899999999999	-0.28994	-0.8698199999999999	414687.0	1775936951.419615	0.0	1.0	0.0	-1.0	-1.0	-1.0	1775936951.419615	peace	Peace	2	20260411_124810	Trigger
11366.775	23860.844999999998	-2896.74	-13155.57	0.0	0.0	0.0	0.0	0.0	0.0	0.0	0.0	0.0	0.0	0.0	0.0	0.0	0.0	144.55172413793105	0.0	0.09826635	0.441099945	0.90380628	7.095899999999999	-0.28994	-0.8698199999999999	414688.0	1775936951.419634	0.0	1.0	0.0	-1.0	-1.0	-1.0	1775936951.419634	peace	Peace	2	20260411_124810	Trigger
12163.41	22009.094999999998	-1882.26	-12226.994999999999	0.0	0.0	0.0	0.0	0.0	0.0	0.0	0.0	0.0	0.0	0.0	0.0	0.0	0.0	144.55172413793105	0.0	0.09771703500000001	0.44702034	0.90160902	3.79974	-0.24416	0.2289	414689.0	1775936951.424867	0.0	1.0	0.0	-1.0	-1.0	-1.0	1775936951.424867	peace	Peace	2	20260411_124810	Trigger
11758.005	22077.719999999998	-2360.115	-12643.064999999999	0.0	0.0	0.0	0.0	0.0	0.0	0.0	0.0	0.0	0.0	0.0	0.0	0.0	0.0	144.55172413793105	0.0	0.09771703500000001	0.44702034	0.90160902	3.79974	-0.24416	0.2289	414690.0	1775936951.424885	0.0	1.0	0.0	-1.0	-1.0	-1.0	1775936951.424885	peace	Peace	2	20260411_124810	Trigger
10288.845	24528.555	-4148.325	-14262.255	0.0	0.0	0.0	0.0	0.0	0.0	0.0	0.0	0.0	0.0	0.0	0.0	0.0	0.0	144.55172413793105	0.0	0.09771703500000001	0.44702034	0.90160902	3.79974	-0.24416	0.2289	414691.0	1775936951.427637	0.0	1.0	0.0	-1.0	-1.0	-1.0	1775936951.427637	peace	Peace	2	20260411_124810	Trigger
9766.845	26301.105	-5090.175	-15093.72	0.0	0.0	0.0	0.0	0.0	0.0	0.0	0.0	0.0	0.0	0.0	0.0	0.0	0.0	144.55172413793105	0.0	0.09771703500000001	0.44702034	0.90160902	3.79974	-0.24416	0.2289	414692.0	1775936951.427655	0.0	1.0	0.0	-1.0	-1.0	-1.0	1775936951.427655	peace	Peace	2	20260411_124810	Trigger
9312.57	27682.469999999998	-5776.83	-15709.005	0.0	0.0	0.0	0.0	0.0	0.0	0.0	0.0	0.0	0.0	0.0	0.0	0.0	0.0	144.55172413793105	0.0	0.09771703500000001	0.44702034	0.90160902	3.79974	-0.24416	0.2289	414693.0	1775936951.431687	0.0	1.0	0.0	-1.0	-1.0	-1.0	1775936951.431687	peace	Peace	2	20260411_124810	Trigger
9429.975	27947.07	-5596.245	-15566.49	0.0	0.0	0.0	0.0	0.0	0.0	0.0	0.0	0.0	0.0	0.0	0.0	0.0	0.0	144.55172413793105	0.0	0.09771703500000001	0.44702034	0.90160902	3.79974	-0.24416	0.2289	414694.0	1775936951.431705	0.0	1.0	0.0	-1.0	-1.0	-1.0	1775936951.431705	peace	Peace	2	20260411_124810	Trigger
10540.08	26087.985	-4215.24	-14326.695	0.0	0.0	0.0	0.0	0.0	0.0	0.0	0.0	0.0	0.0	0.0	0.0	0.0	0.0	144.55172413793105	0.0	0.09771703500000001	0.44702034	0.90160902	3.79974	-0.24416	0.2289	414695.0	1775936951.435616	0.0	1.0	0.0	-1.0	-1.0	-1.0	1775936951.435616	peace	Peace	2	20260411_124810	Trigger
11124.72	24447.69	-3245.355	-13468.994999999999	0.0	0.0	0.0	0.0	0.0	0.0	0.0	0.0	0.0	0.0	0.0	0.0	0.0	0.0	144.55172413793105	0.0	0.09771703500000001	0.44702034	0.90160902	3.79974	-0.24416	0.2289	414696.0	1775936951.435634	0.0	1.0	0.0	-1.0	-1.0	-1.0	1775936951.435634	peace	Peace	2	20260411_124810	Trigger
12001.005	22494.96	-2090.9249999999997	-12422.52	0.0	0.0	0.0	0.0	0.0	0.0	0.0	0.0	0.0	0.0	0.0	0.0	0.0	0.0	144.55172413793105	0.0	0.09771703500000001	0.44702034	0.90160902	3.79974	-0.24416	0.2289	414697.0	1775936951.439641	0.0	1.0	0.0	-1.0	-1.0	-1.0	1775936951.439641	peace	Peace	2	20260411_124810	Trigger
12063.824999999999	21760.425	-2009.25	-12331.305	0.0	0.0	0.0	0.0	0.0	0.0	0.0	0.0	0.0	0.0	0.0	0.0	0.0	0.0	144.55172413793105	0.0	0.09771703500000001	0.44702034	0.90160902	3.79974	-0.24416	0.2289	414698.0	1775936951.439659	0.0	1.0	0.0	-1.0	-1.0	-1.0	1775936951.439659	peace	Peace	2	20260411_124810	Trigger
10727.91	23717.7	-3618.99	-13790.744999999999	0.0	0.0	0.0	0.0	0.0	0.0	0.0	0.0	0.0	0.0	0.0	0.0	0.0	0.0	144.55172413793105	0.0	0.09997533	0.443907555	0.90185316	2.3042599999999998	-0.32045999999999997	-0.16785999999999998	414699.0	1775936951.443628	0.0	1.0	0.0	-1.0	-1.0	-1.0	1775936951.443628	peace	Peace	2	20260411_124810	Trigger
9849.779999999999	25886.655	-4888.304999999999	-14918.535	0.0	0.0	0.0	0.0	0.0	0.0	0.0	0.0	0.0	0.0	0.0	0.0	0.0	0.0	144.55172413793105	0.0	0.09997533	0.443907555	0.90185316	2.3042599999999998	-0.32045999999999997	-0.16785999999999998	414700.0	1775936951.443646	0.0	1.0	0.0	-1.0	-1.0	-1.0	1775936951.443646	peace	Peace	2	20260411_124810	Trigger
9461.609999999999	27268.245	-5591.655	-15538.59	0.0	0.0	0.0	0.0	0.0	0.0	0.0	0.0	0.0	0.0	0.0	0.0	0.0	0.0	144.55172413793105	0.0	0.09997533	0.443907555	0.90185316	2.3042599999999998	-0.32045999999999997	-0.16785999999999998	414701.0	1775936951.44755	0.0	1.0	0.0	-1.0	-1.0	-1.0	1775936951.44755	peace	Peace	2	20260411_124810	Trigger
9201.06	28157.399999999998	-5866.965	-15805.619999999999	0.0	0.0	0.0	0.0	0.0	0.0	0.0	0.0	0.0	0.0	0.0	0.0	0.0	0.0	144.55172413793105	0.0	0.09997533	0.443907555	0.90185316	2.3042599999999998	-0.32045999999999997	-0.16785999999999998	414702.0	1775936951.447556	0.0	1.0	0.0	-1.0	-1.0	-1.0	1775936951.447556	peace	Peace	2	20260411_124810	Trigger
10219.77	26725.23	-4647.105	-14711.805	0.0	0.0	0.0	0.0	0.0	0.0	0.0	0.0	0.0	0.0	0.0	0.0	0.0	0.0	144.55172413793105	0.0	0.09997533	0.443907555	0.90185316	2.3042599999999998	-0.32045999999999997	-0.16785999999999998	414703.0	1775936951.451573	0.0	1.0	0.0	-1.0	-1.0	-1.0	1775936951.451573	peace	Peace	2	20260411_124810	Trigger
10952.82	24893.415	-3526.6949999999997	-13710.06	0.0	0.0	0.0	0.0	0.0	0.0	0.0	0.0	0.0	0.0	0.0	0.0	0.0	0.0	144.55172413793105	0.0	0.09997533	0.443907555	0.90185316	2.3042599999999998	-0.32045999999999997	-0.16785999999999998	414704.0	1775936951.451591	0.0	1.0	0.0	-1.0	-1.0	-1.0	1775936951.451591	peace	Peace	2	20260411_124810	Trigger
11745.855	23061.69	-2402.8199999999997	-12701.744999999999	0.0	0.0	0.0	0.0	0.0	0.0	0.0	0.0	0.0	0.0	0.0	0.0	0.0	0.0	144.55172413793105	0.0	0.09997533	0.443907555	0.90185316	2.3042599999999998	-0.32045999999999997	-0.16785999999999998	414705.0	1775936951.455745	0.0	1.0	0.0	-1.0	-1.0	-1.0	1775936951.455745	peace	Peace	2	20260411_124810	Trigger
12214.125	21703.23	-1827.99	-12169.17	0.0	0.0	0.0	0.0	0.0	0.0	0.0	0.0	0.0	0.0	0.0	0.0	0.0	0.0	144.55172413793105	0.0	0.09997533	0.443907555	0.90185316	2.3042599999999998	-0.32045999999999997	-0.16785999999999998	414706.0	1775936951.455763	0.0	1.0	0.0	-1.0	-1.0	-1.0	1775936951.455763	peace	Peace	2	20260411_124810	Trigger
11194.83	22904.235	-3024.0899999999997	-13242.285	0.0	0.0	0.0	0.0	0.0	0.0	0.0	0.0	0.0	0.0	0.0	0.0	0.0	0.0	144.55172413793105	0.0	0.09997533	0.443907555	0.90185316	2.3042599999999998	-0.32045999999999997	-0.16785999999999998	414707.0	1775936951.459669	0.0	1.0	0.0	-1.0	-1.0	-1.0	1775936951.459669	peace	Peace	2	20260411_124810	Trigger
9954.99	25426.305	-4651.74	-14710.769999999999	0.0	0.0	0.0	0.0	0.0	0.0	0.0	0.0	0.0	0.0	0.0	0.0	0.0	0.0	144.55172413793105	0.0	0.09997533	0.443907555	0.90185316	2.3042599999999998	-0.32045999999999997	-0.16785999999999998	414708.0	1775936951.459687	0.0	1.0	0.0	-1.0	-1.0	-1.0	1775936951.459687	peace	Peace	2	20260411_124810	Trigger
9611.279999999999	26892.495	-5381.099999999999	-15349.05	0.0	0.0	0.0	0.0	0.0	0.0	0.0	0.0	0.0	0.0	0.0	0.0	0.0	0.0	144.55172413793105	0.0	0.10217259000000001	0.43829233500000003	0.90429456	6.21082	1.2207999999999999	-0.35097999999999996	414709.0	1775936951.466462	0.0	1.0	0.0	-1.0	-1.0	-1.0	1775936951.466462	peace	Peace	2	20260411_124810	Trigger
9134.055	28162.26	-5962.05	-15885.314999999999	0.0	0.0	0.0	0.0	0.0	0.0	0.0	0.0	0.0	0.0	0.0	0.0	0.0	0.0	144.55172413793105	0.0	0.10217259000000001	0.43829233500000003	0.90429456	6.21082	1.2207999999999999	-0.35097999999999996	414710.0	1775936951.46648	0.0	1.0	0.0	-1.0	-1.0	-1.0	1775936951.46648	peace	Peace	2	20260411_124810	Trigger
9812.52	27424.26	-5136.66	-15149.744999999999	0.0	0.0	0.0	0.0	0.0	0.0	0.0	0.0	0.0	0.0	0.0	0.0	0.0	0.0	144.55172413793105	0.0	0.10217259000000001	0.43829233500000003	0.90429456	6.21082	1.2207999999999999	-0.35097999999999996	414711.0	1775936951.470643	0.0	1.0	0.0	-1.0	-1.0	-1.0	1775936951.470643	peace	Peace	2	20260411_124810	Trigger
10791.135	25406.864999999998	-3809.8799999999997	-13958.865	0.0	0.0	0.0	0.0	0.0	0.0	0.0	0.0	0.0	0.0	0.0	0.0	0.0	0.0	144.55172413793105	0.0	0.10217259000000001	0.43829233500000003	0.90429456	6.21082	1.2207999999999999	-0.35097999999999996	414712.0	1775936951.470662	0.0	1.0	0.0	-1.0	-1.0	-1.0	1775936951.470662	peace	Peace	2	20260411_124810	Trigger
11464.064999999999	23699.565	-2773.62	-13035.51	0.0	0.0	0.0	0.0	0.0	0.0	0.0	0.0	0.0	0.0	0.0	0.0	0.0	0.0	144.55172413793105	0.0	0.10217259000000001	0.43829233500000003	0.90429456	6.21082	1.2207999999999999	-0.35097999999999996	414713.0	1775936951.471736	0.0	1.0	0.0	-1.0	-1.0	-1.0	1775936951.471736	peace	Peace	2	20260411_124810	Trigger
12234.689999999999	21874.184999999998	-1811.2949999999998	-12153.33	0.0	0.0	0.0	0.0	0.0	0.0	0.0	0.0	0.0	0.0	0.0	0.0	0.0	0.0	144.55172413793105	0.0	0.10217259000000001	0.43829233500000003	0.90429456	6.21082	1.2207999999999999	-0.35097999999999996	414714.0	1775936951.471755	0.0	1.0	0.0	-1.0	-1.0	-1.0	1775936951.471755	peace	Peace	2	20260411_124810	Trigger
11689.244999999999	22196.204999999998	-2460.24	-12730.005	0.0	0.0	0.0	0.0	0.0	0.0	0.0	0.0	0.0	0.0	0.0	0.0	0.0	0.0	144.55172413793105	0.0	0.10217259000000001	0.43829233500000003	0.90429456	6.21082	1.2207999999999999	-0.35097999999999996	414715.0	1775936951.475734	0.0	1.0	0.0	-1.0	-1.0	-1.0	1775936951.475734	peace	Peace	2	20260411_124810	Trigger
10204.65	24781.635	-4286.07	-14383.89	0.0	0.0	0.0	0.0	0.0	0.0	0.0	0.0	0.0	0.0	0.0	0.0	0.0	0.0	144.55172413793105	0.0	0.10217259000000001	0.43829233500000003	0.90429456	6.21082	1.2207999999999999	-0.35097999999999996	414716.0	1775936951.475753	0.0	1.0	0.0	-1.0	-1.0	-1.0	1775936951.475753	peace	Peace	2	20260411_124810	Trigger
9709.605	26537.309999999998	-5200.92	-15194.474999999999	0.0	0.0	0.0	0.0	0.0	0.0	0.0	0.0	0.0	0.0	0.0	0.0	0.0	0.0	144.55172413793105	0.0	0.10217259000000001	0.43829233500000003	0.90429456	6.21082	1.2207999999999999	-0.35097999999999996	414717.0	1775936951.479804	0.0	1.0	0.0	-1.0	-1.0	-1.0	1775936951.479804	peace	Peace	2	20260411_124810	Trigger
9170.91	27969.434999999998	-5922.63	-15840.269999999999	0.0	0.0	0.0	0.0	0.0	0.0	0.0	0.0	0.0	0.0	0.0	0.0	0.0	0.0	144.55172413793105	0.0	0.10217259000000001	0.43829233500000003	0.90429456	6.21082	1.2207999999999999	-0.35097999999999996	414718.0	1775936951.479823	0.0	1.0	0.0	-1.0	-1.0	-1.0	1775936951.479823	peace	Peace	2	20260411_124810	Trigger
9410.535	28036.71	-5599.755	-15565.095	0.0	0.0	0.0	0.0	0.0	0.0	0.0	0.0	0.0	0.0	0.0	0.0	0.0	0.0	144.55172413793105	0.0	0.101134995	0.43078503	0.904599735	7.614739999999999	0.51884	-1.0224199999999999	414719.0	1775936951.48377	0.0	1.0	0.0	-1.0	-1.0	-1.0	1775936951.48377	peace	Peace	2	20260411_124810	Trigger
10595.16	26017.379999999997	-4131.9	-14245.47	0.0	0.0	0.0	0.0	0.0	0.0	0.0	0.0	0.0	0.0	0.0	0.0	0.0	0.0	144.55172413793105	0.0	0.101134995	0.43078503	0.904599735	7.614739999999999	0.51884	-1.0224199999999999	414720.0	1775936951.483788	0.0	1.0	0.0	-1.0	-1.0	-1.0	1775936951.483788	peace	Peace	2	20260411_124810	Trigger
11243.744999999999	24272.82	-3111.48	-13341.644999999999	0.0	0.0	0.0	0.0	0.0	0.0	0.0	0.0	0.0	0.0	0.0	0.0	0.0	0.0	144.55172413793105	0.0	0.101134995	0.43078503	0.904599735	7.614739999999999	0.51884	-1.0224199999999999	414721.0	1775936951.487701	0.0	1.0	0.0	-1.0	-1.0	-1.0	1775936951.487701	peace	Peace	2	20260411_124810	Trigger
12151.98	22250.204999999998	-1937.07	-12274.56	0.0	0.0	0.0	0.0	0.0	0.0	0.0	0.0	0.0	0.0	0.0	0.0	0.0	0.0	144.55172413793105	0.0	0.101134995	0.43078503	0.904599735	7.614739999999999	0.51884	-1.0224199999999999	414722.0	1775936951.487719	0.0	1.0	0.0	-1.0	-1.0	-1.0	1775936951.487719	peace	Peace	2	20260411_124810	Trigger
12084.57	21706.605	-2007.7649999999999	-12322.484999999999	0.0	0.0	0.0	0.0	0.0	0.0	0.0	0.0	0.0	0.0	0.0	0.0	0.0	0.0	144.55172413793105	0.0	0.101134995	0.43078503	0.904599735	7.614739999999999	0.51884	-1.0224199999999999	414723.0	1775936951.491712	0.0	1.0	0.0	-1.0	-1.0	-1.0	1775936951.491712	peace	Peace	2	20260411_124810	Trigger
10605.465	23905.17	-3747.6	-13895.505	0.0	0.0	0.0	0.0	0.0	0.0	0.0	0.0	0.0	0.0	0.0	0.0	0.0	0.0	144.55172413793105	0.0	0.101134995	0.43078503	0.904599735	7.614739999999999	0.51884	-1.0224199999999999	414724.0	1775936951.49172	0.0	1.0	0.0	-1.0	-1.0	-1.0	1775936951.49172	peace	Peace	2	20260411_124810	Trigger
9771.57	26072.01	-4984.335	-14999.58	0.0	0.0	0.0	0.0	0.0	0.0	0.0	0.0	0.0	0.0	0.0	0.0	0.0	0.0	144.55172413793105	0.0	0.101134995	0.43078503	0.904599735	7.614739999999999	0.51884	-1.0224199999999999	414725.0	1775936951.495826	0.0	1.0	0.0	-1.0	-1.0	-1.0	1775936951.495826	peace	Peace	2	20260411_124810	Trigger
9296.46	27583.695	-5772.195	-15704.234999999999	0.0	0.0	0.0	0.0	0.0	0.0	0.0	0.0	0.0	0.0	0.0	0.0	0.0	0.0	144.55172413793105	0.0	0.101134995	0.43078503	0.904599735	7.614739999999999	0.51884	-1.0224199999999999	414726.0	1775936951.495845	0.0	1.0	0.0	-1.0	-1.0	-1.0	1775936951.495845	peace	Peace	2	20260411_124810	Trigger
9105.39	28379.07	-5947.965	-15879.599999999999	0.0	0.0	0.0	0.0	0.0	0.0	0.0	0.0	0.0	0.0	0.0	0.0	0.0	0.0	144.55172413793105	0.0	0.101134995	0.43078503	0.904599735	7.614739999999999	0.51884	-1.0224199999999999	414727.0	1775936951.499728	0.0	1.0	0.0	-1.0	-1.0	-1.0	1775936951.499728	peace	Peace	2	20260411_124810	Trigger
10266.84	26687.565	-4567.679999999999	-14634.63	0.0	0.0	0.0	0.0	0.0	0.0	0.0	0.0	0.0	0.0	0.0	0.0	0.0	0.0	144.55172413793105	0.0	0.101134995	0.43078503	0.904599735	7.614739999999999	0.51884	-1.0224199999999999	414728.0	1775936951.499746	0.0	1.0	0.0	-1.0	-1.0	-1.0	1775936951.499746	peace	Peace	2	20260411_124810	Trigger
11065.859999999999	24753.285	-3397.8599999999997	-13599.855	0.0	0.0	0.0	0.0	0.0	0.0	0.0	0.0	0.0	0.0	0.0	0.0	0.0	0.0	144.55172413793105	0.0	0.10205052	0.43005261	0.904599735	10.26998	0.85456	-2.10588	414729.0	1775936951.503792	0.0	1.0	0.0	-1.0	-1.0	-1.0	1775936951.503792	peace	Peace	2	20260411_124810	Trigger
11982.96	22723.155	-2162.88	-12484.305	0.0	0.0	0.0	0.0	0.0	0.0	0.0	0.0	0.0	0.0	0.0	0.0	0.0	0.0	144.55172413793105	0.0	0.10205052	0.43005261	0.904599735	10.26998	0.85456	-2.10588	414730.0	1775936951.50381	0.0	1.0	0.0	-1.0	-1.0	-1.0	1775936951.50381	peace	Peace	2	20260411_124810	Trigger
12343.41	21439.079999999998	-1691.9099999999999	-12031.02	0.0	0.0	0.0	0.0	0.0	0.0	0.0	0.0	0.0	0.0	0.0	0.0	0.0	0.0	144.55172413793105	0.0	0.10205052	0.43005261	0.904599735	10.26998	0.85456	-2.10588	414731.0	1775936951.50889	0.0	1.0	0.0	-1.0	-1.0	-1.0	1775936951.50889	peace	Peace	2	20260411_124810	Trigger
11160.585	22894.155	-3072.285	-13273.74	0.0	0.0	0.0	0.0	0.0	0.0	0.0	0.0	0.0	0.0	0.0	0.0	0.0	0.0	144.55172413793105	0.0	0.10205052	0.43005261	0.904599735	10.26998	0.85456	-2.10588	414732.0	1775936951.508908	0.0	1.0	0.0	-1.0	-1.0	-1.0	1775936951.508908	peace	Peace	2	20260411_124810	Trigger
9895.859999999999	25500.375	-4728.465	-14770.98	0.0	0.0	0.0	0.0	0.0	0.0	0.0	0.0	0.0	0.0	0.0	0.0	0.0	0.0	144.55172413793105	0.0	0.10205052	0.43005261	0.904599735	10.26998	0.85456	-2.10588	414733.0	1775936951.511797	0.0	1.0	0.0	-1.0	-1.0	-1.0	1775936951.511797	peace	Peace	2	20260411_124810	Trigger
9495.945	27052.785	-5511.915	-15466.814999999999	0.0	0.0	0.0	0.0	0.0	0.0	0.0	0.0	0.0	0.0	0.0	0.0	0.0	0.0	144.55172413793105	0.0	0.10205052	0.43005261	0.904599735	10.26998	0.85456	-2.10588	414734.0	1775936951.511815	0.0	1.0	0.0	-1.0	-1.0	-1.0	1775936951.511815	peace	Peace	2	20260411_124810	Trigger
9040.185	28300.815	-6038.82	-15956.279999999999	0.0	0.0	0.0	0.0	0.0	0.0	0.0	0.0	0.0	0.0	0.0	0.0	0.0	0.0	144.55172413793105	0.0	0.10205052	0.43005261	0.904599735	10.26998	0.85456	-2.10588	414735.0	1775936951.515827	0.0	1.0	0.0	-1.0	-1.0	-1.0	1775936951.515827	peace	Peace	2	20260411_124810	Trigger
9898.199999999999	27314.145	-5041.9349999999995	-15066.314999999999	0.0	0.0	0.0	0.0	0.0	0.0	0.0	0.0	0.0	0.0	0.0	0.0	0.0	0.0	144.55172413793105	0.0	0.10205052	0.43005261	0.904599735	10.26998	0.85456	-2.10588	414736.0	1775936951.515845	0.0	1.0	0.0	-1.0	-1.0	-1.0	1775936951.515845	peace	Peace	2	20260411_124810	Trigger
10895.039999999999	25234.605	-3690.9449999999997	-13859.82	0.0	0.0	0.0	0.0	0.0	0.0	0.0	0.0	0.0	0.0	0.0	0.0	0.0	0.0	144.55172413793105	0.0	0.10205052	0.43005261	0.904599735	10.26998	0.85456	-2.10588	414737.0	1775936951.519811	0.0	1.0	0.0	-1.0	-1.0	-1.0	1775936951.519811	peace	Peace	2	20260411_124810	Trigger
11692.17	23338.035	-2516.67	-12806.55	0.0	0.0	0.0	0.0	0.0	0.0	0.0	0.0	0.0	0.0	0.0	0.0	0.0	0.0	144.55172413793105	0.0	0.10205052	0.43005261	0.904599735	10.26998	0.85456	-2.10588	414738.0	1775936951.519838	0.0	1.0	0.0	-1.0	-1.0	-1.0	1775936951.519838	peace	Peace	2	20260411_124810	Trigger
12451.275	21500.505	-1583.685	-11945.789999999999	0.0	0.0	0.0	0.0	0.0	0.0	0.0	0.0	0.0	0.0	0.0	0.0	0.0	0.0	144.55172413793105	0.0	0.10229466	0.43566783000000003	0.90136488	10.1479	1.4802199999999999	-2.0295799999999997	414739.0	1775936951.523812	0.0	1.0	0.0	-1.0	-1.0	-1.0	1775936951.523812	peace	Peace	2	20260411_124810	Trigger
11739.195	22061.385	-2412.99	-12683.654999999999	0.0	0.0	0.0	0.0	0.0	0.0	0.0	0.0	0.0	0.0	0.0	0.0	0.0	0.0	144.55172413793105	0.0	0.10229466	0.43566783000000003	0.90136488	10.1479	1.4802199999999999	-2.0295799999999997	414740.0	1775936951.52383	0.0	1.0	0.0	-1.0	-1.0	-1.0	1775936951.52383	peace	Peace	2	20260411_124810	Trigger
10151.369999999999	24822.495	-4346.955	-14434.335	0.0	0.0	0.0	0.0	0.0	0.0	0.0	0.0	0.0	0.0	0.0	0.0	0.0	0.0	144.55172413793105	0.0	0.10229466	0.43566783000000003	0.90136488	10.1479	1.4802199999999999	-2.0295799999999997	414741.0	1775936951.527855	0.0	1.0	0.0	-1.0	-1.0	-1.0	1775936951.527855	peace	Peace	2	20260411_124810	Trigger
9639.225	26610.03	-5274.405	-15259.05	0.0	0.0	0.0	0.0	0.0	0.0	0.0	0.0	0.0	0.0	0.0	0.0	0.0	0.0	144.55172413793105	0.0	0.10229466	0.43566783000000003	0.90136488	10.1479	1.4802199999999999	-2.0295799999999997	414742.0	1775936951.527874	0.0	1.0	0.0	-1.0	-1.0	-1.0	1775936951.527874	peace	Peace	2	20260411_124810	Trigger
9132.525	28008.405	-5956.2	-15878.789999999999	0.0	0.0	0.0	0.0	0.0	0.0	0.0	0.0	0.0	0.0	0.0	0.0	0.0	0.0	144.55172413793105	0.0	0.10229466	0.43566783000000003	0.90136488	10.1479	1.4802199999999999	-2.0295799999999997	414743.0	1775936951.531913	0.0	1.0	0.0	-1.0	-1.0	-1.0	1775936951.531913	peace	Peace	2	20260411_124810	Trigger
9517.904999999999	27830.745	-5468.76	-15450.029999999999	0.0	0.0	0.0	0.0	0.0	0.0	0.0	0.0	0.0	0.0	0.0	0.0	0.0	0.0	144.55172413793105	0.0	0.10229466	0.43566783000000003	0.90136488	10.1479	1.4802199999999999	-2.0295799999999997	414744.0	1775936951.531931	0.0	1.0	0.0	-1.0	-1.0	-1.0	1775936951.531931	peace	Peace	2	20260411_124810	Trigger
10689.029999999999	25751.385	-4001.085	-14132.34	0.0	0.0	0.0	0.0	0.0	0.0	0.0	0.0	0.0	0.0	0.0	0.0	0.0	0.0	144.55172413793105	0.0	0.10229466	0.43566783000000003	0.90136488	10.1479	1.4802199999999999	-2.0295799999999997	414745.0	1775936951.537286	0.0	1.0	0.0	-1.0	-1.0	-1.0	1775936951.537286	peace	Peace	2	20260411_124810	Trigger
11408.355	23947.065	-2907.225	-13159.08	0.0	0.0	0.0	0.0	0.0	0.0	0.0	0.0	0.0	0.0	0.0	0.0	0.0	0.0	144.55172413793105	0.0	0.10229466	0.43566783000000003	0.90136488	10.1479	1.4802199999999999	-2.0295799999999997	414746.0	1775936951.537305	0.0	1.0	0.0	-1.0	-1.0	-1.0	1775936951.537305	peace	Peace	2	20260411_124810	Trigger
12400.154999999999	21795.795	-1668.825	-12027.645	0.0	0.0	0.0	0.0	0.0	0.0	0.0	0.0	0.0	0.0	0.0	0.0	0.0	0.0	144.55172413793105	0.0	0.10229466	0.43566783000000003	0.90136488	10.1479	1.4802199999999999	-2.0295799999999997	414747.0	1775936951.539891	0.0	1.0	0.0	-1.0	-1.0	-1.0	1775936951.539891	peace	Peace	2	20260411_124810	Trigger
12167.55	21472.11	-1922.3999999999999	-12241.71	0.0	0.0	0.0	0.0	0.0	0.0	0.0	0.0	0.0	0.0	0.0	0.0	0.0	0.0	144.55172413793105	0.0	0.10229466	0.43566783000000003	0.90136488	10.1479	1.4802199999999999	-2.0295799999999997	414748.0	1775936951.53991	0.0	1.0	0.0	-1.0	-1.0	-1.0	1775936951.53991	peace	Peace	2	20260411_124810	Trigger
10551.51	23917.77	-3816.6299999999997	-13956.435	0.0	0.0	0.0	0.0	0.0	0.0	0.0	0.0	0.0	0.0	0.0	0.0	0.0	0.0	144.55172413793105	0.0	0.100158435	0.439757175	0.899961075	8.33196	0.56462	-1.4191799999999999	414749.0	1775936951.543907	0.0	1.0	0.0	-1.0	-1.0	-1.0	1775936951.543907	peace	Peace	2	20260411_124810	Trigger
9733.994999999999	26134.02	-5051.5199999999995	-15062.894999999999	0.0	0.0	0.0	0.0	0.0	0.0	0.0	0.0	0.0	0.0	0.0	0.0	0.0	0.0	144.55172413793105	0.0	0.100158435	0.439757175	0.899961075	8.33196	0.56462	-1.4191799999999999	414750.0	1775936951.543939	0.0	1.0	0.0	-1.0	-1.0	-1.0	1775936951.543939	peace	Peace	2	20260411_124810	Trigger
9290.565	27604.934999999998	-5770.17	-15704.865	0.0	0.0	0.0	0.0	0.0	0.0	0.0	0.0	0.0	0.0	0.0	0.0	0.0	0.0	144.55172413793105	0.0	0.100158435	0.439757175	0.899961075	8.33196	0.56462	-1.4191799999999999	414751.0	1775936951.547865	0.0	1.0	0.0	-1.0	-1.0	-1.0	1775936951.547865	peace	Peace	2	20260411_124810	Trigger
9236.115	28180.035	-5802.75	-15753.51	0.0	0.0	0.0	0.0	0.0	0.0	0.0	0.0	0.0	0.0	0.0	0.0	0.0	0.0	144.55172413793105	0.0	0.100158435	0.439757175	0.899961075	8.33196	0.56462	-1.4191799999999999	414752.0	1775936951.547878	0.0	1.0	0.0	-1.0	-1.0	-1.0	1775936951.547878	peace	Peace	2	20260411_124810	Trigger
10407.33	26392.995	-4402.889999999999	-14495.67	0.0	0.0	0.0	0.0	0.0	0.0	0.0	0.0	0.0	0.0	0.0	0.0	0.0	0.0	144.55172413793105	0.0	0.100158435	0.439757175	0.899961075	8.33196	0.56462	-1.4191799999999999	414753.0	1775936951.551933	0.0	1.0	0.0	-1.0	-1.0	-1.0	1775936951.551933	peace	Peace	2	20260411_124810	Trigger
11145.465	24533.055	-3273.345	-13486.769999999999	0.0	0.0	0.0	0.0	0.0	0.0	0.0	0.0	0.0	0.0	0.0	0.0	0.0	0.0	144.55172413793105	0.0	0.100158435	0.439757175	0.899961075	8.33196	0.56462	-1.4191799999999999	414754.0	1775936951.551961	0.0	1.0	0.0	-1.0	-1.0	-1.0	1775936951.551961	peace	Peace	2	20260411_124810	Trigger
12187.619999999999	22334.715	-1929.51	-12267.404999999999	0.0	0.0	0.0	0.0	0.0	0.0	0.0	0.0	0.0	0.0	0.0	0.0	0.0	0.0	144.55172413793105	0.0	0.100158435	0.439757175	0.899961075	8.33196	0.56462	-1.4191799999999999	414755.0	1775936951.555892	0.0	1.0	0.0	-1.0	-1.0	-1.0	1775936951.555892	peace	Peace	2	20260411_124810	Trigger
12462.39	21210.12	-1591.065	-11942.189999999999	0.0	0.0	0.0	0.0	0.0	0.0	0.0	0.0	0.0	0.0	0.0	0.0	0.0	0.0	144.55172413793105	0.0	0.100158435	0.439757175	0.899961075	8.33196	0.56462	-1.4191799999999999	414756.0	1775936951.555916	0.0	1.0	0.0	-1.0	-1.0	-1.0	1775936951.555916	peace	Peace	2	20260411_124810	Trigger
11123.189999999999	22960.98	-3143.295	-13344.615	0.0	0.0	0.0	0.0	0.0	0.0	0.0	0.0	0.0	0.0	0.0	0.0	0.0	0.0	144.55172413793105	0.0	0.100158435	0.439757175	0.899961075	8.33196	0.56462	-1.4191799999999999	414757.0	1775936951.567743	0.0	1.0	0.0	-1.0	-1.0	-1.0	1775936951.567743	peace	Peace	2	20260411_124810	Trigger
9843.48	25650.809999999998	-4812.974999999999	-14851.935	0.0	0.0	0.0	0.0	0.0	0.0	0.0	0.0	0.0	0.0	0.0	0.0	0.0	0.0	144.55172413793105	0.0	0.100158435	0.439757175	0.899961075	8.33196	0.56462	-1.4191799999999999	414758.0	1775936951.567762	0.0	1.0	0.0	-1.0	-1.0	-1.0	1775936951.567762	peace	Peace	2	20260411_124810	Trigger
9445.41	27187.875	-5569.514999999999	-15520.14	0.0	0.0	0.0	0.0	0.0	0.0	0.0	0.0	0.0	0.0	0.0	0.0	0.0	0.0	144.55172413793105	0.0	0.09924291	0.44494515	0.901181775	7.340059999999999	0.06104	-1.15976	414759.0	1775936951.567782	0.0	1.0	0.0	-1.0	-1.0	-1.0	1775936951.567782	peace	Peace	2	20260411_124810	Trigger
9083.609999999999	28288.215	-5985.495	-15909.974999999999	0.0	0.0	0.0	0.0	0.0	0.0	0.0	0.0	0.0	0.0	0.0	0.0	0.0	0.0	144.55172413793105	0.0	0.09924291	0.44494515	0.901181775	7.340059999999999	0.06104	-1.15976	414760.0	1775936951.567795	0.0	1.0	0.0	-1.0	-1.0	-1.0	1775936951.567795	peace	Peace	2	20260411_124810	Trigger
10020.33	27108.09	-4878.495	-14917.904999999999	0.0	0.0	0.0	0.0	0.0	0.0	0.0	0.0	0.0	0.0	0.0	0.0	0.0	0.0	144.55172413793105	0.0	0.09924291	0.44494515	0.901181775	7.340059999999999	0.06104	-1.15976	414761.0	1775936951.570799	0.0	1.0	0.0	-1.0	-1.0	-1.0	1775936951.570799	peace	Peace	2	20260411_124810	Trigger
10937.07	25102.215	-3598.245	-13774.365	0.0	0.0	0.0	0.0	0.0	0.0	0.0	0.0	0.0	0.0	0.0	0.0	0.0	0.0	144.55172413793105	0.0	0.09924291	0.44494515	0.901181775	7.340059999999999	0.06104	-1.15976	414762.0	1775936951.570825	0.0	1.0	0.0	-1.0	-1.0	-1.0	1775936951.570825	peace	Peace	2	20260411_124810	Trigger
11856.015	23086.079999999998	-2333.97	-12635.595	0.0	0.0	0.0	0.0	0.0	0.0	0.0	0.0	0.0	0.0	0.0	0.0	0.0	0.0	144.55172413793105	0.0	0.09924291	0.44494515	0.901181775	7.340059999999999	0.06104	-1.15976	414763.0	1775936951.572021	0.0	1.0	0.0	-1.0	-1.0	-1.0	1775936951.572021	peace	Peace	2	20260411_124810	Trigger
12549.15	21314.969999999998	-1488.06	-11851.289999999999	0.0	0.0	0.0	0.0	0.0	0.0	0.0	0.0	0.0	0.0	0.0	0.0	0.0	0.0	144.55172413793105	0.0	0.09924291	0.44494515	0.901181775	7.340059999999999	0.06104	-1.15976	414764.0	1775936951.572047	0.0	1.0	0.0	-1.0	-1.0	-1.0	1775936951.572047	peace	Peace	2	20260411_124810	Trigger
11672.145	22126.14	-2506.23	-12763.529999999999	0.0	0.0	0.0	0.0	0.0	0.0	0.0	0.0	0.0	0.0	0.0	0.0	0.0	0.0	144.55172413793105	0.0	0.09924291	0.44494515	0.901181775	7.340059999999999	0.06104	-1.15976	414765.0	1775936951.578684	0.0	1.0	0.0	-1.0	-1.0	-1.0	1775936951.578684	peace	Peace	2	20260411_124810	Trigger
10085.31	24971.805	-4456.755	-14531.445	0.0	0.0	0.0	0.0	0.0	0.0	0.0	0.0	0.0	0.0	0.0	0.0	0.0	0.0	144.55172413793105	0.0	0.09924291	0.44494515	0.901181775	7.340059999999999	0.06104	-1.15976	414766.0	1775936951.578708	0.0	1.0	0.0	-1.0	-1.0	-1.0	1775936951.578708	peace	Peace	2	20260411_124810	Trigger
9612.09	26733.195	-5353.425	-15330.734999999999	0.0	0.0	0.0	0.0	0.0	0.0	0.0	0.0	0.0	0.0	0.0	0.0	0.0	0.0	144.55172413793105	0.0	0.09924291	0.44494515	0.901181775	7.340059999999999	0.06104	-1.15976	414767.0	1775936951.582815	0.0	1.0	0.0	-1.0	-1.0	-1.0	1775936951.582815	peace	Peace	2	20260411_124810	Trigger
9087.119999999999	28139.805	-6012.54	-15934.095	0.0	0.0	0.0	0.0	0.0	0.0	0.0	0.0	0.0	0.0	0.0	0.0	0.0	0.0	144.55172413793105	0.0	0.09924291	0.44494515	0.901181775	7.340059999999999	0.06104	-1.15976	414768.0	1775936951.582838	0.0	1.0	0.0	-1.0	-1.0	-1.0	1775936951.582838	peace	Peace	2	20260411_124810	Trigger
9589.41	27757.26	-5376.285	-15365.564999999999	0.0	0.0	0.0	0.0	0.0	0.0	0.0	0.0	0.0	0.0	0.0	0.0	0.0	0.0	144.55172413793105	0.0	0.098449455	0.448302075	0.90148695	5.340999999999999	-0.35097999999999996	-0.32045999999999997	414769.0	1775936951.583995	0.0	1.0	0.0	-1.0	-1.0	-1.0	1775936951.583995	peace	Peace	2	20260411_124810	Trigger
10751.625	25619.129999999997	-3902.49	-14040.855	0.0	0.0	0.0	0.0	0.0	0.0	0.0	0.0	0.0	0.0	0.0	0.0	0.0	0.0	144.55172413793105	0.0	0.098449455	0.448302075	0.90148695	5.340999999999999	-0.35097999999999996	-0.32045999999999997	414770.0	1775936951.584018	0.0	1.0	0.0	-1.0	-1.0	-1.0	1775936951.584018	peace	Peace	2	20260411_124810	Trigger
11539.035	23732.504999999997	-2753.73	-13016.07	0.0	0.0	0.0	0.0	0.0	0.0	0.0	0.0	0.0	0.0	0.0	0.0	0.0	0.0	144.55172413793105	0.0	0.098449455	0.448302075	0.90148695	5.340999999999999	-0.35097999999999996	-0.32045999999999997	414771.0	1775936951.588018	0.0	1.0	0.0	-1.0	-1.0	-1.0	1775936951.588018	peace	Peace	2	20260411_124810	Trigger
12533.984999999999	21548.835	-1528.47	-11891.475	0.0	0.0	0.0	0.0	0.0	0.0	0.0	0.0	0.0	0.0	0.0	0.0	0.0	0.0	144.55172413793105	0.0	0.098449455	0.448302075	0.90148695	5.340999999999999	-0.35097999999999996	-0.32045999999999997	414772.0	1775936951.588042	0.0	1.0	0.0	-1.0	-1.0	-1.0	1775936951.588042	peace	Peace	2	20260411_124810	Trigger
12199.23	21440.745	-1929.87	-12244.5	0.0	0.0	0.0	0.0	0.0	0.0	0.0	0.0	0.0	0.0	0.0	0.0	0.0	0.0	144.55172413793105	0.0	0.098449455	0.448302075	0.90148695	5.340999999999999	-0.35097999999999996	-0.32045999999999997	414773.0	1775936951.592032	0.0	1.0	0.0	-1.0	-1.0	-1.0	1775936951.592032	peace	Peace	2	20260411_124810	Trigger
10493.055	24108.03	-3930.705	-14055.21	0.0	0.0	0.0	0.0	0.0	0.0	0.0	0.0	0.0	0.0	0.0	0.0	0.0	0.0	144.55172413793105	0.0	0.098449455	0.448302075	0.90148695	5.340999999999999	-0.35097999999999996	-0.32045999999999997	414774.0	1775936951.592074	0.0	1.0	0.0	-1.0	-1.0	-1.0	1775936951.592074	peace	Peace	2	20260411_124810	Trigger
9705.42	26320.905	-5147.28	-15150.779999999999	0.0	0.0	0.0	0.0	0.0	0.0	0.0	0.0	0.0	0.0	0.0	0.0	0.0	0.0	144.55172413793105	0.0	0.098449455	0.448302075	0.90148695	5.340999999999999	-0.35097999999999996	-0.32045999999999997	414775.0	1775936951.59608	0.0	1.0	0.0	-1.0	-1.0	-1.0	1775936951.59608	peace	Peace	2	20260411_124810	Trigger
9171.81	27836.91	-5889.51	-15802.47	0.0	0.0	0.0	0.0	0.0	0.0	0.0	0.0	0.0	0.0	0.0	0.0	0.0	0.0	144.55172413793105	0.0	0.098449455	0.448302075	0.90148695	5.340999999999999	-0.35097999999999996	-0.32045999999999997	414776.0	1775936951.596104	0.0	1.0	0.0	-1.0	-1.0	-1.0	1775936951.596104	peace	Peace	2	20260411_124810	Trigger
9234.81	28241.504999999997	-5779.844999999999	-15720.84	0.0	0.0	0.0	0.0	0.0	0.0	0.0	0.0	0.0	0.0	0.0	0.0	0.0	0.0	144.55172413793105	0.0	0.098449455	0.448302075	0.90148695	5.340999999999999	-0.35097999999999996	-0.32045999999999997	414777.0	1775936951.599973	0.0	1.0	0.0	-1.0	-1.0	-1.0	1775936951.599973	peace	Peace	2	20260411_124810	Trigger
10488.42	26288.64	-4294.889999999999	-14390.1	0.0	0.0	0.0	0.0	0.0	0.0	0.0	0.0	0.0	0.0	0.0	0.0	0.0	0.0	144.55172413793105	0.0	0.098449455	0.448302075	0.90148695	5.340999999999999	-0.35097999999999996	-0.32045999999999997	414778.0	1775936951.599996	0.0	1.0	0.0	-1.0	-1.0	-1.0	1775936951.599996	peace	Peace	2	20260411_124810	Trigger
11267.91	24371.91	-3141.315	-13366.755	0.0	0.0	0.0	0.0	0.0	0.0	0.0	0.0	0.0	0.0	0.0	0.0	0.0	0.0	144.55172413793105	0.0	0.099181875	0.444395835	0.90002211	4.53222	-0.8698199999999999	-0.36624	414779.0	1775936951.605336	0.0	1.0	0.0	-1.0	-1.0	-1.0	1775936951.605336	peace	Peace	2	20260411_124810	Trigger
12388.185	22065.84	-1747.53	-12098.88	0.0	0.0	0.0	0.0	0.0	0.0	0.0	0.0	0.0	0.0	0.0	0.0	0.0	0.0	144.55172413793105	0.0	0.099181875	0.444395835	0.90002211	4.53222	-0.8698199999999999	-0.36624	414780.0	1775936951.605364	0.0	1.0	0.0	-1.0	-1.0	-1.0	1775936951.605364	peace	Peace	2	20260411_124810	Trigger
12537.359999999999	21117.51	-1565.325	-11915.73	0.0	0.0	0.0	0.0	0.0	0.0	0.0	0.0	0.0	0.0	0.0	0.0	0.0	0.0	144.55172413793105	0.0	0.099181875	0.444395835	0.90002211	4.53222	-0.8698199999999999	-0.36624	414781.0	1775936951.60804	0.0	1.0	0.0	-1.0	-1.0	-1.0	1775936951.60804	peace	Peace	2	20260411_124810	Trigger
10997.955	23126.625	-3274.92	-13446.585	0.0	0.0	0.0	0.0	0.0	0.0	0.0	0.0	0.0	0.0	0.0	0.0	0.0	0.0	144.55172413793105	0.0	0.099181875	0.444395835	0.90002211	4.53222	-0.8698199999999999	-0.36624	414782.0	1775936951.608063	0.0	1.0	0.0	-1.0	-1.0	-1.0	1775936951.608063	peace	Peace	2	20260411_124810	Trigger
9783.945	25823.114999999998	-4907.745	-14927.849999999999	0.0	0.0	0.0	0.0	0.0	0.0	0.0	0.0	0.0	0.0	0.0	0.0	0.0	0.0	144.55172413793105	0.0	0.099181875	0.444395835	0.90002211	4.53222	-0.8698199999999999	-0.36624	414783.0	1775936951.612077	0.0	1.0	0.0	-1.0	-1.0	-1.0	1775936951.612077	peace	Peace	2	20260411_124810	Trigger
9333.359999999999	27402.795	-5693.219999999999	-15623.865	0.0	0.0	0.0	0.0	0.0	0.0	0.0	0.0	0.0	0.0	0.0	0.0	0.0	0.0	144.55172413793105	0.0	0.099181875	0.444395835	0.90002211	4.53222	-0.8698199999999999	-0.36624	414784.0	1775936951.612101	0.0	1.0	0.0	-1.0	-1.0	-1.0	1775936951.612101	peace	Peace	2	20260411_124810	Trigger
9027.045	28427.309999999998	-6038.55	-15956.64	0.0	0.0	0.0	0.0	0.0	0.0	0.0	0.0	0.0	0.0	0.0	0.0	0.0	0.0	144.55172413793105	0.0	0.099181875	0.444395835	0.90002211	4.53222	-0.8698199999999999	-0.36624	414785.0	1775936951.616047	0.0	1.0	0.0	-1.0	-1.0	-1.0	1775936951.616047	peace	Peace	2	20260411_124810	Trigger
10098.27	27016.02	-4789.485	-14833.619999999999	0.0	0.0	0.0	0.0	0.0	0.0	0.0	0.0	0.0	0.0	0.0	0.0	0.0	0.0	144.55172413793105	0.0	0.099181875	0.444395835	0.90002211	4.53222	-0.8698199999999999	-0.36624	414786.0	1775936951.616069	0.0	1.0	0.0	-1.0	-1.0	-1.0	1775936951.616069	peace	Peace	2	20260411_124810	Trigger
11031.345	24954.434999999998	-3484.395	-13669.289999999999	0.0	0.0	0.0	0.0	0.0	0.0	0.0	0.0	0.0	0.0	0.0	0.0	0.0	0.0	144.55172413793105	0.0	0.099181875	0.444395835	0.90002211	4.53222	-0.8698199999999999	-0.36624	414787.0	1775936951.620058	0.0	1.0	0.0	-1.0	-1.0	-1.0	1775936951.620058	peace	Peace	2	20260411_124810	Trigger
12029.67	22797.09	-2144.745	-12457.619999999999	0.0	0.0	0.0	0.0	0.0	0.0	0.0	0.0	0.0	0.0	0.0	0.0	0.0	0.0	144.55172413793105	0.0	0.099181875	0.444395835	0.90002211	4.53222	-0.8698199999999999	-0.36624	414788.0	1775936951.620081	0.0	1.0	0.0	-1.0	-1.0	-1.0	1775936951.620081	peace	Peace	2	20260411_124810	Trigger
12631.005	21145.68	-1411.83	-11771.955	0.0	0.0	0.0	0.0	0.0	0.0	0.0	0.0	0.0	0.0	0.0	0.0	0.0	0.0	144.55172413793105	0.0	0.10034154	0.44018442	0.90051039	4.77638	-0.6103999999999999	-1.2818399999999999	414789.0	1775936951.624073	0.0	1.0	0.0	-1.0	-1.0	-1.0	1775936951.624073	peace	Peace	2	20260411_124810	Trigger
11597.49	22241.204999999998	-2609.595	-12849.975	0.0	0.0	0.0	0.0	0.0	0.0	0.0	0.0	0.0	0.0	0.0	0.0	0.0	0.0	144.55172413793105	0.0	0.10034154	0.44018442	0.90051039	4.77638	-0.6103999999999999	-1.2818399999999999	414790.0	1775936951.624096	0.0	1.0	0.0	-1.0	-1.0	-1.0	1775936951.624096	peace	Peace	2	20260411_124810	Trigger
9997.425	25181.1	-4566.6449999999995	-14623.74	0.0	0.0	0.0	0.0	0.0	0.0	0.0	0.0	0.0	0.0	0.0	0.0	0.0	0.0	144.55172413793105	0.0	0.10034154	0.44018442	0.90051039	4.77638	-0.6103999999999999	-1.2818399999999999	414791.0	1775936951.628248	0.0	1.0	0.0	-1.0	-1.0	-1.0	1775936951.628248	peace	Peace	2	20260411_124810	Trigger
9506.52	26954.37	-5457.599999999999	-15417.72	0.0	0.0	0.0	0.0	0.0	0.0	0.0	0.0	0.0	0.0	0.0	0.0	0.0	0.0	144.55172413793105	0.0	0.10034154	0.44018442	0.90051039	4.77638	-0.6103999999999999	-1.2818399999999999	414792.0	1775936951.628271	0.0	1.0	0.0	-1.0	-1.0	-1.0	1775936951.628271	peace	Peace	2	20260411_124810	Trigger
8978.355	28384.829999999998	-6108.3	-16018.154999999999	0.0	0.0	0.0	0.0	0.0	0.0	0.0	0.0	0.0	0.0	0.0	0.0	0.0	0.0	144.55172413793105	0.0	0.10034154	0.44018442	0.90051039	4.77638	-0.6103999999999999	-1.2818399999999999	414793.0	1775936951.632107	0.0	1.0	0.0	-1.0	-1.0	-1.0	1775936951.632107	peace	Peace	2	20260411_124810	Trigger
9636.885	27779.895	-5313.24	-15304.545	0.0	0.0	0.0	0.0	0.0	0.0	0.0	0.0	0.0	0.0	0.0	0.0	0.0	0.0	144.55172413793105	0.0	0.10034154	0.44018442	0.90051039	4.77638	-0.6103999999999999	-1.2818399999999999	414794.0	1775936951.63213	0.0	1.0	0.0	-1.0	-1.0	-1.0	1775936951.63213	peace	Peace	2	20260411_124810	Trigger
10802.52	25576.469999999998	-3823.065	-13967.1	0.0	0.0	0.0	0.0	0.0	0.0	0.0	0.0	0.0	0.0	0.0	0.0	0.0	0.0	144.55172413793105	0.0	0.10034154	0.44018442	0.90051039	4.77638	-0.6103999999999999	-1.2818399999999999	414795.0	1775936951.636244	0.0	1.0	0.0	-1.0	-1.0	-1.0	1775936951.636244	peace	Peace	2	20260411_124810	Trigger
11658.33	23581.305	-2609.685	-12880.529999999999	0.0	0.0	0.0	0.0	0.0	0.0	0.0	0.0	0.0	0.0	0.0	0.0	0.0	0.0	144.55172413793105	0.0	0.10034154	0.44018442	0.90051039	4.77638	-0.6103999999999999	-1.2818399999999999	414796.0	1775936951.636294	0.0	1.0	0.0	-1.0	-1.0	-1.0	1775936951.636294	peace	Peace	2	20260411_124810	Trigger
12615.255	21434.489999999998	-1450.125	-11814.21	0.0	0.0	0.0	0.0	0.0	0.0	0.0	0.0	0.0	0.0	0.0	0.0	0.0	0.0	144.55172413793105	0.0	0.10034154	0.44018442	0.90051039	4.77638	-0.6103999999999999	-1.2818399999999999	414797.0	1775936951.640657	0.0	1.0	0.0	-1.0	-1.0	-1.0	1775936951.640657	peace	Peace	2	20260411_124810	Trigger
12124.395	21567.825	-2030.3999999999999	-12329.414999999999	0.0	0.0	0.0	0.0	0.0	0.0	0.0	0.0	0.0	0.0	0.0	0.0	0.0	0.0	144.55172413793105	0.0	0.10034154	0.44018442	0.90051039	4.77638	-0.6103999999999999	-1.2818399999999999	414798.0	1775936951.640682	0.0	1.0	0.0	-1.0	-1.0	-1.0	1775936951.640682	peace	Peace	2	20260411_124810	Trigger
10389.914999999999	24364.754999999997	-4087.17	-14198.58	0.0	0.0	0.0	0.0	0.0	0.0	0.0	0.0	0.0	0.0	0.0	0.0	0.0	0.0	144.55172413793105	0.0	0.101501205	0.43981821	0.900327285	5.1121	0.09156	-1.2971	414799.0	1775936951.645575	0.0	1.0	0.0	-1.0	-1.0	-1.0	1775936951.645575	peace	Peace	2	20260411_124810	Trigger
9603.0	26500.004999999997	-5235.03	-15211.125	0.0	0.0	0.0	0.0	0.0	0.0	0.0	0.0	0.0	0.0	0.0	0.0	0.0	0.0	144.55172413793105	0.0	0.101501205	0.43981821	0.900327285	5.1121	0.09156	-1.2971	414800.0	1775936951.645599	0.0	1.0	0.0	-1.0	-1.0	-1.0	1775936951.645599	peace	Peace	2	20260411_124810	Trigger
9048.6	28084.41	-6021.764999999999	-15926.445	0.0	0.0	0.0	0.0	0.0	0.0	0.0	0.0	0.0	0.0	0.0	0.0	0.0	0.0	144.55172413793105	0.0	0.101501205	0.43981821	0.900327285	5.1121	0.09156	-1.2971	414801.0	1775936951.648211	0.0	1.0	0.0	-1.0	-1.0	-1.0	1775936951.648211	peace	Peace	2	20260411_124810	Trigger
9237.555	28319.579999999998	-5775.705	-15724.17	0.0	0.0	0.0	0.0	0.0	0.0	0.0	0.0	0.0	0.0	0.0	0.0	0.0	0.0	144.55172413793105	0.0	0.101501205	0.43981821	0.900327285	5.1121	0.09156	-1.2971	414802.0	1775936951.648234	0.0	1.0	0.0	-1.0	-1.0	-1.0	1775936951.648234	peace	Peace	2	20260411_124810	Trigger
10550.07	26195.625	-4200.48	-14306.039999999999	0.0	0.0	0.0	0.0	0.0	0.0	0.0	0.0	0.0	0.0	0.0	0.0	0.0	0.0	144.55172413793105	0.0	0.101501205	0.43981821	0.900327285	5.1121	0.09156	-1.2971	414803.0	1775936951.6522	0.0	1.0	0.0	-1.0	-1.0	-1.0	1775936951.6522	peace	Peace	2	20260411_124810	Trigger
11336.445	24239.879999999997	-3037.095	-13267.08	0.0	0.0	0.0	0.0	0.0	0.0	0.0	0.0	0.0	0.0	0.0	0.0	0.0	0.0	144.55172413793105	0.0	0.101501205	0.43981821	0.900327285	5.1121	0.09156	-1.2971	414804.0	1775936951.652223	0.0	1.0	0.0	-1.0	-1.0	-1.0	1775936951.652223	peace	Peace	2	20260411_124810	Trigger
12432.779999999999	21928.68	-1669.2749999999999	-12020.67	0.0	0.0	0.0	0.0	0.0	0.0	0.0	0.0	0.0	0.0	0.0	0.0	0.0	0.0	144.55172413793105	0.0	0.101501205	0.43981821	0.900327285	5.1121	0.09156	-1.2971	414805.0	1775936951.656122	0.0	1.0	0.0	-1.0	-1.0	-1.0	1775936951.656122	peace	Peace	2	20260411_124810	Trigger
12450.195	21172.905	-1635.48	-11971.71	0.0	0.0	0.0	0.0	0.0	0.0	0.0	0.0	0.0	0.0	0.0	0.0	0.0	0.0	144.55172413793105	0.0	0.101501205	0.43981821	0.900327285	5.1121	0.09156	-1.2971	414806.0	1775936951.656145	0.0	1.0	0.0	-1.0	-1.0	-1.0	1775936951.656145	peace	Peace	2	20260411_124810	Trigger
10873.17	23395.364999999998	-3459.7349999999997	-13621.455	0.0	0.0	0.0	0.0	0.0	0.0	0.0	0.0	0.0	0.0	0.0	0.0	0.0	0.0	144.55172413793105	0.0	0.101501205	0.43981821	0.900327285	5.1121	0.09156	-1.2971	414807.0	1775936951.660262	0.0	1.0	0.0	-1.0	-1.0	-1.0	1775936951.660262	peace	Peace	2	20260411_124810	Trigger
9748.935	25975.8	-4984.065	-14995.8	0.0	0.0	0.0	0.0	0.0	0.0	0.0	0.0	0.0	0.0	0.0	0.0	0.0	0.0	144.55172413793105	0.0	0.101501205	0.43981821	0.900327285	5.1121	0.09156	-1.2971	414808.0	1775936951.660285	0.0	1.0	0.0	-1.0	-1.0	-1.0	1775936951.660285	peace	Peace	2	20260411_124810	Trigger
9228.555	27613.754999999997	-5817.105	-15741.539999999999	0.0	0.0	0.0	0.0	0.0	0.0	0.0	0.0	0.0	0.0	0.0	0.0	0.0	0.0	144.55172413793105	0.0	0.10095189	0.440001315	0.89867934	5.24944	0.65618	-0.47306	414809.0	1775936951.671767	0.0	1.0	0.0	-1.0	-1.0	-1.0	1775936951.671767	peace	Peace	2	20260411_124810	Trigger
8973.449999999999	28571.085	-6080.264999999999	-15999.164999999999	0.0	0.0	0.0	0.0	0.0	0.0	0.0	0.0	0.0	0.0	0.0	0.0	0.0	0.0	144.55172413793105	0.0	0.10095189	0.440001315	0.89867934	5.24944	0.65618	-0.47306	414810.0	1775936951.67179	0.0	1.0	0.0	-1.0	-1.0	-1.0	1775936951.67179	peace	Peace	2	20260411_124810	Trigger
10164.51	26952.84	-4689.54	-14745.869999999999	0.0	0.0	0.0	0.0	0.0	0.0	0.0	0.0	0.0	0.0	0.0	0.0	0.0	0.0	144.55172413793105	0.0	0.10095189	0.440001315	0.89867934	5.24944	0.65618	-0.47306	414811.0	1775936951.67182	0.0	1.0	0.0	-1.0	-1.0	-1.0	1775936951.67182	peace	Peace	2	20260411_124810	Trigger
11089.035	24863.535	-3394.44	-13587.57	0.0	0.0	0.0	0.0	0.0	0.0	0.0	0.0	0.0	0.0	0.0	0.0	0.0	0.0	144.55172413793105	0.0	0.10095189	0.440001315	0.89867934	5.24944	0.65618	-0.47306	414812.0	1775936951.671842	0.0	1.0	0.0	-1.0	-1.0	-1.0	1775936951.671842	peace	Peace	2	20260411_124810	Trigger
12112.56	22668.434999999998	-2050.83	-12372.029999999999	0.0	0.0	0.0	0.0	0.0	0.0	0.0	0.0	0.0	0.0	0.0	0.0	0.0	0.0	144.55172413793105	0.0	0.10095189	0.440001315	0.89867934	5.24944	0.65618	-0.47306	414813.0	1775936951.672376	0.0	1.0	0.0	-1.0	-1.0	-1.0	1775936951.672376	peace	Peace	2	20260411_124810	Trigger
12599.01	21188.969999999998	-1459.215	-11821.904999999999	0.0	0.0	0.0	0.0	0.0	0.0	0.0	0.0	0.0	0.0	0.0	0.0	0.0	0.0	144.55172413793105	0.0	0.10095189	0.440001315	0.89867934	5.24944	0.65618	-0.47306	414814.0	1775936951.6724	0.0	1.0	0.0	-1.0	-1.0	-1.0	1775936951.6724	peace	Peace	2	20260411_124810	Trigger
11414.16	22562.504999999997	-2815.9649999999997	-13038.975	0.0	0.0	0.0	0.0	0.0	0.0	0.0	0.0	0.0	0.0	0.0	0.0	0.0	0.0	144.55172413793105	0.0	0.10095189	0.440001315	0.89867934	5.24944	0.65618	-0.47306	414815.0	1775936951.679111	0.0	1.0	0.0	-1.0	-1.0	-1.0	1775936951.679111	peace	Peace	2	20260411_124810	Trigger
9919.619999999999	25449.93	-4690.98	-14740.154999999999	0.0	0.0	0.0	0.0	0.0	0.0	0.0	0.0	0.0	0.0	0.0	0.0	0.0	0.0	144.55172413793105	0.0	0.10095189	0.440001315	0.89867934	5.24944	0.65618	-0.47306	414816.0	1775936951.679134	0.0	1.0	0.0	-1.0	-1.0	-1.0	1775936951.679134	peace	Peace	2	20260411_124810	Trigger
9410.31	27205.11	-5580.09	-15525.63	0.0	0.0	0.0	0.0	0.0	0.0	0.0	0.0	0.0	0.0	0.0	0.0	0.0	0.0	144.55172413793105	0.0	0.10095189	0.440001315	0.89867934	5.24944	0.65618	-0.47306	414817.0	1775936951.680317	0.0	1.0	0.0	-1.0	-1.0	-1.0	1775936951.680317	peace	Peace	2	20260411_124810	Trigger
8848.89	28661.265	-6227.505	-16126.064999999999	0.0	0.0	0.0	0.0	0.0	0.0	0.0	0.0	0.0	0.0	0.0	0.0	0.0	0.0	144.55172413793105	0.0	0.10095189	0.440001315	0.89867934	5.24944	0.65618	-0.47306	414818.0	1775936951.68034	0.0	1.0	0.0	-1.0	-1.0	-1.0	1775936951.68034	peace	Peace	2	20260411_124810	Trigger
9683.369999999999	27815.625	-5270.804999999999	-15282.9	0.0	0.0	0.0	0.0	0.0	0.0	0.0	0.0	0.0	0.0	0.0	0.0	0.0	0.0	144.55172413793105	0.0	0.101134995	0.44140512	0.9017310900000001	4.577999999999999	-0.39676	-1.03768	414819.0	1775936951.68434	0.0	1.0	0.0	-1.0	-1.0	-1.0	1775936951.68434	peace	Peace	2	20260411_124810	Trigger
10878.93	25509.375	-3739.0049999999997	-13903.605	0.0	0.0	0.0	0.0	0.0	0.0	0.0	0.0	0.0	0.0	0.0	0.0	0.0	0.0	144.55172413793105	0.0	0.101134995	0.44140512	0.9017310900000001	4.577999999999999	-0.39676	-1.03768	414820.0	1775936951.684363	0.0	1.0	0.0	-1.0	-1.0	-1.0	1775936951.684363	peace	Peace	2	20260411_124810	Trigger
11738.25	23478.03	-2498.04	-12777.84	0.0	0.0	0.0	0.0	0.0	0.0	0.0	0.0	0.0	0.0	0.0	0.0	0.0	0.0	144.55172413793105	0.0	0.101134995	0.44140512	0.9017310900000001	4.577999999999999	-0.39676	-1.03768	414821.0	1775936951.688353	0.0	1.0	0.0	-1.0	-1.0	-1.0	1775936951.688353	peace	Peace	2	20260411_124810	Trigger
12587.535	21488.76	-1470.1499999999999	-11835.18	0.0	0.0	0.0	0.0	0.0	0.0	0.0	0.0	0.0	0.0	0.0	0.0	0.0	0.0	144.55172413793105	0.0	0.101134995	0.44140512	0.9017310900000001	4.577999999999999	-0.39676	-1.03768	414822.0	1775936951.688376	0.0	1.0	0.0	-1.0	-1.0	-1.0	1775936951.688376	peace	Peace	2	20260411_124810	Trigger
11909.564999999999	21903.57	-2235.555	-12513.465	0.0	0.0	0.0	0.0	0.0	0.0	0.0	0.0	0.0	0.0	0.0	0.0	0.0	0.0	144.55172413793105	0.0	0.101134995	0.44140512	0.9017310900000001	4.577999999999999	-0.39676	-1.03768	414823.0	1775936951.692316	0.0	1.0	0.0	-1.0	-1.0	-1.0	1775936951.692316	peace	Peace	2	20260411_124810	Trigger
10198.845	24763.68	-4273.605	-14360.4	0.0	0.0	0.0	0.0	0.0	0.0	0.0	0.0	0.0	0.0	0.0	0.0	0.0	0.0	144.55172413793105	0.0	0.101134995	0.44140512	0.9017310900000001	4.577999999999999	-0.39676	-1.03768	414824.0	1775936951.692351	0.0	1.0	0.0	-1.0	-1.0	-1.0	1775936951.692351	peace	Peace	2	20260411_124810	Trigger
9563.445	26754.21	-5326.74	-15301.529999999999	0.0	0.0	0.0	0.0	0.0	0.0	0.0	0.0	0.0	0.0	0.0	0.0	0.0	0.0	144.55172413793105	0.0	0.101134995	0.44140512	0.9017310900000001	4.577999999999999	-0.39676	-1.03768	414825.0	1775936951.696337	0.0	1.0	0.0	-1.0	-1.0	-1.0	1775936951.696337	peace	Peace	2	20260411_124810	Trigger
8962.605	28354.59	-6116.445	-16019.865	0.0	0.0	0.0	0.0	0.0	0.0	0.0	0.0	0.0	0.0	0.0	0.0	0.0	0.0	144.55172413793105	0.0	0.101134995	0.44140512	0.9017310900000001	4.577999999999999	-0.39676	-1.03768	414826.0	1775936951.696366	0.0	1.0	0.0	-1.0	-1.0	-1.0	1775936951.696366	peace	Peace	2	20260411_124810	Trigger
9300.734999999999	28350.045	-5710.1849999999995	-15670.125	0.0	0.0	0.0	0.0	0.0	0.0	0.0	0.0	0.0	0.0	0.0	0.0	0.0	0.0	144.55172413793105	0.0	0.101134995	0.44140512	0.9017310900000001	4.577999999999999	-0.39676	-1.03768	414827.0	1775936951.700315	0.0	1.0	0.0	-1.0	-1.0	-1.0	1775936951.700315	peace	Peace	2	20260411_124810	Trigger
10611.72	26129.7	-4104.36	-14218.064999999999	0.0	0.0	0.0	0.0	0.0	0.0	0.0	0.0	0.0	0.0	0.0	0.0	0.0	0.0	144.55172413793105	0.0	0.101134995	0.44140512	0.9017310900000001	4.577999999999999	-0.39676	-1.03768	414828.0	1775936951.70034	0.0	1.0	0.0	-1.0	-1.0	-1.0	1775936951.70034	peace	Peace	2	20260411_124810	Trigger
11383.83	24191.1	-2952.495	-13190.58	0.0	0.0	0.0	0.0	0.0	0.0	0.0	0.0	0.0	0.0	0.0	0.0	0.0	0.0	144.55172413793105	0.0	0.10107396	0.44018442	0.90258558	6.50076	-0.01526	-0.88508	414829.0	1775936951.704327	0.0	1.0	0.0	-1.0	-1.0	-1.0	1775936951.704327	peace	Peace	2	20260411_124810	Trigger
12409.425	21979.26	-1675.53	-12032.595	0.0	0.0	0.0	0.0	0.0	0.0	0.0	0.0	0.0	0.0	0.0	0.0	0.0	0.0	144.55172413793105	0.0	0.10107396	0.44018442	0.90258558	6.50076	-0.01526	-0.88508	414830.0	1775936951.704351	0.0	1.0	0.0	-1.0	-1.0	-1.0	1775936951.704351	peace	Peace	2	20260411_124810	Trigger
12253.859999999999	21513.51	-1840.77	-12163.365	0.0	0.0	0.0	0.0	0.0	0.0	0.0	0.0	0.0	0.0	0.0	0.0	0.0	0.0	144.55172413793105	0.0	0.10107396	0.44018442	0.90258558	6.50076	-0.01526	-0.88508	414831.0	1775936951.708383	0.0	1.0	0.0	-1.0	-1.0	-1.0	1775936951.708383	peace	Peace	2	20260411_124810	Trigger
10637.505	23896.079999999998	-3724.3799999999997	-13866.93	0.0	0.0	0.0	0.0	0.0	0.0	0.0	0.0	0.0	0.0	0.0	0.0	0.0	0.0	144.55172413793105	0.0	0.10107396	0.44018442	0.90258558	6.50076	-0.01526	-0.88508	414832.0	1775936951.708409	0.0	1.0	0.0	-1.0	-1.0	-1.0	1775936951.708409	peace	Peace	2	20260411_124810	Trigger
9682.38	26276.94	-5085.135	-15085.394999999999	0.0	0.0	0.0	0.0	0.0	0.0	0.0	0.0	0.0	0.0	0.0	0.0	0.0	0.0	144.55172413793105	0.0	0.10107396	0.44018442	0.90258558	6.50076	-0.01526	-0.88508	414833.0	1775936951.71234	0.0	1.0	0.0	-1.0	-1.0	-1.0	1775936951.71234	peace	Peace	2	20260411_124810	Trigger
9117.945	27929.52	-5927.67	-15842.43	0.0	0.0	0.0	0.0	0.0	0.0	0.0	0.0	0.0	0.0	0.0	0.0	0.0	0.0	144.55172413793105	0.0	0.10107396	0.44018442	0.90258558	6.50076	-0.01526	-0.88508	414834.0	1775936951.712365	0.0	1.0	0.0	-1.0	-1.0	-1.0	1775936951.712365	peace	Peace	2	20260411_124810	Trigger
8982.404999999999	28704.105	-6063.615	-15988.275	0.0	0.0	0.0	0.0	0.0	0.0	0.0	0.0	0.0	0.0	0.0	0.0	0.0	0.0	144.55172413793105	0.0	0.10107396	0.44018442	0.90258558	6.50076	-0.01526	-0.88508	414835.0	1775936951.716371	0.0	1.0	0.0	-1.0	-1.0	-1.0	1775936951.716371	peace	Peace	2	20260411_124810	Trigger
10265.895	26866.934999999998	-4581.495	-14654.43	0.0	0.0	0.0	0.0	0.0	0.0	0.0	0.0	0.0	0.0	0.0	0.0	0.0	0.0	144.55172413793105	0.0	0.10107396	0.44018442	0.90258558	6.50076	-0.01526	-0.88508	414836.0	1775936951.716394	0.0	1.0	0.0	-1.0	-1.0	-1.0	1775936951.716394	peace	Peace	2	20260411_124810	Trigger
11139.75	24784.649999999998	-3321.855	-13526.91	0.0	0.0	0.0	0.0	0.0	0.0	0.0	0.0	0.0	0.0	0.0	0.0	0.0	0.0	144.55172413793105	0.0	0.10107396	0.44018442	0.90258558	6.50076	-0.01526	-0.88508	414837.0	1775936951.721873	0.0	1.0	0.0	-1.0	-1.0	-1.0	1775936951.721873	peace	Peace	2	20260411_124810	Trigger
12123.585	22612.59	-2009.115	-12334.41	0.0	0.0	0.0	0.0	0.0	0.0	0.0	0.0	0.0	0.0	0.0	0.0	0.0	0.0	144.55172413793105	0.0	0.10107396	0.44018442	0.90258558	6.50076	-0.01526	-0.88508	414838.0	1775936951.721896	0.0	1.0	0.0	-1.0	-1.0	-1.0	1775936951.721896	peace	Peace	2	20260411_124810	Trigger
12448.035	21394.98	-1603.71	-11950.335	0.0	0.0	0.0	0.0	0.0	0.0	0.0	0.0	0.0	0.0	0.0	0.0	0.0	0.0	144.55172413793105	0.0	0.100280505	0.439146825	0.900815565	5.73776	-0.36624	-1.19028	414839.0	1775936951.724482	0.0	1.0	0.0	-1.0	-1.0	-1.0	1775936951.724482	peace	Peace	2	20260411_124810	Trigger
11177.775	23009.445	-3091.815	-13301.189999999999	0.0	0.0	0.0	0.0	0.0	0.0	0.0	0.0	0.0	0.0	0.0	0.0	0.0	0.0	144.55172413793105	0.0	0.100280505	0.439146825	0.900815565	5.73776	-0.36624	-1.19028	414840.0	1775936951.724508	0.0	1.0	0.0	-1.0	-1.0	-1.0	1775936951.724508	peace	Peace	2	20260411_124810	Trigger
9822.6	25734.42	-4811.445	-14847.345	0.0	0.0	0.0	0.0	0.0	0.0	0.0	0.0	0.0	0.0	0.0	0.0	0.0	0.0	144.55172413793105	0.0	0.100280505	0.439146825	0.900815565	5.73776	-0.36624	-1.19028	414841.0	1775936951.72847	0.0	1.0	0.0	-1.0	-1.0	-1.0	1775936951.72847	peace	Peace	2	20260411_124810	Trigger
9310.904999999999	27447.614999999998	-5688.764999999999	-15625.935	0.0	0.0	0.0	0.0	0.0	0.0	0.0	0.0	0.0	0.0	0.0	0.0	0.0	0.0	144.55172413793105	0.0	0.100280505	0.439146825	0.900815565	5.73776	-0.36624	-1.19028	414842.0	1775936951.728504	0.0	1.0	0.0	-1.0	-1.0	-1.0	1775936951.728504	peace	Peace	2	20260411_124810	Trigger
8833.23	28810.079999999998	-6244.469999999999	-16149.465	0.0	0.0	0.0	0.0	0.0	0.0	0.0	0.0	0.0	0.0	0.0	0.0	0.0	0.0	144.55172413793105	0.0	0.100280505	0.439146825	0.900815565	5.73776	-0.36624	-1.19028	414843.0	1775936951.732972	0.0	1.0	0.0	-1.0	-1.0	-1.0	1775936951.732972	peace	Peace	2	20260411_124810	Trigger
9779.49	27774.539999999997	-5142.599999999999	-15160.994999999999	0.0	0.0	0.0	0.0	0.0	0.0	0.0	0.0	0.0	0.0	0.0	0.0	0.0	0.0	144.55172413793105	0.0	0.100280505	0.439146825	0.900815565	5.73776	-0.36624	-1.19028	414844.0	1775936951.732999	0.0	1.0	0.0	-1.0	-1.0	-1.0	1775936951.732999	peace	Peace	2	20260411_124810	Trigger
10878.3	25528.68	-3679.605	-13841.91	0.0	0.0	0.0	0.0	0.0	0.0	0.0	0.0	0.0	0.0	0.0	0.0	0.0	0.0	144.55172413793105	0.0	0.100280505	0.439146825	0.900815565	5.73776	-0.36624	-1.19028	414845.0	1775936951.736424	0.0	1.0	0.0	-1.0	-1.0	-1.0	1775936951.736424	peace	Peace	2	20260411_124810	Trigger
11750.625	23502.555	-2449.2149999999997	-12739.68	0.0	0.0	0.0	0.0	0.0	0.0	0.0	0.0	0.0	0.0	0.0	0.0	0.0	0.0	144.55172413793105	0.0	0.100280505	0.439146825	0.900815565	5.73776	-0.36624	-1.19028	414846.0	1775936951.736447	0.0	1.0	0.0	-1.0	-1.0	-1.0	1775936951.736447	peace	Peace	2	20260411_124810	Trigger
12465.765	21699.719999999998	-1568.1599999999999	-11925.314999999999	0.0	0.0	0.0	0.0	0.0	0.0	0.0	0.0	0.0	0.0	0.0	0.0	0.0	0.0	144.55172413793105	0.0	0.100280505	0.439146825	0.900815565	5.73776	-0.36624	-1.19028	414847.0	1775936951.740439	0.0	1.0	0.0	-1.0	-1.0	-1.0	1775936951.740439	peace	Peace	2	20260411_124810	Trigger
11659.77	22389.885	-2496.69	-12753.539999999999	0.0	0.0	0.0	0.0	0.0	0.0	0.0	0.0	0.0	0.0	0.0	0.0	0.0	0.0	144.55172413793105	0.0	0.100280505	0.439146825	0.900815565	5.73776	-0.36624	-1.19028	414848.0	1775936951.740462	0.0	1.0	0.0	-1.0	-1.0	-1.0	1775936951.740462	peace	Peace	2	20260411_124810	Trigger
10047.779999999999	25226.46	-4458.24	-14534.414999999999	0.0	0.0	0.0	0.0	0.0	0.0	0.0	0.0	0.0	0.0	0.0	0.0	0.0	0.0	144.55172413793105	0.0	0.100158435	0.441588225	0.90234144	5.84458	-0.4578	-1.69386	414849.0	1775936951.744451	0.0	1.0	0.0	-1.0	-1.0	-1.0	1775936951.744451	peace	Peace	2	20260411_124810	Trigger
9469.845	27110.204999999998	-5449.139999999999	-15417.63	0.0	0.0	0.0	0.0	0.0	0.0	0.0	0.0	0.0	0.0	0.0	0.0	0.0	0.0	144.55172413793105	0.0	0.100158435	0.441588225	0.90234144	5.84458	-0.4578	-1.69386	414850.0	1775936951.744474	0.0	1.0	0.0	-1.0	-1.0	-1.0	1775936951.744474	peace	Peace	2	20260411_124810	Trigger
8824.994999999999	28719.09	-6248.79	-16146.045	0.0	0.0	0.0	0.0	0.0	0.0	0.0	0.0	0.0	0.0	0.0	0.0	0.0	0.0	144.55172413793105	0.0	0.100158435	0.441588225	0.90234144	5.84458	-0.4578	-1.69386	414851.0	1775936951.749775	0.0	1.0	0.0	-1.0	-1.0	-1.0	1775936951.749775	peace	Peace	2	20260411_124810	Trigger
9307.26	28477.35	-5674.005	-15641.369999999999	0.0	0.0	0.0	0.0	0.0	0.0	0.0	0.0	0.0	0.0	0.0	0.0	0.0	0.0	144.55172413793105	0.0	0.100158435	0.441588225	0.90234144	5.84458	-0.4578	-1.69386	414852.0	1775936951.749798	0.0	1.0	0.0	-1.0	-1.0	-1.0	1775936951.749798	peace	Peace	2	20260411_124810	Trigger
10662.66	26144.774999999998	-4022.955	-14151.195	0.0	0.0	0.0	0.0	0.0	0.0	0.0	0.0	0.0	0.0	0.0	0.0	0.0	0.0	144.55172413793105	0.0	0.100158435	0.441588225	0.90234144	5.84458	-0.4578	-1.69386	414853.0	1775936951.752518	0.0	1.0	0.0	-1.0	-1.0	-1.0	1775936951.752518	peace	Peace	2	20260411_124810	Trigger
11431.529999999999	24206.129999999997	-2875.995	-13128.84	0.0	0.0	0.0	0.0	0.0	0.0	0.0	0.0	0.0	0.0	0.0	0.0	0.0	0.0	144.55172413793105	0.0	0.100158435	0.441588225	0.90234144	5.84458	-0.4578	-1.69386	414854.0	1775936951.752541	0.0	1.0	0.0	-1.0	-1.0	-1.0	1775936951.752541	peace	Peace	2	20260411_124810	Trigger
12411.539999999999	22063.184999999998	-1663.605	-12022.154999999999	0.0	0.0	0.0	0.0	0.0	0.0	0.0	0.0	0.0	0.0	0.0	0.0	0.0	0.0	144.55172413793105	0.0	0.100158435	0.441588225	0.90234144	5.84458	-0.4578	-1.69386	414855.0	1775936951.758659	0.0	1.0	0.0	-1.0	-1.0	-1.0	1775936951.758659	peace	Peace	2	20260411_124810	Trigger
12133.08	21829.68	-1978.56	-12292.244999999999	0.0	0.0	0.0	0.0	0.0	0.0	0.0	0.0	0.0	0.0	0.0	0.0	0.0	0.0	144.55172413793105	0.0	0.100158435	0.441588225	0.90234144	5.84458	-0.4578	-1.69386	414856.0	1775936951.758682	0.0	1.0	0.0	-1.0	-1.0	-1.0	1775936951.758682	peace	Peace	2	20260411_124810	Trigger
10456.02	24361.785	-3921.21	-14046.164999999999	0.0	0.0	0.0	0.0	0.0	0.0	0.0	0.0	0.0	0.0	0.0	0.0	0.0	0.0	144.55172413793105	0.0	0.100158435	0.441588225	0.90234144	5.84458	-0.4578	-1.69386	414857.0	1775936951.760554	0.0	1.0	0.0	-1.0	-1.0	-1.0	1775936951.760554	peace	Peace	2	20260411_124810	Trigger
9589.949999999999	26620.02	-5197.005	-15188.76	0.0	0.0	0.0	0.0	0.0	0.0	0.0	0.0	0.0	0.0	0.0	0.0	0.0	0.0	144.55172413793105	0.0	0.100158435	0.441588225	0.90234144	5.84458	-0.4578	-1.69386	414858.0	1775936951.760578	0.0	1.0	0.0	-1.0	-1.0	-1.0	1775936951.760578	peace	Peace	2	20260411_124810	Trigger
9001.395	28313.64	-6061.365	-15971.039999999999	0.0	0.0	0.0	0.0	0.0	0.0	0.0	0.0	0.0	0.0	0.0	0.0	0.0	0.0	144.55172413793105	0.0	0.10180638	0.442076505	0.90026625	4.7306	-0.39676	-0.2289	414859.0	1775936951.764602	0.0	1.0	0.0	-1.0	-1.0	-1.0	1775936951.764602	peace	Peace	2	20260411_124810	Trigger
8979.029999999999	28930.86	-6051.15	-15979.994999999999	0.0	0.0	0.0	0.0	0.0	0.0	0.0	0.0	0.0	0.0	0.0	0.0	0.0	0.0	144.55172413793105	0.0	0.10180638	0.442076505	0.90026625	4.7306	-0.39676	-0.2289	414860.0	1775936951.764646	0.0	1.0	0.0	-1.0	-1.0	-1.0	1775936951.764646	peace	Peace	2	20260411_124810	Trigger
10308.645	26945.01	-4482.405	-14563.8	0.0	0.0	0.0	0.0	0.0	0.0	0.0	0.0	0.0	0.0	0.0	0.0	0.0	0.0	144.55172413793105	0.0	0.10180638	0.442076505	0.90026625	4.7306	-0.39676	-0.2289	414861.0	1775936951.768549	0.0	1.0	0.0	-1.0	-1.0	-1.0	1775936951.768549	peace	Peace	2	20260411_124810	Trigger
11165.625	24881.76	-3245.805	-13460.625	0.0	0.0	0.0	0.0	0.0	0.0	0.0	0.0	0.0	0.0	0.0	0.0	0.0	0.0	144.55172413793105	0.0	0.10180638	0.442076505	0.90026625	4.7306	-0.39676	-0.2289	414862.0	1775936951.768574	0.0	1.0	0.0	-1.0	-1.0	-1.0	1775936951.768574	peace	Peace	2	20260411_124810	Trigger
12198.734999999999	22673.565	-1912.905	-12250.845	0.0	0.0	0.0	0.0	0.0	0.0	0.0	0.0	0.0	0.0	0.0	0.0	0.0	0.0	144.55172413793105	0.0	0.10180638	0.442076505	0.90026625	4.7306	-0.39676	-0.2289	414863.0	1775936951.775176	0.0	1.0	0.0	-1.0	-1.0	-1.0	1775936951.775176	peace	Peace	2	20260411_124810	Trigger
12398.805	21650.219999999998	-1656.54	-12001.095	0.0	0.0	0.0	0.0	0.0	0.0	0.0	0.0	0.0	0.0	0.0	0.0	0.0	0.0	144.55172413793105	0.0	0.10180638	0.442076505	0.90026625	4.7306	-0.39676	-0.2289	414864.0	1775936951.775205	0.0	1.0	0.0	-1.0	-1.0	-1.0	1775936951.775205	peace	Peace	2	20260411_124810	Trigger
11024.055	23479.02	-3265.2	-13460.85	0.0	0.0	0.0	0.0	0.0	0.0	0.0	0.0	0.0	0.0	0.0	0.0	0.0	0.0	144.55172413793105	0.0	0.10180638	0.442076505	0.90026625	4.7306	-0.39676	-0.2289	414865.0	1775936951.776652	0.0	1.0	0.0	-1.0	-1.0	-1.0	1775936951.776652	peace	Peace	2	20260411_124810	Trigger
9745.335	26162.954999999998	-4934.295	-14961.914999999999	0.0	0.0	0.0	0.0	0.0	0.0	0.0	0.0	0.0	0.0	0.0	0.0	0.0	0.0	144.55172413793105	0.0	0.10180638	0.442076505	0.90026625	4.7306	-0.39676	-0.2289	414866.0	1775936951.776676	0.0	1.0	0.0	-1.0	-1.0	-1.0	1775936951.776676	peace	Peace	2	20260411_124810	Trigger
9200.97	27847.62	-5811.705	-15739.695	0.0	0.0	0.0	0.0	0.0	0.0	0.0	0.0	0.0	0.0	0.0	0.0	0.0	0.0	144.55172413793105	0.0	0.10180638	0.442076505	0.90026625	4.7306	-0.39676	-0.2289	414867.0	1775936951.780597	0.0	1.0	0.0	-1.0	-1.0	-1.0	1775936951.780597	peace	Peace	2	20260411_124810	Trigger
8811.404999999999	29034.225	-6250.139999999999	-16152.119999999999	0.0	0.0	0.0	0.0	0.0	0.0	0.0	0.0	0.0	0.0	0.0	0.0	0.0	0.0	144.55172413793105	0.0	0.10180638	0.442076505	0.90026625	4.7306	-0.39676	-0.2289	414868.0	1775936951.780626	0.0	1.0	0.0	-1.0	-1.0	-1.0	1775936951.780626	peace	Peace	2	20260411_124810	Trigger
9911.835	27691.469999999998	-5007.195	-15046.425	0.0	0.0	0.0	0.0	0.0	0.0	0.0	0.0	0.0	0.0	0.0	0.0	0.0	0.0	144.55172413793105	0.0	0.10217259000000001	0.440245455	0.902158335	4.6543	0.21364	-1.57178	414869.0	1775936951.784754	0.0	1.0	0.0	-1.0	-1.0	-1.0	1775936951.784754	peace	Peace	2	20260411_124810	Trigger
10978.56	25428.329999999998	-3578.355	-13764.33	0.0	0.0	0.0	0.0	0.0	0.0	0.0	0.0	0.0	0.0	0.0	0.0	0.0	0.0	144.55172413793105	0.0	0.10217259000000001	0.440245455	0.902158335	4.6543	0.21364	-1.57178	414870.0	1775936951.784781	0.0	1.0	0.0	-1.0	-1.0	-1.0	1775936951.784781	peace	Peace	2	20260411_124810	Trigger
11918.52	23294.61	-2277.495	-12584.564999999999	0.0	0.0	0.0	0.0	0.0	0.0	0.0	0.0	0.0	0.0	0.0	0.0	0.0	0.0	144.55172413793105	0.0	0.10217259000000001	0.440245455	0.902158335	4.6543	0.21364	-1.57178	414871.0	1775936951.788598	0.0	1.0	0.0	-1.0	-1.0	-1.0	1775936951.788598	peace	Peace	2	20260411_124810	Trigger
12532.41	21585.69	-1499.3999999999999	-11856.689999999999	0.0	0.0	0.0	0.0	0.0	0.0	0.0	0.0	0.0	0.0	0.0	0.0	0.0	0.0	144.55172413793105	0.0	0.10217259000000001	0.440245455	0.902158335	4.6543	0.21364	-1.57178	414872.0	1775936951.788623	0.0	1.0	0.0	-1.0	-1.0	-1.0	1775936951.788623	peace	Peace	2	20260411_124810	Trigger
11613.645	22501.26	-2579.4	-12830.984999999999	0.0	0.0	0.0	0.0	0.0	0.0	0.0	0.0	0.0	0.0	0.0	0.0	0.0	0.0	144.55172413793105	0.0	0.10217259000000001	0.440245455	0.902158335	4.6543	0.21364	-1.57178	414873.0	1775936951.792657	0.0	1.0	0.0	-1.0	-1.0	-1.0	1775936951.792657	peace	Peace	2	20260411_124810	Trigger
9986.22	25395.885	-4551.974999999999	-14614.47	0.0	0.0	0.0	0.0	0.0	0.0	0.0	0.0	0.0	0.0	0.0	0.0	0.0	0.0	144.55172413793105	0.0	0.10217259000000001	0.440245455	0.902158335	4.6543	0.21364	-1.57178	414874.0	1775936951.792677	0.0	1.0	0.0	-1.0	-1.0	-1.0	1775936951.792677	peace	Peace	2	20260411_124810	Trigger
9425.385	27238.094999999998	-5506.92	-15462.99	0.0	0.0	0.0	0.0	0.0	0.0	0.0	0.0	0.0	0.0	0.0	0.0	0.0	0.0	144.55172413793105	0.0	0.10217259000000001	0.440245455	0.902158335	4.6543	0.21364	-1.57178	414875.0	1775936951.796716	0.0	1.0	0.0	-1.0	-1.0	-1.0	1775936951.796716	peace	Peace	2	20260411_124810	Trigger
8848.98	28777.32	-6230.115	-16129.98	0.0	0.0	0.0	0.0	0.0	0.0	0.0	0.0	0.0	0.0	0.0	0.0	0.0	0.0	144.55172413793105	0.0	0.10217259000000001	0.440245455	0.902158335	4.6543	0.21364	-1.57178	414876.0	1775936951.796749	0.0	1.0	0.0	-1.0	-1.0	-1.0	1775936951.796749	peace	Peace	2	20260411_124810	Trigger
9478.395	28300.86	-5501.07	-15490.98	0.0	0.0	0.0	0.0	0.0	0.0	0.0	0.0	0.0	0.0	0.0	0.0	0.0	0.0	144.55172413793105	0.0	0.10217259000000001	0.440245455	0.902158335	4.6543	0.21364	-1.57178	414877.0	1775936951.80077	0.0	1.0	0.0	-1.0	-1.0	-1.0	1775936951.80077	peace	Peace	2	20260411_124810	Trigger
10765.035	25971.84	-3909.825	-14056.244999999999	0.0	0.0	0.0	0.0	0.0	0.0	0.0	0.0	0.0	0.0	0.0	0.0	0.0	0.0	144.55172413793105	0.0	0.10217259000000001	0.440245455	0.902158335	4.6543	0.21364	-1.57178	414878.0	1775936951.800802	0.0	1.0	0.0	-1.0	-1.0	-1.0	1775936951.800802	peace	Peace	2	20260411_124810	Trigger
11578.095	23955.57	-2705.4	-12972.24	0.0	0.0	0.0	0.0	0.0	0.0	0.0	0.0	0.0	0.0	0.0	0.0	0.0	0.0	144.55172413793105	0.0	0.10192845	0.44012338500000003	0.902646615	6.7143999999999995	0.71722	-1.11398	414879.0	1775936951.804768	0.0	1.0	0.0	-1.0	-1.0	-1.0	1775936951.804768	peace	Peace	2	20260411_124810	Trigger
12493.17	21841.829999999998	-1544.58	-11900.88	0.0	0.0	0.0	0.0	0.0	0.0	0.0	0.0	0.0	0.0	0.0	0.0	0.0	0.0	144.55172413793105	0.0	0.10192845	0.44012338500000003	0.902646615	6.7143999999999995	0.71722	-1.11398	414880.0	1775936951.804799	0.0	1.0	0.0	-1.0	-1.0	-1.0	1775936951.804799	peace	Peace	2	20260411_124810	Trigger
12082.859999999999	21840.795	-2035.4399999999998	-12333.6	0.0	0.0	0.0	0.0	0.0	0.0	0.0	0.0	0.0	0.0	0.0	0.0	0.0	0.0	144.55172413793105	0.0	0.10192845	0.44012338500000003	0.902646615	6.7143999999999995	0.71722	-1.11398	414881.0	1775936951.808784	0.0	1.0	0.0	-1.0	-1.0	-1.0	1775936951.808784	peace	Peace	2	20260411_124810	Trigger
10394.91	24517.395	-4040.37	-14157.449999999999	0.0	0.0	0.0	0.0	0.0	0.0	0.0	0.0	0.0	0.0	0.0	0.0	0.0	0.0	144.55172413793105	0.0	0.10192845	0.44012338500000003	0.902646615	6.7143999999999995	0.71722	-1.11398	414882.0	1775936951.808811	0.0	1.0	0.0	-1.0	-1.0	-1.0	1775936951.808811	peace	Peace	2	20260411_124810	Trigger
9571.949999999999	26722.98	-5255.91	-15241.455	0.0	0.0	0.0	0.0	0.0	0.0	0.0	0.0	0.0	0.0	0.0	0.0	0.0	0.0	144.55172413793105	0.0	0.10192845	0.44012338500000003	0.902646615	6.7143999999999995	0.71722	-1.11398	414883.0	1775936951.812624	0.0	1.0	0.0	-1.0	-1.0	-1.0	1775936951.812624	peace	Peace	2	20260411_124810	Trigger
8952.93	28398.015	-6109.0199999999995	-16013.519999999999	0.0	0.0	0.0	0.0	0.0	0.0	0.0	0.0	0.0	0.0	0.0	0.0	0.0	0.0	144.55172413793105	0.0	0.10192845	0.44012338500000003	0.902646615	6.7143999999999995	0.71722	-1.11398	414884.0	1775936951.812648	0.0	1.0	0.0	-1.0	-1.0	-1.0	1775936951.812648	peace	Peace	2	20260411_124810	Trigger
9054.945	28795.59	-5961.42	-15899.894999999999	0.0	0.0	0.0	0.0	0.0	0.0	0.0	0.0	0.0	0.0	0.0	0.0	0.0	0.0	144.55172413793105	0.0	0.10192845	0.44012338500000003	0.902646615	6.7143999999999995	0.71722	-1.11398	414885.0	1775936951.816627	0.0	1.0	0.0	-1.0	-1.0	-1.0	1775936951.816627	peace	Peace	2	20260411_124810	Trigger
10418.445	26673.12	-4346.595	-14443.785	0.0	0.0	0.0	0.0	0.0	0.0	0.0	0.0	0.0	0.0	0.0	0.0	0.0	0.0	144.55172413793105	0.0	0.10192845	0.44012338500000003	0.902646615	6.7143999999999995	0.71722	-1.11398	414886.0	1775936951.816662	0.0	1.0	0.0	-1.0	-1.0	-1.0	1775936951.816662	peace	Peace	2	20260411_124810	Trigger
11256.975	24634.89	-3125.9249999999997	-13351.455	0.0	0.0	0.0	0.0	0.0	0.0	0.0	0.0	0.0	0.0	0.0	0.0	0.0	0.0	144.55172413793105	0.0	0.10192845	0.44012338500000003	0.902646615	6.7143999999999995	0.71722	-1.11398	414887.0	1775936951.820649	0.0	1.0	0.0	-1.0	-1.0	-1.0	1775936951.820649	peace	Peace	2	20260411_124810	Trigger
12313.17	22378.23	-1789.02	-12137.265	0.0	0.0	0.0	0.0	0.0	0.0	0.0	0.0	0.0	0.0	0.0	0.0	0.0	0.0	144.55172413793105	0.0	0.10192845	0.44012338500000003	0.902646615	6.7143999999999995	0.71722	-1.11398	414888.0	1775936951.820673	0.0	1.0	0.0	-1.0	-1.0	-1.0	1775936951.820673	peace	Peace	2	20260411_124810	Trigger
12398.58	21529.62	-1671.6599999999999	-12012.57	0.0	0.0	0.0	0.0	0.0	0.0	0.0	0.0	0.0	0.0	0.0	0.0	0.0	0.0	144.55172413793105	0.0	0.1000974	0.440367525	0.90234144	5.27996	0.27468	-0.8087799999999999	414889.0	1775936951.824752	0.0	1.0	0.0	-1.0	-1.0	-1.0	1775936951.824752	peace	Peace	2	20260411_124810	Trigger
10910.25	23583.285	-3396.7799999999997	-13570.92	0.0	0.0	0.0	0.0	0.0	0.0	0.0	0.0	0.0	0.0	0.0	0.0	0.0	0.0	144.55172413793105	0.0	0.1000974	0.440367525	0.90234144	5.27996	0.27468	-0.8087799999999999	414890.0	1775936951.824786	0.0	1.0	0.0	-1.0	-1.0	-1.0	1775936951.824786	peace	Peace	2	20260411_124810	Trigger
9727.875	26219.204999999998	-4990.724999999999	-15012.0	0.0	0.0	0.0	0.0	0.0	0.0	0.0	0.0	0.0	0.0	0.0	0.0	0.0	0.0	144.55172413793105	0.0	0.1000974	0.440367525	0.90234144	5.27996	0.27468	-0.8087799999999999	414891.0	1775936951.828761	0.0	1.0	0.0	-1.0	-1.0	-1.0	1775936951.828761	peace	Peace	2	20260411_124810	Trigger
9168.48	27900.405	-5858.37	-15782.805	0.0	0.0	0.0	0.0	0.0	0.0	0.0	0.0	0.0	0.0	0.0	0.0	0.0	0.0	144.55172413793105	0.0	0.1000974	0.440367525	0.90234144	5.27996	0.27468	-0.8087799999999999	414892.0	1775936951.828787	0.0	1.0	0.0	-1.0	-1.0	-1.0	1775936951.828787	peace	Peace	2	20260411_124810	Trigger
8847.63	28959.524999999998	-6204.554999999999	-16117.289999999999	0.0	0.0	0.0	0.0	0.0	0.0	0.0	0.0	0.0	0.0	0.0	0.0	0.0	0.0	144.55172413793105	0.0	0.1000974	0.440367525	0.90234144	5.27996	0.27468	-0.8087799999999999	414893.0	1775936951.832682	0.0	1.0	0.0	-1.0	-1.0	-1.0	1775936951.832682	peace	Peace	2	20260411_124810	Trigger
10006.38	27422.46	-4860.99	-14904.72	0.0	0.0	0.0	0.0	0.0	0.0	0.0	0.0	0.0	0.0	0.0	0.0	0.0	0.0	144.55172413793105	0.0	0.1000974	0.440367525	0.90234144	5.27996	0.27468	-0.8087799999999999	414894.0	1775936951.83271	0.0	1.0	0.0	-1.0	-1.0	-1.0	1775936951.83271	peace	Peace	2	20260411_124810	Trigger
11025.359999999999	25195.59	-3478.365	-13664.654999999999	0.0	0.0	0.0	0.0	0.0	0.0	0.0	0.0	0.0	0.0	0.0	0.0	0.0	0.0	144.55172413793105	0.0	0.1000974	0.440367525	0.90234144	5.27996	0.27468	-0.8087799999999999	414895.0	1775936951.836708	0.0	1.0	0.0	-1.0	-1.0	-1.0	1775936951.836708	peace	Peace	2	20260411_124810	Trigger
12015.494999999999	23028.344999999998	-2160.4049999999997	-12479.039999999999	0.0	0.0	0.0	0.0	0.0	0.0	0.0	0.0	0.0	0.0	0.0	0.0	0.0	0.0	144.55172413793105	0.0	0.1000974	0.440367525	0.90234144	5.27996	0.27468	-0.8087799999999999	414896.0	1775936951.836734	0.0	1.0	0.0	-1.0	-1.0	-1.0	1775936951.836734	peace	Peace	2	20260411_124810	Trigger
12531.869999999999	21478.905	-1516.05	-11875.859999999999	0.0	0.0	0.0	0.0	0.0	0.0	0.0	0.0	0.0	0.0	0.0	0.0	0.0	0.0	144.55172413793105	0.0	0.1000974	0.440367525	0.90234144	5.27996	0.27468	-0.8087799999999999	414897.0	1775936951.840742	0.0	1.0	0.0	-1.0	-1.0	-1.0	1775936951.840742	peace	Peace	2	20260411_124810	Trigger
11462.984999999999	22638.555	-2743.065	-12979.17	0.0	0.0	0.0	0.0	0.0	0.0	0.0	0.0	0.0	0.0	0.0	0.0	0.0	0.0	144.55172413793105	0.0	0.1000974	0.440367525	0.90234144	5.27996	0.27468	-0.8087799999999999	414898.0	1775936951.840767	0.0	1.0	0.0	-1.0	-1.0	-1.0	1775936951.840767	peace	Peace	2	20260411_124810	Trigger
9922.095	25520.76	-4650.75	-14706.539999999999	0.0	0.0	0.0	0.0	0.0	0.0	0.0	0.0	0.0	0.0	0.0	0.0	0.0	0.0	144.55172413793105	0.0	0.10082982	0.440001315	0.901792125	5.35626	-0.12208	-1.8006799999999998	414899.0	1775936951.845842	0.0	1.0	0.0	-1.0	-1.0	-1.0	1775936951.845842	peace	Peace	2	20260411_124810	Trigger
9398.565	27315.945	-5577.795	-15534.314999999999	0.0	0.0	0.0	0.0	0.0	0.0	0.0	0.0	0.0	0.0	0.0	0.0	0.0	0.0	144.55172413793105	0.0	0.10082982	0.440001315	0.901792125	5.35626	-0.12208	-1.8006799999999998	414900.0	1775936951.845866	0.0	1.0	0.0	-1.0	-1.0	-1.0	1775936951.845866	peace	Peace	2	20260411_124810	Trigger
8838.135	28795.454999999998	-6251.94	-16161.029999999999	0.0	0.0	0.0	0.0	0.0	0.0	0.0	0.0	0.0	0.0	0.0	0.0	0.0	0.0	144.55172413793105	0.0	0.10082982	0.440001315	0.901792125	5.35626	-0.12208	-1.8006799999999998	414901.0	1775936951.848785	0.0	1.0	0.0	-1.0	-1.0	-1.0	1775936951.848785	peace	Peace	2	20260411_124810	Trigger
9553.14	28091.835	-5390.054999999999	-15385.005	0.0	0.0	0.0	0.0	0.0	0.0	0.0	0.0	0.0	0.0	0.0	0.0	0.0	0.0	144.55172413793105	0.0	0.10082982	0.440001315	0.901792125	5.35626	-0.12208	-1.8006799999999998	414902.0	1775936951.84881	0.0	1.0	0.0	-1.0	-1.0	-1.0	1775936951.84881	peace	Peace	2	20260411_124810	Trigger
10804.68	25742.43	-3816.225	-13967.64	0.0	0.0	0.0	0.0	0.0	0.0	0.0	0.0	0.0	0.0	0.0	0.0	0.0	0.0	144.55172413793105	0.0	0.10082982	0.440001315	0.901792125	5.35626	-0.12208	-1.8006799999999998	414903.0	1775936951.85289	0.0	1.0	0.0	-1.0	-1.0	-1.0	1775936951.85289	peace	Peace	2	20260411_124810	Trigger
11663.234999999999	23726.024999999998	-2596.5899999999997	-12874.005	0.0	0.0	0.0	0.0	0.0	0.0	0.0	0.0	0.0	0.0	0.0	0.0	0.0	0.0	144.55172413793105	0.0	0.10082982	0.440001315	0.901792125	5.35626	-0.12208	-1.8006799999999998	414904.0	1775936951.852918	0.0	1.0	0.0	-1.0	-1.0	-1.0	1775936951.852918	peace	Peace	2	20260411_124810	Trigger
12533.715	21703.545	-1523.655	-11890.98	0.0	0.0	0.0	0.0	0.0	0.0	0.0	0.0	0.0	0.0	0.0	0.0	0.0	0.0	144.55172413793105	0.0	0.10082982	0.440001315	0.901792125	5.35626	-0.12208	-1.8006799999999998	414905.0	1775936951.856793	0.0	1.0	0.0	-1.0	-1.0	-1.0	1775936951.856793	peace	Peace	2	20260411_124810	Trigger
11978.279999999999	21925.98	-2155.59	-12450.195	0.0	0.0	0.0	0.0	0.0	0.0	0.0	0.0	0.0	0.0	0.0	0.0	0.0	0.0	144.55172413793105	0.0	0.10082982	0.440001315	0.901792125	5.35626	-0.12208	-1.8006799999999998	414906.0	1775936951.856817	0.0	1.0	0.0	-1.0	-1.0	-1.0	1775936951.856817	peace	Peace	2	20260411_124810	Trigger
10272.465	24688.26	-4173.345	-14274.404999999999	0.0	0.0	0.0	0.0	0.0	0.0	0.0	0.0	0.0	0.0	0.0	0.0	0.0	0.0	144.55172413793105	0.0	0.10082982	0.440001315	0.901792125	5.35626	-0.12208	-1.8006799999999998	414907.0	1775936951.863482	0.0	1.0	0.0	-1.0	-1.0	-1.0	1775936951.863482	peace	Peace	2	20260411_124810	Trigger
9544.68	26788.77	-5313.87	-15291.539999999999	0.0	0.0	0.0	0.0	0.0	0.0	0.0	0.0	0.0	0.0	0.0	0.0	0.0	0.0	144.55172413793105	0.0	0.10082982	0.440001315	0.901792125	5.35626	-0.12208	-1.8006799999999998	414908.0	1775936951.863507	0.0	1.0	0.0	-1.0	-1.0	-1.0	1775936951.863507	peace	Peace	2	20260411_124810	Trigger
8951.085	28417.545	-6133.094999999999	-16041.914999999999	0.0	0.0	0.0	0.0	0.0	0.0	0.0	0.0	0.0	0.0	0.0	0.0	0.0	0.0	144.55172413793105	0.0	0.102355695	0.440367525	0.90185316	5.753019999999999	0.33571999999999996	-1.78542	414909.0	1775936951.864846	0.0	1.0	0.0	-1.0	-1.0	-1.0	1775936951.864846	peace	Peace	2	20260411_124810	Trigger
9186.119999999999	28578.105	-5843.7	-15800.265	0.0	0.0	0.0	0.0	0.0	0.0	0.0	0.0	0.0	0.0	0.0	0.0	0.0	0.0	144.55172413793105	0.0	0.102355695	0.440367525	0.90185316	5.753019999999999	0.33571999999999996	-1.78542	414910.0	1775936951.86487	0.0	1.0	0.0	-1.0	-1.0	-1.0	1775936951.86487	peace	Peace	2	20260411_124810	Trigger
10552.455	26339.625	-4210.155	-14326.56	0.0	0.0	0.0	0.0	0.0	0.0	0.0	0.0	0.0	0.0	0.0	0.0	0.0	0.0	144.55172413793105	0.0	0.102355695	0.440367525	0.90185316	5.753019999999999	0.33571999999999996	-1.78542	414911.0	1775936951.870051	0.0	1.0	0.0	-1.0	-1.0	-1.0	1775936951.870051	peace	Peace	2	20260411_124810	Trigger
11365.65	24315.03	-3002.49	-13245.164999999999	0.0	0.0	0.0	0.0	0.0	0.0	0.0	0.0	0.0	0.0	0.0	0.0	0.0	0.0	144.55172413793105	0.0	0.102355695	0.440367525	0.90185316	5.753019999999999	0.33571999999999996	-1.78542	414912.0	1775936951.870075	0.0	1.0	0.0	-1.0	-1.0	-1.0	1775936951.870075	peace	Peace	2	20260411_124810	Trigger
12376.98	22089.555	-1714.0049999999999	-12067.965	0.0	0.0	0.0	0.0	0.0	0.0	0.0	0.0	0.0	0.0	0.0	0.0	0.0	0.0	144.55172413793105	0.0	0.102355695	0.440367525	0.90185316	5.753019999999999	0.33571999999999996	-1.78542	414913.0	1775936951.872859	0.0	1.0	0.0	-1.0	-1.0	-1.0	1775936951.872859	peace	Peace	2	20260411_124810	Trigger
12335.445	21456.135	-1756.3049999999998	-12093.705	0.0	0.0	0.0	0.0	0.0	0.0	0.0	0.0	0.0	0.0	0.0	0.0	0.0	0.0	144.55172413793105	0.0	0.102355695	0.440367525	0.90185316	5.753019999999999	0.33571999999999996	-1.78542	414914.0	1775936951.872885	0.0	1.0	0.0	-1.0	-1.0	-1.0	1775936951.872885	peace	Peace	2	20260411_124810	Trigger
10779.029999999999	23688.225	-3565.845	-13729.545	0.0	0.0	0.0	0.0	0.0	0.0	0.0	0.0	0.0	0.0	0.0	0.0	0.0	0.0	144.55172413793105	0.0	0.102355695	0.440367525	0.90185316	5.753019999999999	0.33571999999999996	-1.78542	414915.0	1775936951.876877	0.0	1.0	0.0	-1.0	-1.0	-1.0	1775936951.876877	peace	Peace	2	20260411_124810	Trigger
9697.32	26193.735	-5039.595	-15050.385	0.0	0.0	0.0	0.0	0.0	0.0	0.0	0.0	0.0	0.0	0.0	0.0	0.0	0.0	144.55172413793105	0.0	0.102355695	0.440367525	0.90185316	5.753019999999999	0.33571999999999996	-1.78542	414916.0	1775936951.876901	0.0	1.0	0.0	-1.0	-1.0	-1.0	1775936951.876901	peace	Peace	2	20260411_124810	Trigger
9172.71	27816.66	-5868.719999999999	-15790.23	0.0	0.0	0.0	0.0	0.0	0.0	0.0	0.0	0.0	0.0	0.0	0.0	0.0	0.0	144.55172413793105	0.0	0.102355695	0.440367525	0.90185316	5.753019999999999	0.33571999999999996	-1.78542	414917.0	1775936951.883098	0.0	1.0	0.0	-1.0	-1.0	-1.0	1775936951.883098	peace	Peace	2	20260411_124810	Trigger
8960.445	28689.885	-6095.79	-16019.099999999999	0.0	0.0	0.0	0.0	0.0	0.0	0.0	0.0	0.0	0.0	0.0	0.0	0.0	0.0	144.55172413793105	0.0	0.102355695	0.440367525	0.90185316	5.753019999999999	0.33571999999999996	-1.78542	414918.0	1775936951.883122	0.0	1.0	0.0	-1.0	-1.0	-1.0	1775936951.883122	peace	Peace	2	20260411_124810	Trigger
10139.445	27052.515	-4711.86	-14776.83	0.0	0.0	0.0	0.0	0.0	0.0	0.0	0.0	0.0	0.0	0.0	0.0	0.0	0.0	144.55172413793105	0.0	0.10290501	0.44128305	0.900815565	4.89846	0.42728	-0.85456	414919.0	1775936951.884842	0.0	1.0	0.0	-1.0	-1.0	-1.0	1775936951.884842	peace	Peace	2	20260411_124810	Trigger
10996.695	25026.84	-3469.455	-13664.789999999999	0.0	0.0	0.0	0.0	0.0	0.0	0.0	0.0	0.0	0.0	0.0	0.0	0.0	0.0	144.55172413793105	0.0	0.10290501	0.44128305	0.900815565	4.89846	0.42728	-0.85456	414920.0	1775936951.88487	0.0	1.0	0.0	-1.0	-1.0	-1.0	1775936951.88487	peace	Peace	2	20260411_124810	Trigger
11811.645	23092.02	-2315.0699999999997	-12621.06	0.0	0.0	0.0	0.0	0.0	0.0	0.0	0.0	0.0	0.0	0.0	0.0	0.0	0.0	144.55172413793105	0.0	0.10290501	0.44128305	0.900815565	4.89846	0.42728	-0.85456	414921.0	1775936951.889687	0.0	1.0	0.0	-1.0	-1.0	-1.0	1775936951.889687	peace	Peace	2	20260411_124810	Trigger
12197.43	21849.075	-1849.5449999999998	-12195.18	0.0	0.0	0.0	0.0	0.0	0.0	0.0	0.0	0.0	0.0	0.0	0.0	0.0	0.0	144.55172413793105	0.0	0.10290501	0.44128305	0.900815565	4.89846	0.42728	-0.85456	414922.0	1775936951.889712	0.0	1.0	0.0	-1.0	-1.0	-1.0	1775936951.889712	peace	Peace	2	20260411_124810	Trigger
11162.744999999999	23116.32	-3073.185	-13287.06	0.0	0.0	0.0	0.0	0.0	0.0	0.0	0.0	0.0	0.0	0.0	0.0	0.0	0.0	144.55172413793105	0.0	0.10290501	0.44128305	0.900815565	4.89846	0.42728	-0.85456	414923.0	1775936951.892894	0.0	1.0	0.0	-1.0	-1.0	-1.0	1775936951.892894	peace	Peace	2	20260411_124810	Trigger
9916.109999999999	25676.504999999997	-4721.94	-14774.535	0.0	0.0	0.0	0.0	0.0	0.0	0.0	0.0	0.0	0.0	0.0	0.0	0.0	0.0	144.55172413793105	0.0	0.10290501	0.44128305	0.900815565	4.89846	0.42728	-0.85456	414924.0	1775936951.892917	0.0	1.0	0.0	-1.0	-1.0	-1.0	1775936951.892917	peace	Peace	2	20260411_124810	Trigger
9470.97	27267.524999999998	-5536.755	-15498.314999999999	0.0	0.0	0.0	0.0	0.0	0.0	0.0	0.0	0.0	0.0	0.0	0.0	0.0	0.0	144.55172413793105	0.0	0.10290501	0.44128305	0.900815565	4.89846	0.42728	-0.85456	414925.0	1775936951.896863	0.0	1.0	0.0	-1.0	-1.0	-1.0	1775936951.896863	peace	Peace	2	20260411_124810	Trigger
8972.505	28593.045	-6120.945	-16036.244999999999	0.0	0.0	0.0	0.0	0.0	0.0	0.0	0.0	0.0	0.0	0.0	0.0	0.0	0.0	144.55172413793105	0.0	0.10290501	0.44128305	0.900815565	4.89846	0.42728	-0.85456	414926.0	1775936951.896887	0.0	1.0	0.0	-1.0	-1.0	-1.0	1775936951.896887	peace	Peace	2	20260411_124810	Trigger
9730.035	27760.86	-5209.2	-15219.494999999999	0.0	0.0	0.0	0.0	0.0	0.0	0.0	0.0	0.0	0.0	0.0	0.0	0.0	0.0	144.55172413793105	0.0	0.10290501	0.44128305	0.900815565	4.89846	0.42728	-0.85456	414927.0	1775936951.900948	0.0	1.0	0.0	-1.0	-1.0	-1.0	1775936951.900948	peace	Peace	2	20260411_124810	Trigger
10804.994999999999	25573.004999999997	-3774.24	-13932.09	0.0	0.0	0.0	0.0	0.0	0.0	0.0	0.0	0.0	0.0	0.0	0.0	0.0	0.0	144.55172413793105	0.0	0.10290501	0.44128305	0.900815565	4.89846	0.42728	-0.85456	414928.0	1775936951.900971	0.0	1.0	0.0	-1.0	-1.0	-1.0	1775936951.900971	peace	Peace	2	20260411_124810	Trigger
11578.859999999999	23698.215	-2643.8849999999998	-12920.894999999999	0.0	0.0	0.0	0.0	0.0	0.0	0.0	0.0	0.0	0.0	0.0	0.0	0.0	0.0	144.55172413793105	0.0	0.102233625	0.442930995	0.89953383	4.59326	0.73248	-1.4497	414929.0	1775936951.904924	0.0	1.0	0.0	-1.0	-1.0	-1.0	1775936951.904924	peace	Peace	2	20260411_124810	Trigger
12274.65	21945.87	-1754.1899999999998	-12106.484999999999	0.0	0.0	0.0	0.0	0.0	0.0	0.0	0.0	0.0	0.0	0.0	0.0	0.0	0.0	144.55172413793105	0.0	0.102233625	0.442930995	0.89953383	4.59326	0.73248	-1.4497	414930.0	1775936951.904947	0.0	1.0	0.0	-1.0	-1.0	-1.0	1775936951.904947	peace	Peace	2	20260411_124810	Trigger
11663.01	22367.655	-2475.36	-12747.195	0.0	0.0	0.0	0.0	0.0	0.0	0.0	0.0	0.0	0.0	0.0	0.0	0.0	0.0	144.55172413793105	0.0	0.102233625	0.442930995	0.89953383	4.59326	0.73248	-1.4497	414931.0	1775936951.913163	0.0	1.0	0.0	-1.0	-1.0	-1.0	1775936951.913163	peace	Peace	2	20260411_124810	Trigger
10139.984999999999	25007.309999999998	-4342.095	-14435.01	0.0	0.0	0.0	0.0	0.0	0.0	0.0	0.0	0.0	0.0	0.0	0.0	0.0	0.0	144.55172413793105	0.0	0.102233625	0.442930995	0.89953383	4.59326	0.73248	-1.4497	414932.0	1775936951.913187	0.0	1.0	0.0	-1.0	-1.0	-1.0	1775936951.913187	peace	Peace	2	20260411_124810	Trigger
9562.725	26866.71	-5332.7699999999995	-15311.654999999999	0.0	0.0	0.0	0.0	0.0	0.0	0.0	0.0	0.0	0.0	0.0	0.0	0.0	0.0	144.55172413793105	0.0	0.102233625	0.442930995	0.89953383	4.59326	0.73248	-1.4497	414933.0	1775936951.913217	0.0	1.0	0.0	-1.0	-1.0	-1.0	1775936951.913217	peace	Peace	2	20260411_124810	Trigger
9051.84	28312.469999999998	-6042.24	-15959.699999999999	0.0	0.0	0.0	0.0	0.0	0.0	0.0	0.0	0.0	0.0	0.0	0.0	0.0	0.0	144.55172413793105	0.0	0.102233625	0.442930995	0.89953383	4.59326	0.73248	-1.4497	414934.0	1775936951.91324	0.0	1.0	0.0	-1.0	-1.0	-1.0	1775936951.91324	peace	Peace	2	20260411_124810	Trigger
9400.095	28220.805	-5618.745	-15594.48	0.0	0.0	0.0	0.0	0.0	0.0	0.0	0.0	0.0	0.0	0.0	0.0	0.0	0.0	144.55172413793105	0.0	0.102233625	0.442930995	0.89953383	4.59326	0.73248	-1.4497	414935.0	1775936951.916939	0.0	1.0	0.0	-1.0	-1.0	-1.0	1775936951.916939	peace	Peace	2	20260411_124810	Trigger
10592.279999999999	26103.87	-4117.905	-14239.71	0.0	0.0	0.0	0.0	0.0	0.0	0.0	0.0	0.0	0.0	0.0	0.0	0.0	0.0	144.55172413793105	0.0	0.102233625	0.442930995	0.89953383	4.59326	0.73248	-1.4497	414936.0	1775936951.916962	0.0	1.0	0.0	-1.0	-1.0	-1.0	1775936951.916962	peace	Peace	2	20260411_124810	Trigger
11307.555	24255.0	-3019.9049999999997	-13264.38	0.0	0.0	0.0	0.0	0.0	0.0	0.0	0.0	0.0	0.0	0.0	0.0	0.0	0.0	144.55172413793105	0.0	0.102233625	0.442930995	0.89953383	4.59326	0.73248	-1.4497	414937.0	1775936951.920961	0.0	1.0	0.0	-1.0	-1.0	-1.0	1775936951.920961	peace	Peace	2	20260411_124810	Trigger
12187.125	22246.11	-1875.51	-12221.55	0.0	0.0	0.0	0.0	0.0	0.0	0.0	0.0	0.0	0.0	0.0	0.0	0.0	0.0	144.55172413793105	0.0	0.102233625	0.442930995	0.89953383	4.59326	0.73248	-1.4497	414938.0	1775936951.920984	0.0	1.0	0.0	-1.0	-1.0	-1.0	1775936951.920984	peace	Peace	2	20260411_124810	Trigger
12049.109999999999	21845.879999999997	-2039.985	-12355.425	0.0	0.0	0.0	0.0	0.0	0.0	0.0	0.0	0.0	0.0	0.0	0.0	0.0	0.0	144.55172413793105	0.0	0.101745345	0.44409066	0.902890755	5.1273599999999995	0.54936	-1.03768	414939.0	1775936951.926398	0.0	1.0	0.0	-1.0	-1.0	-1.0	1775936951.926398	peace	Peace	2	20260411_124810	Trigger
10569.33	24093.719999999998	-3807.54	-13952.97	0.0	0.0	0.0	0.0	0.0	0.0	0.0	0.0	0.0	0.0	0.0	0.0	0.0	0.0	144.55172413793105	0.0	0.101745345	0.44409066	0.902890755	5.1273599999999995	0.54936	-1.03768	414940.0	1775936951.926422	0.0	1.0	0.0	-1.0	-1.0	-1.0	1775936951.926422	peace	Peace	2	20260411_124810	Trigger
9716.94	26304.57	-5068.26	-15078.33	0.0	0.0	0.0	0.0	0.0	0.0	0.0	0.0	0.0	0.0	0.0	0.0	0.0	0.0	144.55172413793105	0.0	0.101745345	0.44409066	0.902890755	5.1273599999999995	0.54936	-1.03768	414941.0	1775936951.929054	0.0	1.0	0.0	-1.0	-1.0	-1.0	1775936951.929054	peace	Peace	2	20260411_124810	Trigger
9262.529999999999	27793.754999999997	-5820.03	-15748.38	0.0	0.0	0.0	0.0	0.0	0.0	0.0	0.0	0.0	0.0	0.0	0.0	0.0	0.0	144.55172413793105	0.0	0.101745345	0.44409066	0.902890755	5.1273599999999995	0.54936	-1.03768	414942.0	1775936951.929077	0.0	1.0	0.0	-1.0	-1.0	-1.0	1775936951.929077	peace	Peace	2	20260411_124810	Trigger
9169.605	28428.66	-5893.29	-15832.98	0.0	0.0	0.0	0.0	0.0	0.0	0.0	0.0	0.0	0.0	0.0	0.0	0.0	0.0	144.55172413793105	0.0	0.101745345	0.44409066	0.902890755	5.1273599999999995	0.54936	-1.03768	414943.0	1775936951.933263	0.0	1.0	0.0	-1.0	-1.0	-1.0	1775936951.933263	peace	Peace	2	20260411_124810	Trigger
10293.66	26725.05	-4536.09	-14614.56	0.0	0.0	0.0	0.0	0.0	0.0	0.0	0.0	0.0	0.0	0.0	0.0	0.0	0.0	144.55172413793105	0.0	0.101745345	0.44409066	0.902890755	5.1273599999999995	0.54936	-1.03768	414944.0	1775936951.933289	0.0	1.0	0.0	-1.0	-1.0	-1.0	1775936951.933289	peace	Peace	2	20260411_124810	Trigger
11084.76	24811.379999999997	-3361.8599999999997	-13568.22	0.0	0.0	0.0	0.0	0.0	0.0	0.0	0.0	0.0	0.0	0.0	0.0	0.0	0.0	144.55172413793105	0.0	0.101745345	0.44409066	0.902890755	5.1273599999999995	0.54936	-1.03768	414945.0	1775936951.936996	0.0	1.0	0.0	-1.0	-1.0	-1.0	1775936951.936996	peace	Peace	2	20260411_124810	Trigger
11992.005	22758.344999999998	-2125.62	-12445.965	0.0	0.0	0.0	0.0	0.0	0.0	0.0	0.0	0.0	0.0	0.0	0.0	0.0	0.0	144.55172413793105	0.0	0.101745345	0.44409066	0.902890755	5.1273599999999995	0.54936	-1.03768	414946.0	1775936951.937021	0.0	1.0	0.0	-1.0	-1.0	-1.0	1775936951.937021	peace	Peace	2	20260411_124810	Trigger
12266.955	21652.02	-1779.9299999999998	-12117.689999999999	0.0	0.0	0.0	0.0	0.0	0.0	0.0	0.0	0.0	0.0	0.0	0.0	0.0	0.0	144.55172413793105	0.0	0.101745345	0.44409066	0.902890755	5.1273599999999995	0.54936	-1.03768	414947.0	1775936951.94098	0.0	1.0	0.0	-1.0	-1.0	-1.0	1775936951.94098	peace	Peace	2	20260411_124810	Trigger
11076.795	23192.37	-3190.9049999999997	-13388.49	0.0	0.0	0.0	0.0	0.0	0.0	0.0	0.0	0.0	0.0	0.0	0.0	0.0	0.0	144.55172413793105	0.0	0.101745345	0.44409066	0.902890755	5.1273599999999995	0.54936	-1.03768	414948.0	1775936951.941003	0.0	1.0	0.0	-1.0	-1.0	-1.0	1775936951.941003	peace	Peace	2	20260411_124810	Trigger
9849.69	25777.754999999997	-4817.655	-14859.404999999999	0.0	0.0	0.0	0.0	0.0	0.0	0.0	0.0	0.0	0.0	0.0	0.0	0.0	0.0	144.55172413793105	0.0	0.10034154	0.44152719	0.90234144	3.95234	-0.62566	0.24416	414949.0	1775936951.945045	0.0	1.0	0.0	-1.0	-1.0	-1.0	1775936951.945045	peace	Peace	2	20260411_124810	Trigger
9421.02	27323.145	-5590.304999999999	-15532.605	0.0	0.0	0.0	0.0	0.0	0.0	0.0	0.0	0.0	0.0	0.0	0.0	0.0	0.0	144.55172413793105	0.0	0.10034154	0.44152719	0.90234144	3.95234	-0.62566	0.24416	414950.0	1775936951.945069	0.0	1.0	0.0	-1.0	-1.0	-1.0	1775936951.945069	peace	Peace	2	20260411_124810	Trigger
9043.785	28458.585	-6037.29	-15953.445	0.0	0.0	0.0	0.0	0.0	0.0	0.0	0.0	0.0	0.0	0.0	0.0	0.0	0.0	144.55172413793105	0.0	0.10034154	0.44152719	0.90234144	3.95234	-0.62566	0.24416	414951.0	1775936951.949014	0.0	1.0	0.0	-1.0	-1.0	-1.0	1775936951.949014	peace	Peace	2	20260411_124810	Trigger
9888.029999999999	27440.28	-5028.255	-15052.68	0.0	0.0	0.0	0.0	0.0	0.0	0.0	0.0	0.0	0.0	0.0	0.0	0.0	0.0	144.55172413793105	0.0	0.10034154	0.44152719	0.90234144	3.95234	-0.62566	0.24416	414952.0	1775936951.949038	0.0	1.0	0.0	-1.0	-1.0	-1.0	1775936951.949038	peace	Peace	2	20260411_124810	Trigger
10883.025	25357.68	-3678.435	-13845.914999999999	0.0	0.0	0.0	0.0	0.0	0.0	0.0	0.0	0.0	0.0	0.0	0.0	0.0	0.0	144.55172413793105	0.0	0.10034154	0.44152719	0.90234144	3.95234	-0.62566	0.24416	414953.0	1775936951.953076	0.0	1.0	0.0	-1.0	-1.0	-1.0	1775936951.953076	peace	Peace	2	20260411_124810	Trigger
11754.945	23346.225	-2455.1549999999997	-12747.689999999999	0.0	0.0	0.0	0.0	0.0	0.0	0.0	0.0	0.0	0.0	0.0	0.0	0.0	0.0	144.55172413793105	0.0	0.10034154	0.44152719	0.90234144	3.95234	-0.62566	0.24416	414954.0	1775936951.9531	0.0	1.0	0.0	-1.0	-1.0	-1.0	1775936951.9531	peace	Peace	2	20260411_124810	Trigger
12433.77	21596.445	-1612.845	-11972.835	0.0	0.0	0.0	0.0	0.0	0.0	0.0	0.0	0.0	0.0	0.0	0.0	0.0	0.0	144.55172413793105	0.0	0.10034154	0.44152719	0.90234144	3.95234	-0.62566	0.24416	414955.0	1775936951.957097	0.0	1.0	0.0	-1.0	-1.0	-1.0	1775936951.957097	peace	Peace	2	20260411_124810	Trigger
11670.66	22261.725	-2507.22	-12767.535	0.0	0.0	0.0	0.0	0.0	0.0	0.0	0.0	0.0	0.0	0.0	0.0	0.0	0.0	144.55172413793105	0.0	0.10034154	0.44152719	0.90234144	3.95234	-0.62566	0.24416	414956.0	1775936951.957121	0.0	1.0	0.0	-1.0	-1.0	-1.0	1775936951.957121	peace	Peace	2	20260411_124810	Trigger
10101.734999999999	25043.805	-4438.349999999999	-14516.91	0.0	0.0	0.0	0.0	0.0	0.0	0.0	0.0	0.0	0.0	0.0	0.0	0.0	0.0	144.55172413793105	0.0	0.10034154	0.44152719	0.90234144	3.95234	-0.62566	0.24416	414957.0	1775936951.96106	0.0	1.0	0.0	-1.0	-1.0	-1.0	1775936951.96106	peace	Peace	2	20260411_124810	Trigger
9544.725	26914.454999999998	-5414.535	-15390.855	0.0	0.0	0.0	0.0	0.0	0.0	0.0	0.0	0.0	0.0	0.0	0.0	0.0	0.0	144.55172413793105	0.0	0.10034154	0.44152719	0.90234144	3.95234	-0.62566	0.24416	414958.0	1775936951.961088	0.0	1.0	0.0	-1.0	-1.0	-1.0	1775936951.961088	peace	Peace	2	20260411_124810	Trigger
8981.91	28401.434999999998	-6117.795	-16024.545	0.0	0.0	0.0	0.0	0.0	0.0	0.0	0.0	0.0	0.0	0.0	0.0	0.0	0.0	144.55172413793105	0.0	0.09997533	0.43810923	0.902646615	5.06632	0.24416	-1.6022999999999998	414959.0	1775936951.965088	0.0	1.0	0.0	-1.0	-1.0	-1.0	1775936951.965088	peace	Peace	2	20260411_124810	Trigger
9437.49	28159.92	-5563.71	-15545.43	0.0	0.0	0.0	0.0	0.0	0.0	0.0	0.0	0.0	0.0	0.0	0.0	0.0	0.0	144.55172413793105	0.0	0.09997533	0.43810923	0.902646615	5.06632	0.24416	-1.6022999999999998	414960.0	1775936951.965113	0.0	1.0	0.0	-1.0	-1.0	-1.0	1775936951.965113	peace	Peace	2	20260411_124810	Trigger
10699.289999999999	25942.14	-3999.645	-14137.605	0.0	0.0	0.0	0.0	0.0	0.0	0.0	0.0	0.0	0.0	0.0	0.0	0.0	0.0	144.55172413793105	0.0	0.09997533	0.43810923	0.902646615	5.06632	0.24416	-1.6022999999999998	414961.0	1775936951.969047	0.0	1.0	0.0	-1.0	-1.0	-1.0	1775936951.969047	peace	Peace	2	20260411_124810	Trigger
11510.91	23947.02	-2791.575	-13045.05	0.0	0.0	0.0	0.0	0.0	0.0	0.0	0.0	0.0	0.0	0.0	0.0	0.0	0.0	144.55172413793105	0.0	0.09997533	0.43810923	0.902646615	5.06632	0.24416	-1.6022999999999998	414962.0	1775936951.969071	0.0	1.0	0.0	-1.0	-1.0	-1.0	1775936951.969071	peace	Peace	2	20260411_124810	Trigger
12495.96	21748.184999999998	-1568.475	-11926.439999999999	0.0	0.0	0.0	0.0	0.0	0.0	0.0	0.0	0.0	0.0	0.0	0.0	0.0	0.0	144.55172413793105	0.0	0.09997533	0.43810923	0.902646615	5.06632	0.24416	-1.6022999999999998	414963.0	1775936951.973152	0.0	1.0	0.0	-1.0	-1.0	-1.0	1775936951.973152	peace	Peace	2	20260411_124810	Trigger
12198.824999999999	21530.969999999998	-1902.78	-12210.705	0.0	0.0	0.0	0.0	0.0	0.0	0.0	0.0	0.0	0.0	0.0	0.0	0.0	0.0	144.55172413793105	0.0	0.09997533	0.43810923	0.902646615	5.06632	0.24416	-1.6022999999999998	414964.0	1775936951.973176	0.0	1.0	0.0	-1.0	-1.0	-1.0	1775936951.973176	peace	Peace	2	20260411_124810	Trigger
10530.225	24094.62	-3861.45	-13983.255	0.0	0.0	0.0	0.0	0.0	0.0	0.0	0.0	0.0	0.0	0.0	0.0	0.0	0.0	144.55172413793105	0.0	0.09997533	0.43810923	0.902646615	5.06632	0.24416	-1.6022999999999998	414965.0	1775936951.97717	0.0	1.0	0.0	-1.0	-1.0	-1.0	1775936951.97717	peace	Peace	2	20260411_124810	Trigger
9606.42	26457.57	-5199.4349999999995	-15187.05	0.0	0.0	0.0	0.0	0.0	0.0	0.0	0.0	0.0	0.0	0.0	0.0	0.0	0.0	144.55172413793105	0.0	0.09997533	0.43810923	0.902646615	5.06632	0.24416	-1.6022999999999998	414966.0	1775936951.977194	0.0	1.0	0.0	-1.0	-1.0	-1.0	1775936951.977194	peace	Peace	2	20260411_124810	Trigger
9049.185	28091.835	-6019.695	-15930.18	0.0	0.0	0.0	0.0	0.0	0.0	0.0	0.0	0.0	0.0	0.0	0.0	0.0	0.0	144.55172413793105	0.0	0.09997533	0.43810923	0.902646615	5.06632	0.24416	-1.6022999999999998	414967.0	1775936951.983056	0.0	1.0	0.0	-1.0	-1.0	-1.0	1775936951.983056	peace	Peace	2	20260411_124810	Trigger
9056.654999999999	28622.43	-5977.44	-15910.92	0.0	0.0	0.0	0.0	0.0	0.0	0.0	0.0	0.0	0.0	0.0	0.0	0.0	0.0	144.55172413793105	0.0	0.09997533	0.43810923	0.902646615	5.06632	0.24416	-1.6022999999999998	414968.0	1775936951.98308	0.0	1.0	0.0	-1.0	-1.0	-1.0	1775936951.98308	peace	Peace	2	20260411_124810	Trigger
10369.529999999999	26636.579999999998	-4425.165	-14509.755	0.0	0.0	0.0	0.0	0.0	0.0	0.0	0.0	0.0	0.0	0.0	0.0	0.0	0.0	144.55172413793105	0.0	0.10095189	0.439452	0.903134895	5.98192	0.42728	-1.26658	414969.0	1775936951.985077	0.0	1.0	0.0	-1.0	-1.0	-1.0	1775936951.985077	peace	Peace	2	20260411_124810	Trigger
11266.83	24563.655	-3155.49	-13374.404999999999	0.0	0.0	0.0	0.0	0.0	0.0	0.0	0.0	0.0	0.0	0.0	0.0	0.0	0.0	144.55172413793105	0.0	0.10095189	0.439452	0.903134895	5.98192	0.42728	-1.26658	414970.0	1775936951.9851	0.0	1.0	0.0	-1.0	-1.0	-1.0	1775936951.9851	peace	Peace	2	20260411_124810	Trigger
12381.93	22215.375	-1740.33	-12083.939999999999	0.0	0.0	0.0	0.0	0.0	0.0	0.0	0.0	0.0	0.0	0.0	0.0	0.0	0.0	144.55172413793105	0.0	0.10095189	0.439452	0.903134895	5.98192	0.42728	-1.26658	414971.0	1775936951.989199	0.0	1.0	0.0	-1.0	-1.0	-1.0	1775936951.989199	peace	Peace	2	20260411_124810	Trigger
12563.279999999999	21177.405	-1507.59	-11852.955	0.0	0.0	0.0	0.0	0.0	0.0	0.0	0.0	0.0	0.0	0.0	0.0	0.0	0.0	144.55172413793105	0.0	0.10095189	0.439452	0.903134895	5.98192	0.42728	-1.26658	414972.0	1775936951.989253	0.0	1.0	0.0	-1.0	-1.0	-1.0	1775936951.989253	peace	Peace	2	20260411_124810	Trigger
11158.965	23046.344999999998	-3162.285	-13354.154999999999	0.0	0.0	0.0	0.0	0.0	0.0	0.0	0.0	0.0	0.0	0.0	0.0	0.0	0.0	144.55172413793105	0.0	0.10095189	0.439452	0.903134895	5.98192	0.42728	-1.26658	414973.0	1775936951.994483	0.0	1.0	0.0	-1.0	-1.0	-1.0	1775936951.994483	peace	Peace	2	20260411_124810	Trigger
9776.744999999999	25877.969999999998	-4926.24	-14950.845	0.0	0.0	0.0	0.0	0.0	0.0	0.0	0.0	0.0	0.0	0.0	0.0	0.0	0.0	144.55172413793105	0.0	0.10095189	0.439452	0.903134895	5.98192	0.42728	-1.26658	414974.0	1775936951.994507	0.0	1.0	0.0	-1.0	-1.0	-1.0	1775936951.994507	peace	Peace	2	20260411_124810	Trigger
9236.205	27610.245	-5803.425	-15731.64	0.0	0.0	0.0	0.0	0.0	0.0	0.0	0.0	0.0	0.0	0.0	0.0	0.0	0.0	144.55172413793105	0.0	0.10095189	0.439452	0.903134895	5.98192	0.42728	-1.26658	414975.0	1775936951.998846	0.0	1.0	0.0	-1.0	-1.0	-1.0	1775936951.998846	peace	Peace	2	20260411_124810	Trigger
8862.119999999999	28773.855	-6224.715	-16132.32	0.0	0.0	0.0	0.0	0.0	0.0	0.0	0.0	0.0	0.0	0.0	0.0	0.0	0.0	144.55172413793105	0.0	0.10095189	0.439452	0.903134895	5.98192	0.42728	-1.26658	414976.0	1775936951.998869	0.0	1.0	0.0	-1.0	-1.0	-1.0	1775936951.998869	peace	Peace	2	20260411_124810	Trigger
9937.125	27394.829999999998	-4948.875	-14977.08	0.0	0.0	0.0	0.0	0.0	0.0	0.0	0.0	0.0	0.0	0.0	0.0	0.0	0.0	144.55172413793105	0.0	0.10095189	0.439452	0.903134895	5.98192	0.42728	-1.26658	414977.0	1775936952.001143	0.0	1.0	0.0	-1.0	-1.0	-1.0	1775936952.001143	peace	Peace	2	20260411_124810	Trigger
11018.025	25142.219999999998	-3504.7799999999997	-13683.24	0.0	0.0	0.0	0.0	0.0	0.0	0.0	0.0	0.0	0.0	0.0	0.0	0.0	0.0	144.55172413793105	0.0	0.10095189	0.439452	0.903134895	5.98192	0.42728	-1.26658	414978.0	1775936952.001167	0.0	1.0	0.0	-1.0	-1.0	-1.0	1775936952.001167	peace	Peace	2	20260411_124810	Trigger
12069.449999999999	22894.515	-2112.75	-12422.564999999999	0.0	0.0	0.0	0.0	0.0	0.0	0.0	0.0	0.0	0.0	0.0	0.0	0.0	0.0	144.55172413793105	0.0	0.10058568	0.441099945	0.89990004	4.440659999999999	0.35097999999999996	-0.73248	414979.0	1775936952.005199	0.0	1.0	0.0	-1.0	-1.0	-1.0	1775936952.005199	peace	Peace	2	20260411_124810	Trigger
12690.404999999999	21185.28	-1357.5149999999999	-11722.23	0.0	0.0	0.0	0.0	0.0	0.0	0.0	0.0	0.0	0.0	0.0	0.0	0.0	0.0	144.55172413793105	0.0	0.10058568	0.441099945	0.89990004	4.440659999999999	0.35097999999999996	-0.73248	414980.0	1775936952.005222	0.0	1.0	0.0	-1.0	-1.0	-1.0	1775936952.005222	peace	Peace	2	20260411_124810	Trigger
11726.955	22150.89	-2483.73	-12732.84	0.0	0.0	0.0	0.0	0.0	0.0	0.0	0.0	0.0	0.0	0.0	0.0	0.0	0.0	144.55172413793105	0.0	0.10058568	0.441099945	0.89990004	4.440659999999999	0.35097999999999996	-0.73248	414981.0	1775936952.009163	0.0	1.0	0.0	-1.0	-1.0	-1.0	1775936952.009163	peace	Peace	2	20260411_124810	Trigger
10018.619999999999	25172.37	-4537.304999999999	-14592.24	0.0	0.0	0.0	0.0	0.0	0.0	0.0	0.0	0.0	0.0	0.0	0.0	0.0	0.0	144.55172413793105	0.0	0.10058568	0.441099945	0.89990004	4.440659999999999	0.35097999999999996	-0.73248	414982.0	1775936952.009186	0.0	1.0	0.0	-1.0	-1.0	-1.0	1775936952.009186	peace	Peace	2	20260411_124810	Trigger
9392.58	27135.36	-5547.78	-15495.48	0.0	0.0	0.0	0.0	0.0	0.0	0.0	0.0	0.0	0.0	0.0	0.0	0.0	0.0	144.55172413793105	0.0	0.10058568	0.441099945	0.89990004	4.440659999999999	0.35097999999999996	-0.73248	414983.0	1775936952.013189	0.0	1.0	0.0	-1.0	-1.0	-1.0	1775936952.013189	peace	Peace	2	20260411_124810	Trigger
8836.11	28655.954999999998	-6246.9	-16142.49	0.0	0.0	0.0	0.0	0.0	0.0	0.0	0.0	0.0	0.0	0.0	0.0	0.0	0.0	144.55172413793105	0.0	0.10058568	0.441099945	0.89990004	4.440659999999999	0.35097999999999996	-0.73248	414984.0	1775936952.013212	0.0	1.0	0.0	-1.0	-1.0	-1.0	1775936952.013212	peace	Peace	2	20260411_124810	Trigger
9498.51	28112.489999999998	-5470.92	-15454.845	0.0	0.0	0.0	0.0	0.0	0.0	0.0	0.0	0.0	0.0	0.0	0.0	0.0	0.0	144.55172413793105	0.0	0.10058568	0.441099945	0.89990004	4.440659999999999	0.35097999999999996	-0.73248	414985.0	1775936952.017744	0.0	1.0	0.0	-1.0	-1.0	-1.0	1775936952.017744	peace	Peace	2	20260411_124810	Trigger
10797.93	25781.399999999998	-3858.2999999999997	-14002.109999999999	0.0	0.0	0.0	0.0	0.0	0.0	0.0	0.0	0.0	0.0	0.0	0.0	0.0	0.0	144.55172413793105	0.0	0.10058568	0.441099945	0.89990004	4.440659999999999	0.35097999999999996	-0.73248	414986.0	1775936952.017767	0.0	1.0	0.0	-1.0	-1.0	-1.0	1775936952.017767	peace	Peace	2	20260411_124810	Trigger
11726.775	23658.524999999998	-2558.745	-12831.525	0.0	0.0	0.0	0.0	0.0	0.0	0.0	0.0	0.0	0.0	0.0	0.0	0.0	0.0	144.55172413793105	0.0	0.10058568	0.441099945	0.89990004	4.440659999999999	0.35097999999999996	-0.73248	414987.0	1775936952.021242	0.0	1.0	0.0	-1.0	-1.0	-1.0	1775936952.021242	peace	Peace	2	20260411_124810	Trigger
12683.07	21461.355	-1372.2749999999999	-11736.27	0.0	0.0	0.0	0.0	0.0	0.0	0.0	0.0	0.0	0.0	0.0	0.0	0.0	0.0	144.55172413793105	0.0	0.10058568	0.441099945	0.89990004	4.440659999999999	0.35097999999999996	-0.73248	414988.0	1775936952.021265	0.0	1.0	0.0	-1.0	-1.0	-1.0	1775936952.021265	peace	Peace	2	20260411_124810	Trigger
12217.859999999999	21517.829999999998	-1909.5749999999998	-12213.0	0.0	0.0	0.0	0.0	0.0	0.0	0.0	0.0	0.0	0.0	0.0	0.0	0.0	0.0	144.55172413793105	0.0	0.100890855	0.442442715	0.9017310900000001	4.3491	0.19838	-1.2818399999999999	414989.0	1775936952.025241	0.0	1.0	0.0	-1.0	-1.0	-1.0	1775936952.025241	peace	Peace	2	20260411_124810	Trigger
10436.355	24336.765	-4003.3799999999997	-14113.619999999999	0.0	0.0	0.0	0.0	0.0	0.0	0.0	0.0	0.0	0.0	0.0	0.0	0.0	0.0	144.55172413793105	0.0	0.100890855	0.442442715	0.9017310900000001	4.3491	0.19838	-1.2818399999999999	414990.0	1775936952.025263	0.0	1.0	0.0	-1.0	-1.0	-1.0	1775936952.025263	peace	Peace	2	20260411_124810	Trigger
9534.465	26692.695	-5305.275	-15279.255	0.0	0.0	0.0	0.0	0.0	0.0	0.0	0.0	0.0	0.0	0.0	0.0	0.0	0.0	144.55172413793105	0.0	0.100890855	0.442442715	0.9017310900000001	4.3491	0.19838	-1.2818399999999999	414991.0	1775936952.029443	0.0	1.0	0.0	-1.0	-1.0	-1.0	1775936952.029443	peace	Peace	2	20260411_124810	Trigger
8943.57	28364.805	-6136.2	-16036.56	0.0	0.0	0.0	0.0	0.0	0.0	0.0	0.0	0.0	0.0	0.0	0.0	0.0	0.0	144.55172413793105	0.0	0.100890855	0.442442715	0.9017310900000001	4.3491	0.19838	-1.2818399999999999	414992.0	1775936952.029466	0.0	1.0	0.0	-1.0	-1.0	-1.0	1775936952.029466	peace	Peace	2	20260411_124810	Trigger
9119.295	28665.27	-5926.545	-15872.13	0.0	0.0	0.0	0.0	0.0	0.0	0.0	0.0	0.0	0.0	0.0	0.0	0.0	0.0	144.55172413793105	0.0	0.100890855	0.442442715	0.9017310900000001	4.3491	0.19838	-1.2818399999999999	414993.0	1775936952.033199	0.0	1.0	0.0	-1.0	-1.0	-1.0	1775936952.033199	peace	Peace	2	20260411_124810	Trigger
10469.43	26494.739999999998	-4287.915	-14381.685	0.0	0.0	0.0	0.0	0.0	0.0	0.0	0.0	0.0	0.0	0.0	0.0	0.0	0.0	144.55172413793105	0.0	0.100890855	0.442442715	0.9017310900000001	4.3491	0.19838	-1.2818399999999999	414994.0	1775936952.033222	0.0	1.0	0.0	-1.0	-1.0	-1.0	1775936952.033222	peace	Peace	2	20260411_124810	Trigger
11375.865	24368.579999999998	-2999.6549999999997	-13224.824999999999	0.0	0.0	0.0	0.0	0.0	0.0	0.0	0.0	0.0	0.0	0.0	0.0	0.0	0.0	144.55172413793105	0.0	0.100890855	0.442442715	0.9017310900000001	4.3491	0.19838	-1.2818399999999999	414995.0	1775936952.037315	0.0	1.0	0.0	-1.0	-1.0	-1.0	1775936952.037315	peace	Peace	2	20260411_124810	Trigger
12522.779999999999	21979.934999999998	-1594.44	-11948.49	0.0	0.0	0.0	0.0	0.0	0.0	0.0	0.0	0.0	0.0	0.0	0.0	0.0	0.0	144.55172413793105	0.0	0.100890855	0.442442715	0.9017310900000001	4.3491	0.19838	-1.2818399999999999	414996.0	1775936952.037354	0.0	1.0	0.0	-1.0	-1.0	-1.0	1775936952.037354	peace	Peace	2	20260411_124810	Trigger
12550.859999999999	21160.71	-1526.8049999999998	-11864.385	0.0	0.0	0.0	0.0	0.0	0.0	0.0	0.0	0.0	0.0	0.0	0.0	0.0	0.0	144.55172413793105	0.0	0.100890855	0.442442715	0.9017310900000001	4.3491	0.19838	-1.2818399999999999	414997.0	1775936952.045962	0.0	1.0	0.0	-1.0	-1.0	-1.0	1775936952.045962	peace	Peace	2	20260411_124810	Trigger
10979.955	23313.285	-3326.22	-13490.01	0.0	0.0	0.0	0.0	0.0	0.0	0.0	0.0	0.0	0.0	0.0	0.0	0.0	0.0	144.55172413793105	0.0	0.100890855	0.442442715	0.9017310900000001	4.3491	0.19838	-1.2818399999999999	414998.0	1775936952.045994	0.0	1.0	0.0	-1.0	-1.0	-1.0	1775936952.045994	peace	Peace	2	20260411_124810	Trigger
9694.935	26120.61	-5028.03	-15035.625	0.0	0.0	0.0	0.0	0.0	0.0	0.0	0.0	0.0	0.0	0.0	0.0	0.0	0.0	144.55172413793105	0.0	0.10156224	0.442686855	0.90038832	3.6013599999999997	0.57988	-0.15259999999999999	414999.0	1775936952.046033	0.0	1.0	0.0	-1.0	-1.0	-1.0	1775936952.046033	peace	Peace	2	20260411_124810	Trigger
9127.035	27878.579999999998	-5916.6449999999995	-15831.9	0.0	0.0	0.0	0.0	0.0	0.0	0.0	0.0	0.0	0.0	0.0	0.0	0.0	0.0	144.55172413793105	0.0	0.10156224	0.442686855	0.90038832	3.6013599999999997	0.57988	-0.15259999999999999	415000.0	1775936952.046059	0.0	1.0	0.0	-1.0	-1.0	-1.0	1775936952.046059	peace	Peace	2	20260411_124810	Trigger
8848.26	28913.895	-6228.719999999999	-16142.715	0.0	0.0	0.0	0.0	0.0	0.0	0.0	0.0	0.0	0.0	0.0	0.0	0.0	0.0	144.55172413793105	0.0	0.10156224	0.442686855	0.90038832	3.6013599999999997	0.57988	-0.15259999999999999	415001.0	1775936952.0493	0.0	1.0	0.0	-1.0	-1.0	-1.0	1775936952.0493	peace	Peace	2	20260411_124810	Trigger
10068.795	27301.725	-4825.9349999999995	-14878.935	0.0	0.0	0.0	0.0	0.0	0.0	0.0	0.0	0.0	0.0	0.0	0.0	0.0	0.0	144.55172413793105	0.0	0.10156224	0.442686855	0.90038832	3.6013599999999997	0.57988	-0.15259999999999999	415002.0	1775936952.049333	0.0	1.0	0.0	-1.0	-1.0	-1.0	1775936952.049333	peace	Peace	2	20260411_124810	Trigger
11119.949999999999	25007.085	-3377.0699999999997	-13563.09	0.0	0.0	0.0	0.0	0.0	0.0	0.0	0.0	0.0	0.0	0.0	0.0	0.0	0.0	144.55172413793105	0.0	0.10156224	0.442686855	0.90038832	3.6013599999999997	0.57988	-0.15259999999999999	415003.0	1775936952.053403	0.0	1.0	0.0	-1.0	-1.0	-1.0	1775936952.053403	peace	Peace	2	20260411_124810	Trigger
12231.0	22673.655	-1940.6699999999998	-12259.529999999999	0.0	0.0	0.0	0.0	0.0	0.0	0.0	0.0	0.0	0.0	0.0	0.0	0.0	0.0	144.55172413793105	0.0	0.10156224	0.442686855	0.90038832	3.6013599999999997	0.57988	-0.15259999999999999	415004.0	1775936952.053437	0.0	1.0	0.0	-1.0	-1.0	-1.0	1775936952.053437	peace	Peace	2	20260411_124810	Trigger
12733.02	21132.719999999998	-1322.415	-11686.095	0.0	0.0	0.0	0.0	0.0	0.0	0.0	0.0	0.0	0.0	0.0	0.0	0.0	0.0	144.55172413793105	0.0	0.10156224	0.442686855	0.90038832	3.6013599999999997	0.57988	-0.15259999999999999	415005.0	1775936952.059328	0.0	1.0	0.0	-1.0	-1.0	-1.0	1775936952.059328	peace	Peace	2	20260411_124810	Trigger
11594.52	22389.344999999998	-2630.25	-12863.205	0.0	0.0	0.0	0.0	0.0	0.0	0.0	0.0	0.0	0.0	0.0	0.0	0.0	0.0	144.55172413793105	0.0	0.10156224	0.442686855	0.90038832	3.6013599999999997	0.57988	-0.15259999999999999	415006.0	1775936952.059363	0.0	1.0	0.0	-1.0	-1.0	-1.0	1775936952.059363	peace	Peace	2	20260411_124810	Trigger
9916.92	25455.42	-4661.1449999999995	-14703.164999999999	0.0	0.0	0.0	0.0	0.0	0.0	0.0	0.0	0.0	0.0	0.0	0.0	0.0	0.0	144.55172413793105	0.0	0.10156224	0.442686855	0.90038832	3.6013599999999997	0.57988	-0.15259999999999999	415007.0	1775936952.061504	0.0	1.0	0.0	-1.0	-1.0	-1.0	1775936952.061504	peace	Peace	2	20260411_124810	Trigger
9299.115	27396.315	-5663.385	-15599.519999999999	0.0	0.0	0.0	0.0	0.0	0.0	0.0	0.0	0.0	0.0	0.0	0.0	0.0	0.0	144.55172413793105	0.0	0.10156224	0.442686855	0.90038832	3.6013599999999997	0.57988	-0.15259999999999999	415008.0	1775936952.061532	0.0	1.0	0.0	-1.0	-1.0	-1.0	1775936952.061532	peace	Peace	2	20260411_124810	Trigger
8773.425	28864.395	-6308.955	-16205.085	0.0	0.0	0.0	0.0	0.0	0.0	0.0	0.0	0.0	0.0	0.0	0.0	0.0	0.0	144.55172413793105	0.0	0.10180638	0.44012338500000003	0.901425915	4.59326	0.79352	-0.85456	415009.0	1775936952.066896	0.0	1.0	0.0	-1.0	-1.0	-1.0	1775936952.066896	peace	Peace	2	20260411_124810	Trigger
9589.05	28067.309999999998	-5364.8099999999995	-15359.625	0.0	0.0	0.0	0.0	0.0	0.0	0.0	0.0	0.0	0.0	0.0	0.0	0.0	0.0	144.55172413793105	0.0	0.10180638	0.44012338500000003	0.901425915	4.59326	0.79352	-0.85456	415010.0	1775936952.066927	0.0	1.0	0.0	-1.0	-1.0	-1.0	1775936952.066927	peace	Peace	2	20260411_124810	Trigger
10872.045	25679.655	-3748.68	-13898.07	0.0	0.0	0.0	0.0	0.0	0.0	0.0	0.0	0.0	0.0	0.0	0.0	0.0	0.0	144.55172413793105	0.0	0.10180638	0.44012338500000003	0.901425915	4.59326	0.79352	-0.85456	415011.0	1775936952.070725	0.0	1.0	0.0	-1.0	-1.0	-1.0	1775936952.070725	peace	Peace	2	20260411_124810	Trigger
11855.385	23485.454999999998	-2413.98	-12702.24	0.0	0.0	0.0	0.0	0.0	0.0	0.0	0.0	0.0	0.0	0.0	0.0	0.0	0.0	144.55172413793105	0.0	0.10180638	0.44012338500000003	0.901425915	4.59326	0.79352	-0.85456	415012.0	1775936952.070752	0.0	1.0	0.0	-1.0	-1.0	-1.0	1775936952.070752	peace	Peace	2	20260411_124810	Trigger
12737.88	21365.594999999998	-1316.385	-11689.02	0.0	0.0	0.0	0.0	0.0	0.0	0.0	0.0	0.0	0.0	0.0	0.0	0.0	0.0	144.55172413793105	0.0	0.10180638	0.44012338500000003	0.901425915	4.59326	0.79352	-0.85456	415013.0	1775936952.073947	0.0	1.0	0.0	-1.0	-1.0	-1.0	1775936952.073947	peace	Peace	2	20260411_124810	Trigger
12114.945	21671.82	-2021.895	-12313.529999999999	0.0	0.0	0.0	0.0	0.0	0.0	0.0	0.0	0.0	0.0	0.0	0.0	0.0	0.0	144.55172413793105	0.0	0.10180638	0.44012338500000003	0.901425915	4.59326	0.79352	-0.85456	415014.0	1775936952.073971	0.0	1.0	0.0	-1.0	-1.0	-1.0	1775936952.073971	peace	Peace	2	20260411_124810	Trigger
10310.4	24616.395	-4156.74	-14251.05	0.0	0.0	0.0	0.0	0.0	0.0	0.0	0.0	0.0	0.0	0.0	0.0	0.0	0.0	144.55172413793105	0.0	0.10180638	0.44012338500000003	0.901425915	4.59326	0.79352	-0.85456	415015.0	1775936952.080872	0.0	1.0	0.0	-1.0	-1.0	-1.0	1775936952.080872	peace	Peace	2	20260411_124810	Trigger
9486.585	26874.36	-5391.855	-15355.755	0.0	0.0	0.0	0.0	0.0	0.0	0.0	0.0	0.0	0.0	0.0	0.0	0.0	0.0	144.55172413793105	0.0	0.10180638	0.44012338500000003	0.901425915	4.59326	0.79352	-0.85456	415016.0	1775936952.080908	0.0	1.0	0.0	-1.0	-1.0	-1.0	1775936952.080908	peace	Peace	2	20260411_124810	Trigger
8856.27	28571.76	-6236.1449999999995	-16134.57	0.0	0.0	0.0	0.0	0.0	0.0	0.0	0.0	0.0	0.0	0.0	0.0	0.0	0.0	144.55172413793105	0.0	0.10180638	0.44012338500000003	0.901425915	4.59326	0.79352	-0.85456	415017.0	1775936952.094471	0.0	1.0	0.0	-1.0	-1.0	-1.0	1775936952.094471	peace	Peace	2	20260411_124810	Trigger
9137.295	28674.539999999997	-5876.82	-15821.775	0.0	0.0	0.0	0.0	0.0	0.0	0.0	0.0	0.0	0.0	0.0	0.0	0.0	0.0	144.55172413793105	0.0	0.10180638	0.44012338500000003	0.901425915	4.59326	0.79352	-0.85456	415018.0	1775936952.094498	0.0	1.0	0.0	-1.0	-1.0	-1.0	1775936952.094498	peace	Peace	2	20260411_124810	Trigger
10580.085	26334.0	-4164.21	-14274.314999999999	0.0	0.0	0.0	0.0	0.0	0.0	0.0	0.0	0.0	0.0	0.0	0.0	0.0	0.0	144.55172413793105	0.0	0.10107396	0.43884165	0.902036265	4.822159999999999	0.21364	-1.19028	415019.0	1775936952.09453	0.0	1.0	0.0	-1.0	-1.0	-1.0	1775936952.09453	peace	Peace	2	20260411_124810	Trigger
11491.695	24184.395	-2868.165	-13108.769999999999	0.0	0.0	0.0	0.0	0.0	0.0	0.0	0.0	0.0	0.0	0.0	0.0	0.0	0.0	144.55172413793105	0.0	0.10107396	0.43884165	0.902036265	4.822159999999999	0.21364	-1.19028	415020.0	1775936952.094548	0.0	1.0	0.0	-1.0	-1.0	-1.0	1775936952.094548	peace	Peace	2	20260411_124810	Trigger
12586.59	21828.42	-1501.425	-11860.289999999999	0.0	0.0	0.0	0.0	0.0	0.0	0.0	0.0	0.0	0.0	0.0	0.0	0.0	0.0	144.55172413793105	0.0	0.10107396	0.43884165	0.902036265	4.822159999999999	0.21364	-1.19028	415021.0	1775936952.094572	0.0	1.0	0.0	-1.0	-1.0	-1.0	1775936952.094572	peace	Peace	2	20260411_124810	Trigger
12478.814999999999	21250.98	-1609.875	-11945.115	0.0	0.0	0.0	0.0	0.0	0.0	0.0	0.0	0.0	0.0	0.0	0.0	0.0	0.0	144.55172413793105	0.0	0.10107396	0.43884165	0.902036265	4.822159999999999	0.21364	-1.19028	415022.0	1775936952.094589	0.0	1.0	0.0	-1.0	-1.0	-1.0	1775936952.094589	peace	Peace	2	20260411_124810	Trigger
10801.755	23654.475	-3532.77	-13682.789999999999	0.0	0.0	0.0	0.0	0.0	0.0	0.0	0.0	0.0	0.0	0.0	0.0	0.0	0.0	144.55172413793105	0.0	0.10107396	0.43884165	0.902036265	4.822159999999999	0.21364	-1.19028	415023.0	1775936952.094609	0.0	1.0	0.0	-1.0	-1.0	-1.0	1775936952.094609	peace	Peace	2	20260411_124810	Trigger
9614.295	26370.585	-5132.07	-15129.81	0.0	0.0	0.0	0.0	0.0	0.0	0.0	0.0	0.0	0.0	0.0	0.0	0.0	0.0	144.55172413793105	0.0	0.10107396	0.43884165	0.902036265	4.822159999999999	0.21364	-1.19028	415024.0	1775936952.094625	0.0	1.0	0.0	-1.0	-1.0	-1.0	1775936952.094625	peace	Peace	2	20260411_124810	Trigger
9014.535	28131.66	-6026.4	-15931.755	0.0	0.0	0.0	0.0	0.0	0.0	0.0	0.0	0.0	0.0	0.0	0.0	0.0	0.0	144.55172413793105	0.0	0.10107396	0.43884165	0.902036265	4.822159999999999	0.21364	-1.19028	415025.0	1775936952.098859	0.0	1.0	0.0	-1.0	-1.0	-1.0	1775936952.098859	peace	Peace	2	20260411_124810	Trigger
8843.805	28999.8	-6200.505	-16110.585	0.0	0.0	0.0	0.0	0.0	0.0	0.0	0.0	0.0	0.0	0.0	0.0	0.0	0.0	144.55172413793105	0.0	0.10107396	0.43884165	0.902036265	4.822159999999999	0.21364	-1.19028	415026.0	1775936952.098891	0.0	1.0	0.0	-1.0	-1.0	-1.0	1775936952.098891	peace	Peace	2	20260411_124810	Trigger
10166.715	27175.77	-4676.8949999999995	-14737.904999999999	0.0	0.0	0.0	0.0	0.0	0.0	0.0	0.0	0.0	0.0	0.0	0.0	0.0	0.0	144.55172413793105	0.0	0.10107396	0.43884165	0.902036265	4.822159999999999	0.21364	-1.19028	415027.0	1775936952.101488	0.0	1.0	0.0	-1.0	-1.0	-1.0	1775936952.101488	peace	Peace	2	20260411_124810	Trigger
11197.08	24923.61	-3277.575	-13482.945	0.0	0.0	0.0	0.0	0.0	0.0	0.0	0.0	0.0	0.0	0.0	0.0	0.0	0.0	144.55172413793105	0.0	0.10107396	0.43884165	0.902036265	4.822159999999999	0.21364	-1.19028	415028.0	1775936952.101515	0.0	1.0	0.0	-1.0	-1.0	-1.0	1775936952.101515	peace	Peace	2	20260411_124810	Trigger
12314.385	22558.41	-1846.62	-12184.56	0.0	0.0	0.0	0.0	0.0	0.0	0.0	0.0	0.0	0.0	0.0	0.0	0.0	0.0	144.55172413793105	0.0	0.10070775	0.43737681	0.90185316	5.4173	0.39676	-1.3734	415029.0	1775936952.105612	0.0	1.0	0.0	-1.0	-1.0	-1.0	1775936952.105612	peace	Peace	2	20260411_124810	Trigger
12666.555	21208.59	-1384.9199999999998	-11742.345	0.0	0.0	0.0	0.0	0.0	0.0	0.0	0.0	0.0	0.0	0.0	0.0	0.0	0.0	144.55172413793105	0.0	0.10070775	0.43737681	0.90185316	5.4173	0.39676	-1.3734	415030.0	1775936952.105668	0.0	1.0	0.0	-1.0	-1.0	-1.0	1775936952.105668	peace	Peace	2	20260411_124810	Trigger
11416.095	22719.96	-2837.97	-13053.734999999999	0.0	0.0	0.0	0.0	0.0	0.0	0.0	0.0	0.0	0.0	0.0	0.0	0.0	0.0	144.55172413793105	0.0	0.10070775	0.43737681	0.90185316	5.4173	0.39676	-1.3734	415031.0	1775936952.109582	0.0	1.0	0.0	-1.0	-1.0	-1.0	1775936952.109582	peace	Peace	2	20260411_124810	Trigger
9866.835	25734.015	-4784.3099999999995	-14821.695	0.0	0.0	0.0	0.0	0.0	0.0	0.0	0.0	0.0	0.0	0.0	0.0	0.0	0.0	144.55172413793105	0.0	0.10070775	0.43737681	0.90185316	5.4173	0.39676	-1.3734	415032.0	1775936952.10962	0.0	1.0	0.0	-1.0	-1.0	-1.0	1775936952.10962	peace	Peace	2	20260411_124810	Trigger
9257.13	27604.934999999998	-5750.73	-15683.355	0.0	0.0	0.0	0.0	0.0	0.0	0.0	0.0	0.0	0.0	0.0	0.0	0.0	0.0	144.55172413793105	0.0	0.10070775	0.43737681	0.90185316	5.4173	0.39676	-1.3734	415033.0	1775936952.113552	0.0	1.0	0.0	-1.0	-1.0	-1.0	1775936952.113552	peace	Peace	2	20260411_124810	Trigger
8712.99	29044.305	-6349.679999999999	-16236.135	0.0	0.0	0.0	0.0	0.0	0.0	0.0	0.0	0.0	0.0	0.0	0.0	0.0	0.0	144.55172413793105	0.0	0.10070775	0.43737681	0.90185316	5.4173	0.39676	-1.3734	415034.0	1775936952.11358	0.0	1.0	0.0	-1.0	-1.0	-1.0	1775936952.11358	peace	Peace	2	20260411_124810	Trigger
9650.609999999999	28065.645	-5262.84	-15261.93	0.0	0.0	0.0	0.0	0.0	0.0	0.0	0.0	0.0	0.0	0.0	0.0	0.0	0.0	144.55172413793105	0.0	0.10070775	0.43737681	0.90185316	5.4173	0.39676	-1.3734	415035.0	1775936952.117535	0.0	1.0	0.0	-1.0	-1.0	-1.0	1775936952.117535	peace	Peace	2	20260411_124810	Trigger
10909.08	25654.77	-3670.6949999999997	-13831.47	0.0	0.0	0.0	0.0	0.0	0.0	0.0	0.0	0.0	0.0	0.0	0.0	0.0	0.0	144.55172413793105	0.0	0.10070775	0.43737681	0.90185316	5.4173	0.39676	-1.3734	415036.0	1775936952.11756	0.0	1.0	0.0	-1.0	-1.0	-1.0	1775936952.11756	peace	Peace	2	20260411_124810	Trigger
11944.08	23425.515	-2313.1349999999998	-12611.34	0.0	0.0	0.0	0.0	0.0	0.0	0.0	0.0	0.0	0.0	0.0	0.0	0.0	0.0	144.55172413793105	0.0	0.10070775	0.43737681	0.90185316	5.4173	0.39676	-1.3734	415037.0	1775936952.121885	0.0	1.0	0.0	-1.0	-1.0	-1.0	1775936952.121885	peace	Peace	2	20260411_124810	Trigger
12698.82	21496.545	-1359.225	-11724.074999999999	0.0	0.0	0.0	0.0	0.0	0.0	0.0	0.0	0.0	0.0	0.0	0.0	0.0	0.0	144.55172413793105	0.0	0.10070775	0.43737681	0.90185316	5.4173	0.39676	-1.3734	415038.0	1775936952.12191	0.0	1.0	0.0	-1.0	-1.0	-1.0	1775936952.12191	peace	Peace	2	20260411_124810	Trigger
11903.445	22100.085	-2244.5099999999998	-12514.994999999999	0.0	0.0	0.0	0.0	0.0	0.0	0.0	0.0	0.0	0.0	0.0	0.0	0.0	0.0	144.55172413793105	0.0	0.100158435	0.437437845	0.903623175	6.134519999999999	0.6103999999999999	-1.4191799999999999	415039.0	1775936952.125589	0.0	1.0	0.0	-1.0	-1.0	-1.0	1775936952.125589	peace	Peace	2	20260411_124810	Trigger
10139.445	25095.78	-4355.19	-14432.805	0.0	0.0	0.0	0.0	0.0	0.0	0.0	0.0	0.0	0.0	0.0	0.0	0.0	0.0	144.55172413793105	0.0	0.100158435	0.437437845	0.903623175	6.134519999999999	0.6103999999999999	-1.4191799999999999	415040.0	1775936952.125613	0.0	1.0	0.0	-1.0	-1.0	-1.0	1775936952.125613	peace	Peace	2	20260411_124810	Trigger
9424.305	27220.905	-5501.25	-15461.775	0.0	0.0	0.0	0.0	0.0	0.0	0.0	0.0	0.0	0.0	0.0	0.0	0.0	0.0	144.55172413793105	0.0	0.100158435	0.437437845	0.903623175	6.134519999999999	0.6103999999999999	-1.4191799999999999	415041.0	1775936952.129507	0.0	1.0	0.0	-1.0	-1.0	-1.0	1775936952.129507	peace	Peace	2	20260411_124810	Trigger
8767.485	28887.975	-6308.1449999999995	-16192.349999999999	0.0	0.0	0.0	0.0	0.0	0.0	0.0	0.0	0.0	0.0	0.0	0.0	0.0	0.0	144.55172413793105	0.0	0.100158435	0.437437845	0.903623175	6.134519999999999	0.6103999999999999	-1.4191799999999999	415042.0	1775936952.129539	0.0	1.0	0.0	-1.0	-1.0	-1.0	1775936952.129539	peace	Peace	2	20260411_124810	Trigger
9199.17	28755.18	-5781.51	-15728.58	0.0	0.0	0.0	0.0	0.0	0.0	0.0	0.0	0.0	0.0	0.0	0.0	0.0	0.0	144.55172413793105	0.0	0.100158435	0.437437845	0.903623175	6.134519999999999	0.6103999999999999	-1.4191799999999999	415043.0	1775936952.133493	0.0	1.0	0.0	-1.0	-1.0	-1.0	1775936952.133493	peace	Peace	2	20260411_124810	Trigger
10648.35	26379.989999999998	-4069.89	-14190.255	0.0	0.0	0.0	0.0	0.0	0.0	0.0	0.0	0.0	0.0	0.0	0.0	0.0	0.0	144.55172413793105	0.0	0.100158435	0.437437845	0.903623175	6.134519999999999	0.6103999999999999	-1.4191799999999999	415044.0	1775936952.133535	0.0	1.0	0.0	-1.0	-1.0	-1.0	1775936952.133535	peace	Peace	2	20260411_124810	Trigger
11567.97	24243.885	-2788.6949999999997	-13047.255	0.0	0.0	0.0	0.0	0.0	0.0	0.0	0.0	0.0	0.0	0.0	0.0	0.0	0.0	144.55172413793105	0.0	0.100158435	0.437437845	0.903623175	6.134519999999999	0.6103999999999999	-1.4191799999999999	415045.0	1775936952.137481	0.0	1.0	0.0	-1.0	-1.0	-1.0	1775936952.137481	peace	Peace	2	20260411_124810	Trigger
12559.59	21947.805	-1499.5349999999999	-11852.64	0.0	0.0	0.0	0.0	0.0	0.0	0.0	0.0	0.0	0.0	0.0	0.0	0.0	0.0	144.55172413793105	0.0	0.100158435	0.437437845	0.903623175	6.134519999999999	0.6103999999999999	-1.4191799999999999	415046.0	1775936952.137506	0.0	1.0	0.0	-1.0	-1.0	-1.0	1775936952.137506	peace	Peace	2	20260411_124810	Trigger
12308.355	21618.405	-1777.86	-12092.22	0.0	0.0	0.0	0.0	0.0	0.0	0.0	0.0	0.0	0.0	0.0	0.0	0.0	0.0	144.55172413793105	0.0	0.100158435	0.437437845	0.903623175	6.134519999999999	0.6103999999999999	-1.4191799999999999	415047.0	1775936952.141501	0.0	1.0	0.0	-1.0	-1.0	-1.0	1775936952.141501	peace	Peace	2	20260411_124810	Trigger
10599.66	24171.48	-3765.87	-13896.09	0.0	0.0	0.0	0.0	0.0	0.0	0.0	0.0	0.0	0.0	0.0	0.0	0.0	0.0	144.55172413793105	0.0	0.100158435	0.437437845	0.903623175	6.134519999999999	0.6103999999999999	-1.4191799999999999	415048.0	1775936952.141525	0.0	1.0	0.0	-1.0	-1.0	-1.0	1775936952.141525	peace	Peace	2	20260411_124810	Trigger
