Channel1	Channel2	Channel3	Channel4	Channel5	Channel6	Channel7	Channel8	FilteredChannel1	FilteredChannel2	FilteredChannel3	FilteredChannel4	FilteredChannel5	FilteredChannel6	FilteredChannel7	FilteredChannel8	GyroX	GyroY	GyroZ	AccX	AccY	AccZ	PPG1	PPG2	rawPPG1	rawPPG2	rawPPG3	Hr	Hrv	Battery	Trigger	PhysicalTrigger	AutoTrigger	NumMeasurements	Timestamp
-4251.240000	23032.170000	-18905.400000	-14815.665000	0.000000	0.000000	0.000000	0.000000	72.187911	31.170489	89.740821	100.197164	-0.000000	0.000000	-0.000000	-0.000000	8.942360	-0.930860	0.640920	-0.007141	0.821287	0.566161	-1.000000	-1.000000	-1.000000	-1.000000	-1.000000	-1.000000	-1.000000	139.172414	0.000000	-1.000000	-1.000000	456814.000000	1772918943.139921
-4358.340000	23060.520000	-19050.660000	-14969.925000	0.000000	0.000000	0.000000	0.000000	5.946227	49.398155	2.370962	8.611028	-0.000000	0.000000	-0.000000	-0.000000	8.942360	-0.930860	0.640920	-0.007141	0.821287	0.566161	-1.000000	-1.000000	-1.000000	-1.000000	-1.000000	-1.000000	-1.000000	139.172414	0.000000	-1.000000	-1.000000	456815.000000	1772918943.139925
-4360.185000	22992.075000	-19050.840000	-14979.105000	0.000000	0.000000	0.000000	0.000000	-62.992897	40.541062	-86.990897	-88.416281	-0.000000	0.000000	-0.000000	-0.000000	8.942360	-0.930860	0.640920	-0.007141	0.821287	0.566161	-1.000000	-1.000000	-1.000000	-1.000000	-1.000000	-1.000000	-1.000000	139.172414	0.000000	-1.000000	-1.000000	456816.000000	1772918943.175738
-4307.490000	22890.285000	-18980.685000	-14904.090000	0.000000	0.000000	0.000000	0.000000	-97.374923	7.234309	-129.726189	-137.997938	-0.000000	0.000000	-0.000000	-0.000000	8.942360	-0.930860	0.640920	-0.007141	0.821287	0.566161	-1.000000	-1.000000	-1.000000	-1.000000	-1.000000	-1.000000	-1.000000	139.172414	0.000000	-1.000000	-1.000000	456817.000000	1772918943.175743
-4261.815000	22924.980000	-18920.970000	-14840.010000	0.000000	0.000000	0.000000	0.000000	-78.123406	-35.877010	-101.277243	-111.641508	-0.000000	0.000000	-0.000000	-0.000000	8.942360	-0.930860	0.640920	-0.007141	0.821287	0.566161	-1.000000	-1.000000	-1.000000	-1.000000	-1.000000	-1.000000	-1.000000	139.172414	0.000000	-1.000000	-1.000000	456818.000000	1772918943.175748
-4156.020000	22978.125000	-18789.435000	-14700.780000	0.000000	0.000000	0.000000	0.000000	-16.720427	-62.095924	-18.032442	-24.585375	-0.000000	0.000000	-0.000000	-0.000000	8.942360	-0.930860	0.640920	-0.007141	0.821287	0.566161	-1.000000	-1.000000	-1.000000	-1.000000	-1.000000	-1.000000	-1.000000	139.172414	0.000000	-1.000000	-1.000000	456819.000000	1772918943.175750
-4130.280000	23003.100000	-18759.240000	-14659.605000	0.000000	0.000000	0.000000	0.000000	52.916520	-51.065657	74.035620	74.887848	-0.000000	0.000000	-0.000000	-0.000000	8.942360	-0.930860	0.640920	-0.007141	0.821287	0.566161	-1.000000	-1.000000	-1.000000	-1.000000	-1.000000	-1.000000	-1.000000	139.172414	0.000000	-1.000000	-1.000000	456820.000000	1772918943.175753
-4164.300000	22993.965000	-18797.670000	-14699.880000	0.000000	0.000000	0.000000	0.000000	93.528789	-10.012424	125.962482	133.698202	-0.000000	0.000000	-0.000000	-0.000000	8.942360	-0.930860	0.640920	-0.007141	0.821287	0.566161	-1.000000	-1.000000	-1.000000	-1.000000	-1.000000	-1.000000	-1.000000	139.172414	0.000000	-1.000000	-1.000000	456821.000000	1772918943.175756
-4215.555000	22916.565000	-18848.520000	-14755.005000	0.000000	0.000000	0.000000	0.000000	83.130260	31.405098	110.737091	121.057685	-0.000000	0.000000	-0.000000	-0.000000	8.560860	-0.412020	0.534100	-0.005493	0.822080	0.566527	-1.000000	-1.000000	-1.000000	-1.000000	-1.000000	-1.000000	-1.000000	139.172414	0.000000	-1.000000	-1.000000	456822.000000	1772918943.175759
-4307.445000	22928.625000	-18987.975000	-14900.805000	0.000000	0.000000	0.000000	0.000000	27.707239	47.093347	37.669910	44.841740	-0.000000	0.000000	-0.000000	-0.000000	8.560860	-0.412020	0.534100	-0.005493	0.822080	0.566527	-1.000000	-1.000000	-1.000000	-1.000000	-1.000000	-1.000000	-1.000000	139.172414	0.000000	-1.000000	-1.000000	456823.000000	1772918943.175761
-4340.790000	22871.205000	-19045.170000	-14969.295000	0.000000	0.000000	0.000000	0.000000	-42.487681	34.139323	-54.964760	-54.879431	-0.000000	0.000000	-0.000000	-0.000000	8.560860	-0.412020	0.534100	-0.005493	0.822080	0.566527	-1.000000	-1.000000	-1.000000	-1.000000	-1.000000	-1.000000	-1.000000	139.172414	0.000000	-1.000000	-1.000000	456824.000000	1772918943.175764
-4310.820000	22843.080000	-18995.490000	-14919.525000	0.000000	0.000000	0.000000	0.000000	-89.569549	7.733433	-119.137500	-126.243952	-0.000000	0.000000	-0.000000	-0.000000	8.560860	-0.412020	0.534100	-0.005493	0.822080	0.566527	-1.000000	-1.000000	-1.000000	-1.000000	-1.000000	-1.000000	-1.000000	139.172414	0.000000	-1.000000	-1.000000	456825.000000	1772918943.175766
-4260.690000	22754.700000	-18921.690000	-14840.595000	0.000000	0.000000	0.000000	0.000000	-87.978856	-16.159364	-119.466811	-129.969194	-0.000000	0.000000	-0.000000	-0.000000	8.560860	-0.412020	0.534100	-0.005493	0.822080	0.566527	-1.000000	-1.000000	-1.000000	-1.000000	-1.000000	-1.000000	-1.000000	139.172414	0.000000	-1.000000	-1.000000	456826.000000	1772918943.175769
-4166.280000	22726.485000	-18800.775000	-14716.980000	0.000000	0.000000	0.000000	0.000000	-39.110029	-28.959731	-54.956926	-63.184209	-0.000000	0.000000	-0.000000	-0.000000	8.560860	-0.412020	0.534100	-0.005493	0.822080	0.566527	-1.000000	-1.000000	-1.000000	-1.000000	-1.000000	-1.000000	-1.000000	139.172414	0.000000	-1.000000	-1.000000	456827.000000	1772918943.175771
-4114.530000	22754.160000	-18715.680000	-14616.315000	0.000000	0.000000	0.000000	0.000000	30.270781	-26.568117	39.206879	37.618584	-0.000000	0.000000	-0.000000	-0.000000	8.560860	-0.412020	0.534100	-0.005493	0.822080	0.566527	-1.000000	-1.000000	-1.000000	-1.000000	-1.000000	-1.000000	-1.000000	139.172414	0.000000	-1.000000	-1.000000	456828.000000	1772918943.175774
-4134.915000	22730.175000	-18751.815000	-14648.445000	0.000000	0.000000	0.000000	0.000000	82.837650	-8.270678	111.798664	117.808730	-0.000000	0.000000	-0.000000	-0.000000	8.560860	-0.412020	0.534100	-0.005493	0.822080	0.566527	-1.000000	-1.000000	-1.000000	-1.000000	-1.000000	-1.000000	-1.000000	139.172414	0.000000	-1.000000	-1.000000	456829.000000	1772918943.175776
-4151.790000	22710.330000	-18807.930000	-14714.505000	0.000000	0.000000	0.000000	0.000000	90.438107	17.529412	122.702811	133.307703	-0.000000	0.000000	-0.000000	-0.000000	8.560860	-0.412020	0.534100	-0.005493	0.822080	0.566527	-1.000000	-1.000000	-1.000000	-1.000000	-1.000000	-1.000000	-1.000000	139.172414	0.000000	-1.000000	-1.000000	456830.000000	1772918943.175780
-4241.655000	22675.365000	-18919.440000	-14828.220000	0.000000	0.000000	0.000000	0.000000	50.159703	35.649289	66.062886	75.456525	-0.000000	0.000000	-0.000000	-0.000000	8.560860	-0.412020	0.534100	-0.005493	0.822080	0.566527	-1.000000	-1.000000	-1.000000	-1.000000	-1.000000	-1.000000	-1.000000	139.172414	0.000000	-1.000000	-1.000000	456831.000000	1772918943.175782
-4307.130000	22578.345000	-19016.370000	-14938.110000	0.000000	0.000000	0.000000	0.000000	-16.008167	34.987939	-26.689282	-23.778044	-0.000000	0.000000	-0.000000	-0.000000	6.012440	3.891300	-0.030520	-0.003784	0.823545	0.564269	-1.000000	-1.000000	-1.000000	-1.000000	-1.000000	-1.000000	-1.000000	139.172414	0.000000	-1.000000	-1.000000	456832.000000	1772918943.175785
-4289.490000	22589.145000	-18985.230000	-14910.480000	0.000000	0.000000	0.000000	0.000000	-73.750295	16.079448	-105.290790	-110.464820	-0.000000	0.000000	-0.000000	-0.000000	6.012440	3.891300	-0.030520	-0.003784	0.823545	0.564269	-1.000000	-1.000000	-1.000000	-1.000000	-1.000000	-1.000000	-1.000000	139.172414	0.000000	-1.000000	-1.000000	456833.000000	1772918943.175787
-4264.920000	22633.965000	-18929.835000	-14849.415000	0.000000	0.000000	0.000000	0.000000	-92.409615	-6.314200	-126.521873	-136.910878	-0.000000	0.000000	-0.000000	-0.000000	6.012440	3.891300	-0.030520	-0.003784	0.823545	0.564269	-1.000000	-1.000000	-1.000000	-1.000000	-1.000000	-1.000000	-1.000000	139.172414	0.000000	-1.000000	-1.000000	456834.000000	1772918943.180005
-4186.260000	22607.415000	-18827.505000	-14743.170000	0.000000	0.000000	0.000000	0.000000	-62.229054	-14.764152	-78.702971	-88.526399	-0.000000	0.000000	-0.000000	-0.000000	6.012440	3.891300	-0.030520	-0.003784	0.823545	0.564269	-1.000000	-1.000000	-1.000000	-1.000000	-1.000000	-1.000000	-1.000000	139.172414	0.000000	-1.000000	-1.000000	456835.000000	1772918943.180008
-4103.280000	22662.810000	-18708.345000	-14611.950000	0.000000	0.000000	0.000000	0.000000	0.237890	-6.440264	11.542872	7.680719	-0.000000	0.000000	-0.000000	-0.000000	6.012440	3.891300	-0.030520	-0.003784	0.823545	0.564269	-1.000000	-1.000000	-1.000000	-1.000000	-1.000000	-1.000000	-1.000000	139.172414	0.000000	-1.000000	-1.000000	456836.000000	1772918943.185598
-4117.680000	22717.035000	-18737.595000	-14630.895000	0.000000	0.000000	0.000000	0.000000	61.943357	9.487598	95.390440	99.641676	-0.000000	0.000000	-0.000000	-0.000000	6.012440	3.891300	-0.030520	-0.003784	0.823545	0.564269	-1.000000	-1.000000	-1.000000	-1.000000	-1.000000	-1.000000	-1.000000	139.172414	0.000000	-1.000000	-1.000000	456837.000000	1772918943.185601
-4148.595000	22684.455000	-18791.055000	-14692.995000	0.000000	0.000000	0.000000	0.000000	89.378756	21.978515	126.648552	136.880988	-0.000000	0.000000	-0.000000	-0.000000	6.012440	3.891300	-0.030520	-0.003784	0.823545	0.564269	-1.000000	-1.000000	-1.000000	-1.000000	-1.000000	-1.000000	-1.000000	139.172414	0.000000	-1.000000	-1.000000	456838.000000	1772918943.187996
-4200.480000	22589.235000	-18864.540000	-14772.420000	0.000000	0.000000	0.000000	0.000000	67.861712	19.093678	88.233329	98.807919	-0.000000	0.000000	-0.000000	-0.000000	6.012440	3.891300	-0.030520	-0.003784	0.823545	0.564269	-1.000000	-1.000000	-1.000000	-1.000000	-1.000000	-1.000000	-1.000000	139.172414	0.000000	-1.000000	-1.000000	456839.000000	1772918943.187999
-4306.185000	22544.505000	-18996.525000	-14912.415000	0.000000	0.000000	0.000000	0.000000	10.397360	-5.005850	2.911373	7.763893	-0.000000	0.000000	-0.000000	-0.000000	6.012440	3.891300	-0.030520	-0.003784	0.823545	0.564269	-1.000000	-1.000000	-1.000000	-1.000000	-1.000000	-1.000000	-1.000000	139.172414	0.000000	-1.000000	-1.000000	456840.000000	1772918943.199887
-4318.290000	22555.260000	-18997.155000	-14925.600000	0.000000	0.000000	0.000000	0.000000	-52.135254	-37.991392	-82.799292	-86.495575	-0.000000	0.000000	-0.000000	-0.000000	6.012440	3.891300	-0.030520	-0.003784	0.823545	0.564269	-1.000000	-1.000000	-1.000000	-1.000000	-1.000000	-1.000000	-1.000000	139.172414	0.000000	-1.000000	-1.000000	456841.000000	1772918943.199891
-4291.920000	22594.635000	-18956.880000	-14882.175000	0.000000	0.000000	0.000000	0.000000	-86.513081	-54.937481	-123.282019	-133.696754	-0.000000	0.000000	-0.000000	-0.000000	4.104940	-0.183120	-1.159760	-0.003967	0.821470	0.560973	-1.000000	-1.000000	-1.000000	-1.000000	-1.000000	-1.000000	-1.000000	139.172414	0.000000	-1.000000	-1.000000	456842.000000	1772918943.199896
-4248.360000	22630.770000	-18889.155000	-14806.395000	0.000000	0.000000	0.000000	0.000000	-73.777182	-40.389596	-97.087007	-108.694895	-0.000000	0.000000	-0.000000	-0.000000	4.104940	-0.183120	-1.159760	-0.003967	0.821470	0.560973	-1.000000	-1.000000	-1.000000	-1.000000	-1.000000	-1.000000	-1.000000	139.172414	0.000000	-1.000000	-1.000000	456843.000000	1772918943.199898
-4107.825000	22617.630000	-18743.805000	-14654.745000	0.000000	0.000000	0.000000	0.000000	-20.127639	-2.643731	-19.034890	-25.456957	-0.000000	0.000000	-0.000000	-0.000000	4.104940	-0.183120	-1.159760	-0.003967	0.821470	0.560973	-1.000000	-1.000000	-1.000000	-1.000000	-1.000000	-1.000000	-1.000000	139.172414	0.000000	-1.000000	-1.000000	456844.000000	1772918943.199902
-4094.910000	22668.795000	-18726.570000	-14626.395000	0.000000	0.000000	0.000000	0.000000	47.279509	34.486159	69.724948	72.074382	-0.000000	0.000000	-0.000000	-0.000000	4.104940	-0.183120	-1.159760	-0.003967	0.821470	0.560973	-1.000000	-1.000000	-1.000000	-1.000000	-1.000000	-1.000000	-1.000000	139.172414	0.000000	-1.000000	-1.000000	456845.000000	1772918943.199904
-4153.320000	22696.380000	-18795.195000	-14694.435000	0.000000	0.000000	0.000000	0.000000	91.368457	52.445571	121.440166	131.430045	-0.000000	0.000000	-0.000000	-0.000000	4.104940	-0.183120	-1.159760	-0.003967	0.821470	0.560973	-1.000000	-1.000000	-1.000000	-1.000000	-1.000000	-1.000000	-1.000000	139.172414	0.000000	-1.000000	-1.000000	456846.000000	1772918943.205640
-4208.715000	22759.515000	-18870.705000	-14777.145000	0.000000	0.000000	0.000000	0.000000	84.185266	48.371695	106.020267	118.495178	-0.000000	0.000000	-0.000000	-0.000000	4.104940	-0.183120	-1.159760	-0.003967	0.821470	0.560973	-1.000000	-1.000000	-1.000000	-1.000000	-1.000000	-1.000000	-1.000000	139.103448	0.000000	-1.000000	-1.000000	456847.000000	1772918943.205644
-4318.110000	22776.210000	-19011.870000	-14925.195000	0.000000	0.000000	0.000000	0.000000	28.111300	29.725023	31.416688	39.854871	-0.000000	0.000000	-0.000000	-0.000000	4.104940	-0.183120	-1.159760	-0.003967	0.821470	0.560973	-1.000000	-1.000000	-1.000000	-1.000000	-1.000000	-1.000000	-1.000000	139.103448	0.000000	-1.000000	-1.000000	456848.000000	1772918943.208084
-4363.515000	22828.545000	-19065.330000	-14991.435000	0.000000	0.000000	0.000000	0.000000	-45.144637	5.877692	-61.133564	-61.143574	-0.000000	0.000000	-0.000000	-0.000000	4.104940	-0.183120	-1.159760	-0.003967	0.821470	0.560973	-1.000000	-1.000000	-1.000000	-1.000000	-1.000000	-1.000000	-1.000000	139.103448	0.000000	-1.000000	-1.000000	456849.000000	1772918943.208088
-4319.640000	22815.585000	-19006.065000	-14929.650000	0.000000	0.000000	0.000000	0.000000	-94.190606	-16.111075	-120.377529	-128.771142	-0.000000	0.000000	-0.000000	-0.000000	4.104940	-0.183120	-1.159760	-0.003967	0.821470	0.560973	-1.000000	-1.000000	-1.000000	-1.000000	-1.000000	-1.000000	-1.000000	139.103448	0.000000	-1.000000	-1.000000	456850.000000	1772918943.212164
-4267.935000	22816.935000	-18944.865000	-14864.805000	0.000000	0.000000	0.000000	0.000000	-90.506035	-32.815100	-112.186914	-124.383824	-0.000000	0.000000	-0.000000	-0.000000	4.104940	-0.183120	-1.159760	-0.003967	0.821470	0.560973	-1.000000	-1.000000	-1.000000	-1.000000	-1.000000	-1.000000	-1.000000	139.103448	0.000000	-1.000000	-1.000000	456851.000000	1772918943.212167
-4173.525000	22884.435000	-18815.220000	-14730.840000	0.000000	0.000000	0.000000	0.000000	-35.819321	-41.442802	-40.723875	-50.191095	-0.000000	0.000000	-0.000000	-0.000000	3.891300	0.701960	-1.037680	-0.004272	0.820555	0.563109	-1.000000	-1.000000	-1.000000	-1.000000	-1.000000	-1.000000	-1.000000	139.103448	0.000000	-1.000000	-1.000000	456852.000000	1772918943.216062
-4145.490000	23023.080000	-18756.180000	-14657.220000	0.000000	0.000000	0.000000	0.000000	38.781338	-35.375793	54.330466	52.382882	-0.000000	0.000000	-0.000000	-0.000000	3.891300	0.701960	-1.037680	-0.004272	0.820555	0.563109	-1.000000	-1.000000	-1.000000	-1.000000	-1.000000	-1.000000	-1.000000	139.103448	0.000000	-1.000000	-1.000000	456853.000000	1772918943.216071
-4165.065000	23038.830000	-18797.895000	-14697.630000	0.000000	0.000000	0.000000	0.000000	91.545037	-11.756438	120.839670	127.201151	-0.000000	0.000000	-0.000000	-0.000000	3.891300	0.701960	-1.037680	-0.004272	0.820555	0.563109	-1.000000	-1.000000	-1.000000	-1.000000	-1.000000	-1.000000	-1.000000	139.103448	0.000000	-1.000000	-1.000000	456854.000000	1772918943.220054
-4212.630000	23029.875000	-18854.055000	-14755.770000	0.000000	0.000000	0.000000	0.000000	93.886183	15.837013	121.929855	133.158814	-0.000000	0.000000	-0.000000	-0.000000	3.891300	0.701960	-1.037680	-0.004272	0.820555	0.563109	-1.000000	-1.000000	-1.000000	-1.000000	-1.000000	-1.000000	-1.000000	139.103448	0.000000	-1.000000	-1.000000	456855.000000	1772918943.220057
-4275.630000	22990.500000	-18959.445000	-14869.620000	0.000000	0.000000	0.000000	0.000000	46.635073	25.477188	57.587812	67.668744	-0.000000	0.000000	-0.000000	-0.000000	3.891300	0.701960	-1.037680	-0.004272	0.820555	0.563109	-1.000000	-1.000000	-1.000000	-1.000000	-1.000000	-1.000000	-1.000000	139.103448	0.000000	-1.000000	-1.000000	456856.000000	1772918943.228587
-4328.280000	22813.245000	-19029.780000	-14954.895000	0.000000	0.000000	0.000000	0.000000	-22.615462	6.385214	-36.248452	-32.807197	-0.000000	0.000000	-0.000000	-0.000000	3.891300	0.701960	-1.037680	-0.004272	0.820555	0.563109	-1.000000	-1.000000	-1.000000	-1.000000	-1.000000	-1.000000	-1.000000	139.103448	0.000000	-1.000000	-1.000000	456857.000000	1772918943.228590
-4288.320000	22639.410000	-18976.320000	-14900.580000	0.000000	0.000000	0.000000	0.000000	-76.431720	-35.495709	-108.866237	-114.067778	-0.000000	0.000000	-0.000000	-0.000000	3.891300	0.701960	-1.037680	-0.004272	0.820555	0.563109	-1.000000	-1.000000	-1.000000	-1.000000	-1.000000	-1.000000	-1.000000	139.103448	0.000000	-1.000000	-1.000000	456858.000000	1772918943.228594
-4245.255000	22584.870000	-18915.480000	-14832.720000	0.000000	0.000000	0.000000	0.000000	-86.780686	-78.197870	-121.098578	-131.981693	-0.000000	0.000000	-0.000000	-0.000000	3.891300	0.701960	-1.037680	-0.004272	0.820555	0.563109	-1.000000	-1.000000	-1.000000	-1.000000	-1.000000	-1.000000	-1.000000	139.103448	0.000000	-1.000000	-1.000000	456859.000000	1772918943.228596
-4168.845000	22574.925000	-18816.480000	-14730.885000	0.000000	0.000000	0.000000	0.000000	-50.158451	-89.518268	-67.934118	-78.107609	-0.000000	0.000000	-0.000000	-0.000000	3.891300	0.701960	-1.037680	-0.004272	0.820555	0.563109	-1.000000	-1.000000	-1.000000	-1.000000	-1.000000	-1.000000	-1.000000	139.103448	0.000000	-1.000000	-1.000000	456860.000000	1772918943.232066
-4081.365000	22574.655000	-18700.290000	-14601.105000	0.000000	0.000000	0.000000	0.000000	11.653988	-50.289030	19.544522	15.817447	-0.000000	0.000000	-0.000000	-0.000000	3.891300	0.701960	-1.037680	-0.004272	0.820555	0.563109	-1.000000	-1.000000	-1.000000	-1.000000	-1.000000	-1.000000	-1.000000	139.103448	0.000000	-1.000000	-1.000000	456861.000000	1772918943.232069
-4127.580000	22643.730000	-18736.155000	-14630.940000	0.000000	0.000000	0.000000	0.000000	64.620441	26.839476	93.838064	98.457969	-0.000000	0.000000	-0.000000	-0.000000	3.753960	0.183120	-1.403920	-0.003723	0.824339	0.563963	-1.000000	-1.000000	-1.000000	-1.000000	-1.000000	-1.000000	-1.000000	139.103448	0.000000	-1.000000	-1.000000	456862.000000	1772918943.236158
-4177.485000	22765.320000	-18808.155000	-14710.770000	0.000000	0.000000	0.000000	0.000000	78.562506	107.810282	114.181764	124.461343	-0.000000	0.000000	-0.000000	-0.000000	3.753960	0.183120	-1.403920	-0.003723	0.824339	0.563963	-1.000000	-1.000000	-1.000000	-1.000000	-1.000000	-1.000000	-1.000000	139.103448	0.000000	-1.000000	-1.000000	456863.000000	1772918943.236161
-4205.970000	22824.495000	-18897.165000	-14804.415000	0.000000	0.000000	0.000000	0.000000	45.640016	158.911585	68.676265	78.700137	-0.000000	0.000000	-0.000000	-0.000000	3.753960	0.183120	-1.403920	-0.003723	0.824339	0.563963	-1.000000	-1.000000	-1.000000	-1.000000	-1.000000	-1.000000	-1.000000	139.103448	0.000000	-1.000000	-1.000000	456864.000000	1772918943.245218
-4318.560000	22844.340000	-19036.485000	-14952.330000	0.000000	0.000000	0.000000	0.000000	-13.478535	158.106210	-17.143295	-13.101250	-0.000000	0.000000	-0.000000	-0.000000	3.753960	0.183120	-1.403920	-0.003723	0.824339	0.563963	-1.000000	-1.000000	-1.000000	-1.000000	-1.000000	-1.000000	-1.000000	139.103448	0.000000	-1.000000	-1.000000	456865.000000	1772918943.245221
-4331.745000	22764.195000	-19022.670000	-14945.040000	0.000000	0.000000	0.000000	0.000000	-66.265003	100.594957	-96.083467	-100.181142	-0.000000	0.000000	-0.000000	-0.000000	3.753960	0.183120	-1.403920	-0.003723	0.824339	0.563963	-1.000000	-1.000000	-1.000000	-1.000000	-1.000000	-1.000000	-1.000000	139.103448	0.000000	-1.000000	-1.000000	456866.000000	1772918943.245225
-4283.370000	22642.380000	-18957.150000	-14879.115000	0.000000	0.000000	0.000000	0.000000	-85.330097	2.241343	-123.646350	-133.564263	-0.000000	0.000000	-0.000000	-0.000000	3.753960	0.183120	-1.403920	-0.003723	0.824339	0.563963	-1.000000	-1.000000	-1.000000	-1.000000	-1.000000	-1.000000	-1.000000	139.103448	0.000000	-1.000000	-1.000000	456867.000000	1772918943.245228
-4225.230000	22642.695000	-18880.920000	-14798.970000	0.000000	0.000000	0.000000	0.000000	-58.726170	-101.216968	-82.248303	-92.714006	-0.000000	0.000000	-0.000000	-0.000000	3.753960	0.183120	-1.403920	-0.003723	0.824339	0.563963	-1.000000	-1.000000	-1.000000	-1.000000	-1.000000	-1.000000	-1.000000	139.103448	0.000000	-1.000000	-1.000000	456868.000000	1772918943.248064
-4121.145000	22647.510000	-18742.500000	-14651.280000	0.000000	0.000000	0.000000	0.000000	1.923855	-164.337267	6.414905	0.822596	-0.000000	0.000000	-0.000000	-0.000000	3.753960	0.183120	-1.403920	-0.003723	0.824339	0.563963	-1.000000	-1.000000	-1.000000	-1.000000	-1.000000	-1.000000	-1.000000	139.103448	0.000000	-1.000000	-1.000000	456869.000000	1772918943.248066
-4112.640000	22703.850000	-18734.715000	-14631.570000	0.000000	0.000000	0.000000	0.000000	65.682766	-157.380459	94.906480	97.150903	-0.000000	0.000000	-0.000000	-0.000000	3.753960	0.183120	-1.403920	-0.003723	0.824339	0.563963	-1.000000	-1.000000	-1.000000	-1.000000	-1.000000	-1.000000	-1.000000	139.103448	0.000000	-1.000000	-1.000000	456870.000000	1772918943.252102
-4150.305000	22696.830000	-18789.435000	-14687.685000	0.000000	0.000000	0.000000	0.000000	97.763874	-88.045139	135.407116	144.619131	-0.000000	0.000000	-0.000000	-0.000000	3.753960	0.183120	-1.403920	-0.003723	0.824339	0.563963	-1.000000	-1.000000	-1.000000	-1.000000	-1.000000	-1.000000	-1.000000	139.103448	0.000000	-1.000000	-1.000000	456871.000000	1772918943.252105
-4204.890000	22700.880000	-18864.990000	-14765.085000	0.000000	0.000000	0.000000	0.000000	78.932574	3.727984	104.771113	116.450160	-0.000000	0.000000	-0.000000	-0.000000	3.555580	0.366240	-0.473060	-0.004883	0.822630	0.565550	-1.000000	-1.000000	-1.000000	-1.000000	-1.000000	-1.000000	-1.000000	139.103448	0.000000	-1.000000	-1.000000	456872.000000	1772918943.256119
-4294.890000	22664.835000	-18995.535000	-14905.035000	0.000000	0.000000	0.000000	0.000000	18.497686	72.667818	19.037118	27.214958	-0.000000	0.000000	-0.000000	-0.000000	3.555580	0.366240	-0.473060	-0.004883	0.822630	0.565550	-1.000000	-1.000000	-1.000000	-1.000000	-1.000000	-1.000000	-1.000000	139.103448	0.000000	-1.000000	-1.000000	456873.000000	1772918943.256121
-4317.390000	22558.770000	-19021.005000	-14942.565000	0.000000	0.000000	0.000000	0.000000	-51.366646	92.488881	-76.371071	-75.999680	-0.000000	0.000000	-0.000000	-0.000000	3.555580	0.366240	-0.473060	-0.004883	0.822630	0.565550	-1.000000	-1.000000	-1.000000	-1.000000	-1.000000	-1.000000	-1.000000	139.103448	0.000000	-1.000000	-1.000000	456874.000000	1772918943.260169
-4285.890000	22547.835000	-18970.785000	-14889.240000	0.000000	0.000000	0.000000	0.000000	-93.548842	64.838186	-130.922043	-138.693462	-0.000000	0.000000	-0.000000	-0.000000	3.555580	0.366240	-0.473060	-0.004883	0.822630	0.565550	-1.000000	-1.000000	-1.000000	-1.000000	-1.000000	-1.000000	-1.000000	139.103448	0.000000	-1.000000	-1.000000	456875.000000	1772918943.260172
-4235.265000	22578.075000	-18906.570000	-14821.920000	0.000000	0.000000	0.000000	0.000000	-85.747000	16.854061	-115.536590	-127.346203	-0.000000	0.000000	-0.000000	-0.000000	3.555580	0.366240	-0.473060	-0.004883	0.822630	0.565550	-1.000000	-1.000000	-1.000000	-1.000000	-1.000000	-1.000000	-1.000000	139.103448	0.000000	-1.000000	-1.000000	456876.000000	1772918943.264598
-4132.350000	22594.815000	-18778.995000	-14690.430000	0.000000	0.000000	0.000000	0.000000	-32.970953	-17.081575	-39.835990	-49.382575	-0.000000	0.000000	-0.000000	-0.000000	3.555580	0.366240	-0.473060	-0.004883	0.822630	0.565550	-1.000000	-1.000000	-1.000000	-1.000000	-1.000000	-1.000000	-1.000000	139.103448	0.000000	-1.000000	-1.000000	456877.000000	1772918943.264601
-4089.285000	22622.040000	-18715.500000	-14613.390000	0.000000	0.000000	0.000000	0.000000	36.422336	-20.877909	55.121742	52.641955	-0.000000	0.000000	-0.000000	-0.000000	3.555580	0.366240	-0.473060	-0.004883	0.822630	0.565550	-1.000000	-1.000000	-1.000000	-1.000000	-1.000000	-1.000000	-1.000000	139.103448	0.000000	-1.000000	-1.000000	456878.000000	1772918943.268169
-4128.975000	22618.890000	-18757.215000	-14652.180000	0.000000	0.000000	0.000000	0.000000	85.262281	-3.366056	119.475550	125.078690	-0.000000	0.000000	-0.000000	-0.000000	3.555580	0.366240	-0.473060	-0.004883	0.822630	0.565550	-1.000000	-1.000000	-1.000000	-1.000000	-1.000000	-1.000000	-1.000000	139.103448	0.000000	-1.000000	-1.000000	456879.000000	1772918943.268171
-4166.820000	22543.740000	-18807.165000	-14704.380000	0.000000	0.000000	0.000000	0.000000	86.420480	13.969305	119.174315	129.805217	-0.000000	0.000000	-0.000000	-0.000000	3.555580	0.366240	-0.473060	-0.004883	0.822630	0.565550	-1.000000	-1.000000	-1.000000	-1.000000	-1.000000	-1.000000	-1.000000	139.103448	0.000000	-1.000000	-1.000000	456880.000000	1772918943.272414
-4245.840000	22524.660000	-18928.890000	-14834.340000	0.000000	0.000000	0.000000	0.000000	39.935101	13.891895	55.234101	65.202650	-0.000000	0.000000	-0.000000	-0.000000	3.555580	0.366240	-0.473060	-0.004883	0.822630	0.565550	-1.000000	-1.000000	-1.000000	-1.000000	-1.000000	-1.000000	-1.000000	139.103448	0.000000	-1.000000	-1.000000	456881.000000	1772918943.272417
-4307.805000	22481.145000	-19012.815000	-14928.795000	0.000000	0.000000	0.000000	0.000000	-27.597535	-3.660054	-37.704219	-33.783528	-0.000000	0.000000	-0.000000	-0.000000	5.234180	0.549360	-0.152600	-0.004883	0.818174	0.566832	-1.000000	-1.000000	-1.000000	-1.000000	-1.000000	-1.000000	-1.000000	139.103448	0.000000	-1.000000	-1.000000	456882.000000	1772918943.276151
-4289.220000	22492.665000	-18977.850000	-14891.580000	0.000000	0.000000	0.000000	0.000000	-79.783963	-23.678155	-110.614651	-114.766008	-0.000000	0.000000	-0.000000	-0.000000	5.234180	0.549360	-0.152600	-0.004883	0.818174	0.566832	-1.000000	-1.000000	-1.000000	-1.000000	-1.000000	-1.000000	-1.000000	139.103448	0.000000	-1.000000	-1.000000	456883.000000	1772918943.276155
-4247.415000	22489.200000	-18919.710000	-14821.020000	0.000000	0.000000	0.000000	0.000000	-88.871380	-30.336141	-123.997762	-133.384181	-0.000000	0.000000	-0.000000	-0.000000	5.234180	0.549360	-0.152600	-0.004883	0.818174	0.566832	-1.000000	-1.000000	-1.000000	-1.000000	-1.000000	-1.000000	-1.000000	139.103448	0.000000	-1.000000	-1.000000	456884.000000	1772918943.280161
-4165.380000	22461.705000	-18809.325000	-14703.210000	0.000000	0.000000	0.000000	0.000000	-50.126337	-19.404130	-70.369754	-78.852081	-0.000000	0.000000	-0.000000	-0.000000	5.234180	0.549360	-0.152600	-0.004883	0.818174	0.566832	-1.000000	-1.000000	-1.000000	-1.000000	-1.000000	-1.000000	-1.000000	139.103448	0.000000	-1.000000	-1.000000	456885.000000	1772918943.280164
-4093.335000	22512.825000	-18710.505000	-14597.550000	0.000000	0.000000	0.000000	0.000000	15.632815	1.219963	20.874849	18.509453	-0.000000	0.000000	-0.000000	-0.000000	5.234180	0.549360	-0.152600	-0.004883	0.818174	0.566832	-1.000000	-1.000000	-1.000000	-1.000000	-1.000000	-1.000000	-1.000000	139.103448	0.000000	-1.000000	-1.000000	456886.000000	1772918943.284146
-4103.820000	22501.485000	-18729.495000	-14610.330000	0.000000	0.000000	0.000000	0.000000	73.437268	21.015034	100.606300	105.290827	-0.000000	0.000000	-0.000000	-0.000000	5.234180	0.549360	-0.152600	-0.004883	0.818174	0.566832	-1.000000	-1.000000	-1.000000	-1.000000	-1.000000	-1.000000	-1.000000	139.103448	0.000000	-1.000000	-1.000000	456887.000000	1772918943.284149
-4135.455000	22405.365000	-18783.540000	-14683.545000	0.000000	0.000000	0.000000	0.000000	91.989500	30.067062	125.434908	133.562029	-0.000000	0.000000	-0.000000	-0.000000	5.234180	0.549360	-0.152600	-0.004883	0.818174	0.566832	-1.000000	-1.000000	-1.000000	-1.000000	-1.000000	-1.000000	-1.000000	139.103448	0.000000	-1.000000	-1.000000	456888.000000	1772918943.288454
-4195.620000	22309.920000	-18871.740000	-14772.780000	0.000000	0.000000	0.000000	0.000000	61.463878	19.345468	82.114475	87.807138	-0.000000	0.000000	-0.000000	-0.000000	5.234180	0.549360	-0.152600	-0.004883	0.818174	0.566832	-1.000000	-1.000000	-1.000000	-1.000000	-1.000000	-1.000000	-1.000000	139.103448	0.000000	-1.000000	-1.000000	456889.000000	1772918943.288457
-4280.040000	22269.870000	-18991.080000	-14910.165000	0.000000	0.000000	0.000000	0.000000	-1.028226	-8.732578	-4.859533	-5.950609	-0.000000	0.000000	-0.000000	-0.000000	5.234180	0.549360	-0.152600	-0.004883	0.818174	0.566832	-1.000000	-1.000000	-1.000000	-1.000000	-1.000000	-1.000000	-1.000000	139.103448	0.000000	-1.000000	-1.000000	456890.000000	1772918943.292249
-4270.725000	22222.485000	-18972.810000	-14902.290000	0.000000	0.000000	0.000000	0.000000	-62.291449	-35.935045	-88.502410	-96.609464	-0.000000	0.000000	-0.000000	-0.000000	5.234180	0.549360	-0.152600	-0.004883	0.818174	0.566832	-1.000000	-1.000000	-1.000000	-1.000000	-1.000000	-1.000000	-1.000000	139.103448	0.000000	-1.000000	-1.000000	456891.000000	1772918943.292251
-4232.250000	22192.695000	-18914.715000	-14834.340000	0.000000	0.000000	0.000000	0.000000	-89.658181	-43.158863	-123.250328	-134.529560	-0.000000	0.000000	-0.000000	-0.000000	6.470240	1.266580	-0.488320	-0.002930	0.817991	0.566222	-1.000000	-1.000000	-1.000000	-1.000000	-1.000000	-1.000000	-1.000000	139.103448	0.000000	-1.000000	-1.000000	456892.000000	1772918943.296193
-4176.405000	22192.020000	-18834.525000	-14750.325000	0.000000	0.000000	0.000000	0.000000	-68.509824	-25.465126	-89.956896	-98.163869	-0.000000	0.000000	-0.000000	-0.000000	6.470240	1.266580	-0.488320	-0.002930	0.817991	0.566222	-1.000000	-1.000000	-1.000000	-1.000000	-1.000000	-1.000000	-1.000000	139.103448	0.000000	-1.000000	-1.000000	456893.000000	1772918943.296196
-4078.305000	22207.590000	-18703.260000	-14610.015000	0.000000	0.000000	0.000000	0.000000	-11.181924	8.021945	-7.939060	-7.825994	-0.000000	0.000000	-0.000000	-0.000000	6.470240	1.266580	-0.488320	-0.002930	0.817991	0.566222	-1.000000	-1.000000	-1.000000	-1.000000	-1.000000	-1.000000	-1.000000	139.103448	0.000000	-1.000000	-1.000000	456894.000000	1772918943.301500
-4061.970000	22202.955000	-18695.745000	-14593.680000	0.000000	0.000000	0.000000	0.000000	51.400152	41.456171	77.859692	87.254289	-0.000000	0.000000	-0.000000	-0.000000	6.470240	1.266580	-0.488320	-0.002930	0.817991	0.566222	-1.000000	-1.000000	-1.000000	-1.000000	-1.000000	-1.000000	-1.000000	139.103448	0.000000	-1.000000	-1.000000	456895.000000	1772918943.301503
-4110.795000	22223.925000	-18755.505000	-14653.665000	0.000000	0.000000	0.000000	0.000000	85.456180	59.876209	120.552787	135.444470	-0.000000	0.000000	-0.000000	-0.000000	6.470240	1.266580	-0.488320	-0.002930	0.817991	0.566222	-1.000000	-1.000000	-1.000000	-1.000000	-1.000000	-1.000000	-1.000000	139.103448	0.000000	-1.000000	-1.000000	456896.000000	1772918943.304056
-4168.215000	22214.745000	-18828.900000	-14729.355000	0.000000	0.000000	0.000000	0.000000	71.431604	56.233366	96.022146	109.913005	-0.000000	0.000000	-0.000000	-0.000000	6.470240	1.266580	-0.488320	-0.002930	0.817991	0.566222	-1.000000	-1.000000	-1.000000	-1.000000	-1.000000	-1.000000	-1.000000	139.103448	0.000000	-1.000000	-1.000000	456897.000000	1772918943.304059
-4278.600000	22258.035000	-18979.020000	-14889.105000	0.000000	0.000000	0.000000	0.000000	16.505383	34.252565	17.796823	24.589331	-0.000000	0.000000	-0.000000	-0.000000	6.470240	1.266580	-0.488320	-0.002930	0.817991	0.566222	-1.000000	-1.000000	-1.000000	-1.000000	-1.000000	-1.000000	-1.000000	139.103448	0.000000	-1.000000	-1.000000	456898.000000	1772918943.315680
-4294.665000	22222.035000	-18996.390000	-14917.770000	0.000000	0.000000	0.000000	0.000000	-49.145075	4.577249	-71.600853	-74.876792	-0.000000	0.000000	-0.000000	-0.000000	6.470240	1.266580	-0.488320	-0.002930	0.817991	0.566222	-1.000000	-1.000000	-1.000000	-1.000000	-1.000000	-1.000000	-1.000000	139.103448	0.000000	-1.000000	-1.000000	456899.000000	1772918943.315683
-4237.020000	22130.685000	-18922.050000	-14837.895000	0.000000	0.000000	0.000000	0.000000	-87.991257	-24.498118	-122.347941	-134.162896	-0.000000	0.000000	-0.000000	-0.000000	6.470240	1.266580	-0.488320	-0.002930	0.817991	0.566222	-1.000000	-1.000000	-1.000000	-1.000000	-1.000000	-1.000000	-1.000000	139.103448	0.000000	-1.000000	-1.000000	456900.000000	1772918943.318224
-4184.280000	22087.485000	-18849.510000	-14758.605000	0.000000	0.000000	0.000000	0.000000	-76.039008	-49.729782	-103.916174	-118.551929	-0.000000	0.000000	-0.000000	-0.000000	6.470240	1.266580	-0.488320	-0.002930	0.817991	0.566222	-1.000000	-1.000000	-1.000000	-1.000000	-1.000000	-1.000000	-1.000000	139.103448	0.000000	-1.000000	-1.000000	456901.000000	1772918943.318227
-4099.680000	22017.240000	-18708.255000	-14605.020000	0.000000	0.000000	0.000000	0.000000	-19.753589	-65.659505	-25.938451	-36.155637	-0.000000	0.000000	-0.000000	-0.000000	5.646200	1.800680	-1.068200	-0.002869	0.818113	0.565001	-1.000000	-1.000000	-1.000000	-1.000000	-1.000000	-1.000000	-1.000000	139.103448	0.000000	-1.000000	-1.000000	456902.000000	1772918943.318231
-4081.905000	22095.495000	-18685.980000	-14560.785000	0.000000	0.000000	0.000000	0.000000	47.931681	-62.355278	67.579228	66.779074	-0.000000	0.000000	-0.000000	-0.000000	5.646200	1.800680	-1.068200	-0.002869	0.818113	0.565001	-1.000000	-1.000000	-1.000000	-1.000000	-1.000000	-1.000000	-1.000000	139.103448	0.000000	-1.000000	-1.000000	456903.000000	1772918943.318234
-4093.965000	22114.890000	-18733.680000	-14596.020000	0.000000	0.000000	0.000000	0.000000	88.833048	-32.970719	123.901619	133.011854	-0.000000	0.000000	-0.000000	-0.000000	5.646200	1.800680	-1.068200	-0.002869	0.818113	0.565001	-1.000000	-1.000000	-1.000000	-1.000000	-1.000000	-1.000000	-1.000000	139.103448	0.000000	-1.000000	-1.000000	456904.000000	1772918943.320915
-4092.840000	21981.420000	-18757.350000	-14608.935000	0.000000	0.000000	0.000000	0.000000	82.255416	11.919283	111.814232	126.689657	-0.000000	0.000000	-0.000000	-0.000000	5.646200	1.800680	-1.068200	-0.002869	0.818113	0.565001	-1.000000	-1.000000	-1.000000	-1.000000	-1.000000	-1.000000	-1.000000	139.103448	0.000000	-1.000000	-1.000000	456905.000000	1772918943.320917
-4188.780000	21956.220000	-18880.515000	-14736.870000	0.000000	0.000000	0.000000	0.000000	34.892596	44.298161	40.583026	54.163983	-0.000000	0.000000	-0.000000	-0.000000	5.646200	1.800680	-1.068200	-0.002869	0.818113	0.565001	-1.000000	-1.000000	-1.000000	-1.000000	-1.000000	-1.000000	-1.000000	139.103448	0.000000	-1.000000	-1.000000	456906.000000	1772918943.324689
-4300.290000	22069.755000	-19009.620000	-14899.005000	0.000000	0.000000	0.000000	0.000000	-29.523395	49.236679	-51.391821	-46.452657	-0.000000	0.000000	-0.000000	-0.000000	5.646200	1.800680	-1.068200	-0.002869	0.818113	0.565001	-1.000000	-1.000000	-1.000000	-1.000000	-1.000000	-1.000000	-1.000000	139.103448	0.000000	-1.000000	-1.000000	456907.000000	1772918943.324692
-4279.770000	22144.500000	-18979.920000	-14932.215000	0.000000	0.000000	0.000000	0.000000	-82.571568	41.245855	-119.699192	-129.003368	-0.000000	0.000000	-0.000000	-0.000000	5.646200	1.800680	-1.068200	-0.002869	0.818113	0.565001	-1.000000	-1.000000	-1.000000	-1.000000	-1.000000	-1.000000	-1.000000	139.103448	0.000000	-1.000000	-1.000000	456908.000000	1772918943.357607
-4254.660000	22154.130000	-18928.620000	-14872.860000	0.000000	0.000000	0.000000	0.000000	-97.402975	37.248114	-129.323749	-153.507062	-0.000000	0.000000	-0.000000	-0.000000	5.646200	1.800680	-1.068200	-0.002869	0.818113	0.565001	-1.000000	-1.000000	-1.000000	-1.000000	-1.000000	-1.000000	-1.000000	139.103448	0.000000	-1.000000	-1.000000	456909.000000	1772918943.357611
-4163.355000	22151.295000	-18806.490000	-14733.900000	0.000000	0.000000	0.000000	0.000000	-62.738402	33.376565	-71.944873	-102.066955	-0.000000	0.000000	-0.000000	-0.000000	5.646200	1.800680	-1.068200	-0.002869	0.818113	0.565001	-1.000000	-1.000000	-1.000000	-1.000000	-1.000000	-1.000000	-1.000000	139.103448	0.000000	-1.000000	-1.000000	456910.000000	1772918943.357615
-4095.090000	22282.020000	-18718.020000	-14631.345000	0.000000	0.000000	0.000000	0.000000	5.916167	19.673733	24.877109	5.207681	-0.000000	0.000000	-0.000000	-0.000000	5.646200	1.800680	-1.068200	-0.002869	0.818113	0.565001	-1.000000	-1.000000	-1.000000	-1.000000	-1.000000	-1.000000	-1.000000	139.103448	0.000000	-1.000000	-1.000000	456911.000000	1772918943.357617
-4126.185000	22371.570000	-18760.545000	-14662.800000	0.000000	0.000000	0.000000	0.000000	72.499476	0.628646	110.169280	113.585244	-0.000000	0.000000	-0.000000	-0.000000	4.120200	4.791640	-1.037680	-0.002808	0.820738	0.562499	-1.000000	-1.000000	-1.000000	-1.000000	-1.000000	-1.000000	-1.000000	139.103448	0.000000	-1.000000	-1.000000	456912.000000	1772918943.357621
-4182.705000	22374.990000	-18833.175000	-14717.430000	0.000000	0.000000	0.000000	0.000000	99.431292	-13.720945	136.355945	162.814159	-0.000000	0.000000	-0.000000	-0.000000	4.120200	4.791640	-1.037680	-0.002808	0.820738	0.562499	-1.000000	-1.000000	-1.000000	-1.000000	-1.000000	-1.000000	-1.000000	139.103448	0.000000	-1.000000	-1.000000	456913.000000	1772918943.357623
-4230.630000	22348.395000	-18903.420000	-14765.265000	0.000000	0.000000	0.000000	0.000000	71.924873	-25.083111	89.346059	127.484831	-0.000000	0.000000	-0.000000	-0.000000	4.120200	4.791640	-1.037680	-0.002808	0.820738	0.562499	-1.000000	-1.000000	-1.000000	-1.000000	-1.000000	-1.000000	-1.000000	139.103448	0.000000	-1.000000	-1.000000	456914.000000	1772918943.357626
-4301.145000	22368.735000	-19004.175000	-14854.950000	0.000000	0.000000	0.000000	0.000000	8.431419	-39.833127	-1.782055	33.023224	-0.000000	0.000000	-0.000000	-0.000000	4.120200	4.791640	-1.037680	-0.002808	0.820738	0.562499	-1.000000	-1.000000	-1.000000	-1.000000	-1.000000	-1.000000	-1.000000	139.103448	0.000000	-1.000000	-1.000000	456915.000000	1772918943.357628
-4273.470000	22413.375000	-18976.905000	-14799.870000	0.000000	0.000000	0.000000	0.000000	-53.438094	-53.167983	-85.547695	-65.482960	-0.000000	0.000000	-0.000000	-0.000000	4.120200	4.791640	-1.037680	-0.002808	0.820738	0.562499	-1.000000	-1.000000	-1.000000	-1.000000	-1.000000	-1.000000	-1.000000	139.103448	0.000000	-1.000000	-1.000000	456916.000000	1772918943.357631
-4207.545000	22426.380000	-18901.755000	-14730.300000	0.000000	0.000000	0.000000	0.000000	-79.287107	-52.856522	-117.171169	-116.112899	-0.000000	0.000000	-0.000000	-0.000000	4.120200	4.791640	-1.037680	-0.002808	0.820738	0.562499	-1.000000	-1.000000	-1.000000	-1.000000	-1.000000	-1.000000	-1.000000	139.103448	0.000000	-1.000000	-1.000000	456917.000000	1772918943.357633
-4143.960000	22388.805000	-18812.610000	-14676.030000	0.000000	0.000000	0.000000	0.000000	-56.536841	-35.858014	-81.654430	-98.223292	-0.000000	0.000000	-0.000000	-0.000000	4.120200	4.791640	-1.037680	-0.002808	0.820738	0.562499	-1.000000	-1.000000	-1.000000	-1.000000	-1.000000	-1.000000	-1.000000	139.103448	0.000000	-1.000000	-1.000000	456918.000000	1772918943.357636
-4057.335000	22290.570000	-18673.380000	-14534.280000	0.000000	0.000000	0.000000	0.000000	-1.436517	-13.960577	-1.425765	-31.398546	-0.000000	0.000000	-0.000000	-0.000000	4.120200	4.791640	-1.037680	-0.002808	0.820738	0.562499	-1.000000	-1.000000	-1.000000	-1.000000	-1.000000	-1.000000	-1.000000	139.103448	0.000000	-1.000000	-1.000000	456919.000000	1772918943.357638
-4052.205000	22336.155000	-18679.140000	-14534.730000	0.000000	0.000000	0.000000	0.000000	52.457909	0.200661	78.074816	42.570920	-0.000000	0.000000	-0.000000	-0.000000	4.120200	4.791640	-1.037680	-0.002808	0.820738	0.562499	-1.000000	-1.000000	-1.000000	-1.000000	-1.000000	-1.000000	-1.000000	139.103448	0.000000	-1.000000	-1.000000	456920.000000	1772918943.357642
-4096.665000	22338.135000	-18767.520000	-14647.320000	0.000000	0.000000	0.000000	0.000000	73.694649	8.406938	111.301847	81.292400	-0.000000	0.000000	-0.000000	-0.000000	4.120200	4.791640	-1.037680	-0.002808	0.820738	0.562499	-1.000000	-1.000000	-1.000000	-1.000000	-1.000000	-1.000000	-1.000000	139.103448	0.000000	-1.000000	-1.000000	456921.000000	1772918943.357643
-4197.960000	22338.045000	-18878.895000	-14725.170000	0.000000	0.000000	0.000000	0.000000	48.785596	19.279907	76.516255	61.206660	-0.000000	0.000000	-0.000000	-0.000000	1.892240	14.695380	-2.670500	0.002502	0.818601	0.555480	-1.000000	-1.000000	-1.000000	-1.000000	-1.000000	-1.000000	-1.000000	139.103448	0.000000	-1.000000	-1.000000	456922.000000	1772918943.357646
-4289.175000	22264.335000	-18982.845000	-14838.480000	0.000000	0.000000	0.000000	0.000000	-10.212107	31.236001	-7.855799	-4.655441	-0.000000	0.000000	-0.000000	-0.000000	1.892240	14.695380	-2.670500	0.002502	0.818601	0.555480	-1.000000	-1.000000	-1.000000	-1.000000	-1.000000	-1.000000	-1.000000	139.103448	0.000000	-1.000000	-1.000000	456923.000000	1772918943.357653
-4275.540000	22246.380000	-18976.995000	-14911.920000	0.000000	0.000000	0.000000	0.000000	-70.170087	34.229217	-92.199716	-74.705141	-0.000000	0.000000	-0.000000	-0.000000	1.892240	14.695380	-2.670500	0.002502	0.818601	0.555480	-1.000000	-1.000000	-1.000000	-1.000000	-1.000000	-1.000000	-1.000000	139.103448	0.000000	-1.000000	-1.000000	456924.000000	1772918943.360933
-4245.165000	22293.810000	-18906.795000	-14785.740000	0.000000	0.000000	0.000000	0.000000	-94.118085	25.777681	-125.614638	-105.164794	-0.000000	0.000000	-0.000000	-0.000000	1.892240	14.695380	-2.670500	0.002502	0.818601	0.555480	-1.000000	-1.000000	-1.000000	-1.000000	-1.000000	-1.000000	-1.000000	139.103448	0.000000	-1.000000	-1.000000	456925.000000	1772918943.360936
-4228.740000	22369.230000	-18866.025000	-14753.880000	0.000000	0.000000	0.000000	0.000000	-66.348740	16.637272	-88.094838	-73.108897	-0.000000	0.000000	-0.000000	-0.000000	1.892240	14.695380	-2.670500	0.002502	0.818601	0.555480	-1.000000	-1.000000	-1.000000	-1.000000	-1.000000	-1.000000	-1.000000	139.103448	0.000000	-1.000000	-1.000000	456926.000000	1772918943.364927
-4127.220000	22462.965000	-18756.495000	-14665.770000	0.000000	0.000000	0.000000	0.000000	-3.008216	18.061303	-2.777098	6.516543	-0.000000	0.000000	-0.000000	-0.000000	1.892240	14.695380	-2.670500	0.002502	0.818601	0.555480	-1.000000	-1.000000	-1.000000	-1.000000	-1.000000	-1.000000	-1.000000	139.103448	0.000000	-1.000000	-1.000000	456927.000000	1772918943.364929
-4120.650000	22507.650000	-18751.545000	-14639.445000	0.000000	0.000000	0.000000	0.000000	62.375998	28.313158	82.443144	88.291854	-0.000000	0.000000	-0.000000	-0.000000	1.892240	14.695380	-2.670500	0.002502	0.818601	0.555480	-1.000000	-1.000000	-1.000000	-1.000000	-1.000000	-1.000000	-1.000000	139.103448	0.000000	-1.000000	-1.000000	456928.000000	1772918943.390732
-4164.705000	22508.685000	-18775.080000	-14660.190000	0.000000	0.000000	0.000000	0.000000	97.012742	33.138985	123.539337	127.475969	-0.000000	0.000000	-0.000000	-0.000000	1.892240	14.695380	-2.670500	0.002502	0.818601	0.555480	-1.000000	-1.000000	-1.000000	-1.000000	-1.000000	-1.000000	-1.000000	139.103448	0.000000	-1.000000	-1.000000	456929.000000	1772918943.390736
-4213.845000	22457.340000	-18845.280000	-14761.710000	0.000000	0.000000	0.000000	0.000000	82.968564	17.937026	101.453876	104.039771	-0.000000	0.000000	-0.000000	-0.000000	1.892240	14.695380	-2.670500	0.002502	0.818601	0.555480	-1.000000	-1.000000	-1.000000	-1.000000	-1.000000	-1.000000	-1.000000	139.103448	0.000000	-1.000000	-1.000000	456930.000000	1772918943.390949
-4293.495000	22328.505000	-18955.350000	-14889.465000	0.000000	0.000000	0.000000	0.000000	28.267896	-20.152070	29.871375	29.043801	-0.000000	0.000000	-0.000000	-0.000000	1.892240	14.695380	-2.670500	0.002502	0.818601	0.555480	-1.000000	-1.000000	-1.000000	-1.000000	-1.000000	-1.000000	-1.000000	139.103448	0.000000	-1.000000	-1.000000	456931.000000	1772918943.390952
-4293.945000	22246.110000	-18964.035000	-14873.130000	0.000000	0.000000	0.000000	0.000000	-36.925001	-68.536378	-53.516052	-59.921400	-0.000000	0.000000	-0.000000	-0.000000	-21.547120	25.682580	-1.190280	0.008484	0.818723	0.528075	-1.000000	-1.000000	-1.000000	-1.000000	-1.000000	-1.000000	-1.000000	139.103448	0.000000	-1.000000	-1.000000	456932.000000	1772918943.390956
-4146.615000	22062.870000	-18801.090000	-14637.735000	0.000000	0.000000	0.000000	0.000000	-75.325584	-105.198189	-102.869413	-110.934055	-0.000000	0.000000	-0.000000	-0.000000	-21.547120	25.682580	-1.190280	0.008484	0.818723	0.528075	-1.000000	-1.000000	-1.000000	-1.000000	-1.000000	-1.000000	-1.000000	139.103448	0.000000	-1.000000	-1.000000	456933.000000	1772918943.390958
-4040.640000	21998.745000	-18715.365000	-14520.105000	0.000000	0.000000	0.000000	0.000000	-62.293434	-111.411269	-87.653301	-87.619095	-0.000000	0.000000	-0.000000	-0.000000	-21.547120	25.682580	-1.190280	0.008484	0.818723	0.528075	-1.000000	-1.000000	-1.000000	-1.000000	-1.000000	-1.000000	-1.000000	139.103448	0.000000	-1.000000	-1.000000	456934.000000	1772918943.390961
-3991.185000	21947.400000	-18675.855000	-14424.570000	0.000000	0.000000	0.000000	0.000000	-6.860012	-79.381268	-19.298903	-4.782364	-0.000000	0.000000	-0.000000	-0.000000	-21.547120	25.682580	-1.190280	0.008484	0.818723	0.528075	-1.000000	-1.000000	-1.000000	-1.000000	-1.000000	-1.000000	-1.000000	139.103448	0.000000	-1.000000	-1.000000	456935.000000	1772918943.390963
-4049.055000	21890.655000	-18711.045000	-14481.000000	0.000000	0.000000	0.000000	0.000000	49.376727	-15.634073	52.740075	76.777758	-0.000000	0.000000	-0.000000	-0.000000	-21.547120	25.682580	-1.190280	0.008484	0.818723	0.528075	-1.000000	-1.000000	-1.000000	-1.000000	-1.000000	-1.000000	-1.000000	139.103448	0.000000	-1.000000	-1.000000	456936.000000	1772918943.390966
-4132.080000	21827.655000	-18779.580000	-14566.050000	0.000000	0.000000	0.000000	0.000000	63.643929	56.739849	80.006237	98.195372	-0.000000	0.000000	-0.000000	-0.000000	-21.547120	25.682580	-1.190280	0.008484	0.818723	0.528075	-1.000000	-1.000000	-1.000000	-1.000000	-1.000000	-1.000000	-1.000000	139.103448	0.000000	-1.000000	-1.000000	456937.000000	1772918943.390968
-4150.215000	21745.260000	-18808.965000	-14645.340000	0.000000	0.000000	0.000000	0.000000	26.250999	107.981102	49.897164	45.648628	-0.000000	0.000000	-0.000000	-0.000000	-21.547120	25.682580	-1.190280	0.008484	0.818723	0.528075	-1.000000	-1.000000	-1.000000	-1.000000	-1.000000	-1.000000	-1.000000	139.103448	0.000000	-1.000000	-1.000000	456938.000000	1772918943.390971
-4119.300000	21718.575000	-18878.220000	-14818.005000	0.000000	0.000000	0.000000	0.000000	-32.383969	119.865837	-11.487665	-45.875573	-0.000000	0.000000	-0.000000	-0.000000	-21.547120	25.682580	-1.190280	0.008484	0.818723	0.528075	-1.000000	-1.000000	-1.000000	-1.000000	-1.000000	-1.000000	-1.000000	139.103448	0.000000	-1.000000	-1.000000	456939.000000	1772918943.390973
-4205.385000	21736.395000	-18973.215000	-14892.705000	0.000000	0.000000	0.000000	0.000000	-70.795259	96.494891	-65.493741	-123.386279	-0.000000	0.000000	-0.000000	-0.000000	-21.547120	25.682580	-1.190280	0.008484	0.818723	0.528075	-1.000000	-1.000000	-1.000000	-1.000000	-1.000000	-1.000000	-1.000000	139.103448	0.000000	-1.000000	-1.000000	456940.000000	1772918943.392869
-4279.815000	21856.545000	-19035.495000	-14879.970000	0.000000	0.000000	0.000000	0.000000	-72.394287	59.792058	-87.412674	-145.299825	-0.000000	0.000000	-0.000000	-0.000000	-21.547120	25.682580	-1.190280	0.008484	0.818723	0.528075	-1.000000	-1.000000	-1.000000	-1.000000	-1.000000	-1.000000	-1.000000	139.103448	0.000000	-1.000000	-1.000000	456941.000000	1772918943.392872
-4339.440000	21899.520000	-19049.220000	-14872.230000	0.000000	0.000000	0.000000	0.000000	-48.153180	31.553293	-71.700745	-97.411934	-0.000000	0.000000	-0.000000	-0.000000	-75.460700	28.154700	-5.814060	0.010620	0.872129	0.492613	-1.000000	-1.000000	-1.000000	-1.000000	-1.000000	-1.000000	-1.000000	139.103448	0.000000	-1.000000	-1.000000	456942.000000	1772918943.396763
-4230.945000	21850.155000	-18885.330000	-14748.165000	0.000000	0.000000	0.000000	0.000000	-12.268819	14.263053	-23.456962	0.246952	-0.000000	0.000000	-0.000000	-0.000000	-75.460700	28.154700	-5.814060	0.010620	0.872129	0.492613	-1.000000	-1.000000	-1.000000	-1.000000	-1.000000	-1.000000	-1.000000	139.103448	0.000000	-1.000000	-1.000000	456943.000000	1772918943.396766
-4024.350000	21870.135000	-18607.725000	-14487.120000	0.000000	0.000000	0.000000	0.000000	33.097230	-6.127064	48.796635	108.274184	-0.000000	0.000000	-0.000000	-0.000000	-75.460700	28.154700	-5.814060	0.010620	0.872129	0.492613	-1.000000	-1.000000	-1.000000	-1.000000	-1.000000	-1.000000	-1.000000	139.103448	0.000000	-1.000000	-1.000000	456944.000000	1772918943.399829
-3943.440000	21949.920000	-18490.005000	-14392.755000	0.000000	0.000000	0.000000	0.000000	85.432361	-34.562654	126.266093	188.164966	-0.000000	0.000000	-0.000000	-0.000000	-75.460700	28.154700	-5.814060	0.010620	0.872129	0.492613	-1.000000	-1.000000	-1.000000	-1.000000	-1.000000	-1.000000	-1.000000	139.103448	0.000000	-1.000000	-1.000000	456945.000000	1772918943.399832
-4071.870000	21964.860000	-18584.010000	-14508.270000	0.000000	0.000000	0.000000	0.000000	119.667844	-57.868789	168.130953	203.728764	-0.000000	0.000000	-0.000000	-0.000000	-75.460700	28.154700	-5.814060	0.010620	0.872129	0.492613	-1.000000	-1.000000	-1.000000	-1.000000	-1.000000	-1.000000	-1.000000	139.103448	0.000000	-1.000000	-1.000000	456946.000000	1772918943.406208
-4290.975000	21916.575000	-18832.005000	-14748.390000	0.000000	0.000000	0.000000	0.000000	97.017679	-65.198322	128.876307	129.212856	-0.000000	0.000000	-0.000000	-0.000000	-75.460700	28.154700	-5.814060	0.010620	0.872129	0.492613	-1.000000	-1.000000	-1.000000	-1.000000	-1.000000	-1.000000	-1.000000	139.103448	0.000000	-1.000000	-1.000000	456947.000000	1772918943.406210
-4330.890000	21738.735000	-18931.005000	-14860.665000	0.000000	0.000000	0.000000	0.000000	9.669839	-63.122527	5.079959	-19.342901	-0.000000	0.000000	-0.000000	-0.000000	-75.460700	28.154700	-5.814060	0.010620	0.872129	0.492613	-1.000000	-1.000000	-1.000000	-1.000000	-1.000000	-1.000000	-1.000000	139.103448	0.000000	-1.000000	-1.000000	456948.000000	1772918943.409155
-4175.370000	21630.375000	-18832.815000	-14757.930000	0.000000	0.000000	0.000000	0.000000	-91.324179	-64.712849	-138.983674	-169.150975	-0.000000	0.000000	-0.000000	-0.000000	-75.460700	28.154700	-5.814060	0.010620	0.872129	0.492613	-1.000000	-1.000000	-1.000000	-1.000000	-1.000000	-1.000000	-1.000000	139.103448	0.000000	-1.000000	-1.000000	456949.000000	1772918943.409157
-4103.460000	21659.040000	-18807.705000	-14709.330000	0.000000	0.000000	0.000000	0.000000	-133.063654	-66.911552	-212.280430	-232.253209	-0.000000	0.000000	-0.000000	-0.000000	-75.460700	28.154700	-5.814060	0.010620	0.872129	0.492613	-1.000000	-1.000000	-1.000000	-1.000000	-1.000000	-1.000000	-1.000000	139.103448	0.000000	-1.000000	-1.000000	456950.000000	1772918943.412331
-4239.180000	21712.410000	-18813.195000	-14669.235000	0.000000	0.000000	0.000000	0.000000	-93.113243	-48.350095	-174.285103	-176.013883	-0.000000	0.000000	-0.000000	-0.000000	-75.460700	28.154700	-5.814060	0.010620	0.872129	0.492613	-1.000000	-1.000000	-1.000000	-1.000000	-1.000000	-1.000000	-1.000000	139.103448	0.000000	-1.000000	-1.000000	456951.000000	1772918943.412334
-4163.940000	21807.855000	-18600.750000	-14461.695000	0.000000	0.000000	0.000000	0.000000	-15.491512	3.878857	-58.034216	-42.142204	-0.000000	0.000000	-0.000000	-0.000000	-144.329080	25.331600	-3.158820	0.019348	0.947202	0.491759	-1.000000	-1.000000	-1.000000	-1.000000	-1.000000	-1.000000	-1.000000	139.103448	0.000000	-1.000000	-1.000000	456952.000000	1772918943.415636
-4121.100000	21798.045000	-18655.830000	-14485.950000	0.000000	0.000000	0.000000	0.000000	47.135654	72.649863	70.734447	95.320974	-0.000000	0.000000	-0.000000	-0.000000	-144.329080	25.331600	-3.158820	0.019348	0.947202	0.491759	-1.000000	-1.000000	-1.000000	-1.000000	-1.000000	-1.000000	-1.000000	139.103448	0.000000	-1.000000	-1.000000	456953.000000	1772918943.415638
-4197.960000	21727.845000	-18780.795000	-14595.390000	0.000000	0.000000	0.000000	0.000000	72.919245	118.721674	148.164334	168.983980	-0.000000	0.000000	-0.000000	-0.000000	-144.329080	25.331600	-3.158820	0.019348	0.947202	0.491759	-1.000000	-1.000000	-1.000000	-1.000000	-1.000000	-1.000000	-1.000000	139.103448	0.000000	-1.000000	-1.000000	456954.000000	1772918943.419729
-4088.925000	21796.785000	-18648.855000	-14574.420000	0.000000	0.000000	0.000000	0.000000	63.087292	112.945135	141.374322	147.295182	-0.000000	0.000000	-0.000000	-0.000000	-144.329080	25.331600	-3.158820	0.019348	0.947202	0.491759	-1.000000	-1.000000	-1.000000	-1.000000	-1.000000	-1.000000	-1.000000	139.103448	0.000000	-1.000000	-1.000000	456955.000000	1772918943.419733
-4222.215000	21913.335000	-18763.245000	-14791.905000	0.000000	0.000000	0.000000	0.000000	31.509128	64.856412	72.158612	53.216887	-0.000000	0.000000	-0.000000	-0.000000	-144.329080	25.331600	-3.158820	0.019348	0.947202	0.491759	-1.000000	-1.000000	-1.000000	-1.000000	-1.000000	-1.000000	-1.000000	139.103448	0.000000	-1.000000	-1.000000	456956.000000	1772918943.423750
-4361.265000	21932.955000	-18971.415000	-15004.845000	0.000000	0.000000	0.000000	0.000000	-8.620584	9.975732	-14.057658	-60.950115	-0.000000	0.000000	-0.000000	-0.000000	-144.329080	25.331600	-3.158820	0.019348	0.947202	0.491759	-1.000000	-1.000000	-1.000000	-1.000000	-1.000000	-1.000000	-1.000000	139.103448	0.000000	-1.000000	-1.000000	456957.000000	1772918943.423753
-4349.610000	21836.925000	-18940.455000	-14900.220000	0.000000	0.000000	0.000000	0.000000	-48.146450	-30.020386	-84.794901	-143.076904	-0.000000	0.000000	-0.000000	-0.000000	-144.329080	25.331600	-3.158820	0.019348	0.947202	0.491759	-1.000000	-1.000000	-1.000000	-1.000000	-1.000000	-1.000000	-1.000000	139.103448	0.000000	-1.000000	-1.000000	456958.000000	1772918943.427588
-4348.035000	21785.040000	-18889.920000	-14778.630000	0.000000	0.000000	0.000000	0.000000	-68.938887	-58.510204	-112.918978	-148.142964	-0.000000	0.000000	-0.000000	-0.000000	-144.329080	25.331600	-3.158820	0.019348	0.947202	0.491759	-1.000000	-1.000000	-1.000000	-1.000000	-1.000000	-1.000000	-1.000000	139.103448	0.000000	-1.000000	-1.000000	456959.000000	1772918943.427591
-4138.605000	21750.480000	-18703.890000	-14585.490000	0.000000	0.000000	0.000000	0.000000	-50.745043	-80.087303	-79.023607	-63.322846	-0.000000	0.000000	-0.000000	-0.000000	-144.329080	25.331600	-3.158820	0.019348	0.947202	0.491759	-1.000000	-1.000000	-1.000000	-1.000000	-1.000000	-1.000000	-1.000000	139.103448	0.000000	-1.000000	-1.000000	456960.000000	1772918943.432004
-3948.885000	21755.475000	-18499.005000	-14402.880000	0.000000	0.000000	0.000000	0.000000	9.266008	-85.999420	7.369103	70.559329	-0.000000	0.000000	-0.000000	-0.000000	-144.329080	25.331600	-3.158820	0.019348	0.947202	0.491759	-1.000000	-1.000000	-1.000000	-1.000000	-1.000000	-1.000000	-1.000000	139.103448	0.000000	-1.000000	-1.000000	456961.000000	1772918943.432007
-3933.765000	21640.185000	-18418.905000	-14380.245000	0.000000	0.000000	0.000000	0.000000	84.373476	-67.843804	104.396294	180.345275	-0.000000	0.000000	-0.000000	-0.000000	-121.591680	3.448760	1.846460	-0.005859	0.947629	0.555235	-1.000000	-1.000000	-1.000000	-1.000000	-1.000000	-1.000000	-1.000000	139.103448	0.000000	-1.000000	-1.000000	456962.000000	1772918943.435749
-4112.910000	21653.100000	-18587.520000	-14569.515000	0.000000	0.000000	0.000000	0.000000	122.115482	-31.742841	153.172834	200.128624	-0.000000	0.000000	-0.000000	-0.000000	-121.591680	3.448760	1.846460	-0.005859	0.947629	0.555235	-1.000000	-1.000000	-1.000000	-1.000000	-1.000000	-1.000000	-1.000000	139.103448	0.000000	-1.000000	-1.000000	456963.000000	1772918943.435752
-4119.795000	21649.320000	-18692.595000	-14727.510000	0.000000	0.000000	0.000000	0.000000	83.671182	9.433694	112.109377	108.086805	-0.000000	0.000000	-0.000000	-0.000000	-121.591680	3.448760	1.846460	-0.005859	0.947629	0.555235	-1.000000	-1.000000	-1.000000	-1.000000	-1.000000	-1.000000	-1.000000	139.103448	0.000000	-1.000000	-1.000000	456964.000000	1772918943.439940
-4088.205000	21459.735000	-18903.375000	-14855.265000	0.000000	0.000000	0.000000	0.000000	-11.138397	42.556566	-5.952592	-51.943446	-0.000000	0.000000	-0.000000	-0.000000	-121.591680	3.448760	1.846460	-0.005859	0.947629	0.555235	-1.000000	-1.000000	-1.000000	-1.000000	-1.000000	-1.000000	-1.000000	139.103448	0.000000	-1.000000	-1.000000	456965.000000	1772918943.439942
-4231.440000	21347.910000	-18978.390000	-14890.095000	0.000000	0.000000	0.000000	0.000000	-100.703262	51.821988	-136.953093	-191.962013	-0.000000	0.000000	-0.000000	-0.000000	-121.591680	3.448760	1.846460	-0.005859	0.947629	0.555235	-1.000000	-1.000000	-1.000000	-1.000000	-1.000000	-1.000000	-1.000000	139.103448	0.000000	-1.000000	-1.000000	456966.000000	1772918943.443742
-4359.915000	21426.750000	-18999.090000	-14863.500000	0.000000	0.000000	0.000000	0.000000	-142.016772	35.939946	-207.395690	-236.243005	-0.000000	0.000000	-0.000000	-0.000000	-121.591680	3.448760	1.846460	-0.005859	0.947629	0.555235	-1.000000	-1.000000	-1.000000	-1.000000	-1.000000	-1.000000	-1.000000	139.103448	0.000000	-1.000000	-1.000000	456967.000000	1772918943.443745
-4315.815000	21482.685000	-18945.270000	-14766.480000	0.000000	0.000000	0.000000	0.000000	-129.139030	19.799958	-177.484653	-165.384194	-0.000000	0.000000	-0.000000	-0.000000	-121.591680	3.448760	1.846460	-0.005859	0.947629	0.555235	-1.000000	-1.000000	-1.000000	-1.000000	-1.000000	-1.000000	-1.000000	139.103448	0.000000	-1.000000	-1.000000	456968.000000	1772918943.447806
-4182.390000	21517.425000	-18632.070000	-14508.405000	0.000000	0.000000	0.000000	0.000000	-69.052276	25.659841	-57.874195	-17.438590	-0.000000	0.000000	-0.000000	-0.000000	-121.591680	3.448760	1.846460	-0.005859	0.947629	0.555235	-1.000000	-1.000000	-1.000000	-1.000000	-1.000000	-1.000000	-1.000000	139.103448	0.000000	-1.000000	-1.000000	456969.000000	1772918943.447809
-4068.405000	21553.155000	-18513.765000	-14435.640000	0.000000	0.000000	0.000000	0.000000	24.080769	46.560584	101.160866	139.175852	-0.000000	0.000000	-0.000000	-0.000000	-121.591680	3.448760	1.846460	-0.005859	0.947629	0.555235	-1.000000	-1.000000	-1.000000	-1.000000	-1.000000	-1.000000	-1.000000	139.103448	0.000000	-1.000000	-1.000000	456970.000000	1772918943.451795
-4107.105000	21543.615000	-18810.765000	-14664.915000	0.000000	0.000000	0.000000	0.000000	115.267245	58.071850	219.843208	228.235909	-0.000000	0.000000	-0.000000	-0.000000	-121.591680	3.448760	1.846460	-0.005859	0.947629	0.555235	-1.000000	-1.000000	-1.000000	-1.000000	-1.000000	-1.000000	-1.000000	139.103448	0.000000	-1.000000	-1.000000	456971.000000	1772918943.451797
-4152.060000	21560.625000	-18893.070000	-14758.830000	0.000000	0.000000	0.000000	0.000000	156.949435	43.367239	221.451242	197.213234	-0.000000	0.000000	-0.000000	-0.000000	-128.412900	-25.362120	18.647720	-0.061279	0.903379	0.666319	-1.000000	-1.000000	-1.000000	-1.000000	-1.000000	-1.000000	-1.000000	139.103448	0.000000	-1.000000	-1.000000	456972.000000	1772918943.455861
-4228.155000	21563.460000	-18802.035000	-14731.245000	0.000000	0.000000	0.000000	0.000000	124.033504	5.632498	104.701393	65.184657	-0.000000	0.000000	-0.000000	-0.000000	-128.412900	-25.362120	18.647720	-0.061279	0.903379	0.666319	-1.000000	-1.000000	-1.000000	-1.000000	-1.000000	-1.000000	-1.000000	139.103448	0.000000	-1.000000	-1.000000	456973.000000	1772918943.455864
-4136.355000	21593.835000	-18747.000000	-14669.640000	0.000000	0.000000	0.000000	0.000000	38.336567	-36.493961	-43.189982	-80.035237	-0.000000	0.000000	-0.000000	-0.000000	-128.412900	-25.362120	18.647720	-0.061279	0.903379	0.666319	-1.000000	-1.000000	-1.000000	-1.000000	-1.000000	-1.000000	-1.000000	139.103448	0.000000	-1.000000	-1.000000	456974.000000	1772918943.459892
-4222.935000	21669.435000	-18941.850000	-14924.610000	0.000000	0.000000	0.000000	0.000000	-48.143992	-62.161418	-134.356749	-159.008898	-0.000000	0.000000	-0.000000	-0.000000	-128.412900	-25.362120	18.647720	-0.061279	0.903379	0.666319	-1.000000	-1.000000	-1.000000	-1.000000	-1.000000	-1.000000	-1.000000	139.103448	0.000000	-1.000000	-1.000000	456975.000000	1772918943.459895
-4365.270000	21734.235000	-19027.125000	-14963.085000	0.000000	0.000000	0.000000	0.000000	-98.325071	-59.886577	-150.243320	-159.060613	-0.000000	0.000000	-0.000000	-0.000000	-128.412900	-25.362120	18.647720	-0.061279	0.903379	0.666319	-1.000000	-1.000000	-1.000000	-1.000000	-1.000000	-1.000000	-1.000000	139.103448	0.000000	-1.000000	-1.000000	456976.000000	1772918943.463890
-4161.870000	21755.565000	-18794.970000	-14708.340000	0.000000	0.000000	0.000000	0.000000	-104.647903	-34.709209	-113.114724	-103.897711	-0.000000	0.000000	-0.000000	-0.000000	-128.412900	-25.362120	18.647720	-0.061279	0.903379	0.666319	-1.000000	-1.000000	-1.000000	-1.000000	-1.000000	-1.000000	-1.000000	139.103448	0.000000	-1.000000	-1.000000	456977.000000	1772918943.463893
-3947.895000	21705.120000	-18591.030000	-14560.920000	0.000000	0.000000	0.000000	0.000000	-64.689912	-6.382691	-36.394315	-9.660229	-0.000000	0.000000	-0.000000	-0.000000	-128.412900	-25.362120	18.647720	-0.061279	0.903379	0.666319	-1.000000	-1.000000	-1.000000	-1.000000	-1.000000	-1.000000	-1.000000	139.103448	0.000000	-1.000000	-1.000000	456978.000000	1772918943.468670
-3993.885000	21675.375000	-18648.270000	-14693.400000	0.000000	0.000000	0.000000	0.000000	11.935428	4.984704	60.225270	93.887163	-0.000000	0.000000	-0.000000	-0.000000	-128.412900	-25.362120	18.647720	-0.061279	0.903379	0.666319	-1.000000	-1.000000	-1.000000	-1.000000	-1.000000	-1.000000	-1.000000	139.103448	0.000000	-1.000000	-1.000000	456979.000000	1772918943.468673
-4101.705000	21651.885000	-18759.780000	-14787.945000	0.000000	0.000000	0.000000	0.000000	79.010235	-4.456736	125.233899	148.257130	-0.000000	0.000000	-0.000000	-0.000000	-128.412900	-25.362120	18.647720	-0.061279	0.903379	0.666319	-1.000000	-1.000000	-1.000000	-1.000000	-1.000000	-1.000000	-1.000000	139.103448	0.000000	-1.000000	-1.000000	456980.000000	1772918943.472772
-4197.150000	21716.595000	-18879.345000	-14874.120000	0.000000	0.000000	0.000000	0.000000	85.277369	-19.540333	111.945964	116.310740	-0.000000	0.000000	-0.000000	-0.000000	-128.412900	-25.362120	18.647720	-0.061279	0.903379	0.666319	-1.000000	-1.000000	-1.000000	-1.000000	-1.000000	-1.000000	-1.000000	139.103448	0.000000	-1.000000	-1.000000	456981.000000	1772918943.472775
-4262.580000	21665.295000	-19044.945000	-14962.140000	0.000000	0.000000	0.000000	0.000000	27.106263	-21.828394	26.378994	22.020483	-0.000000	0.000000	-0.000000	-0.000000	38.485720	-55.805820	53.760980	-0.104492	0.802183	0.784971	-1.000000	-1.000000	-1.000000	-1.000000	-1.000000	-1.000000	-1.000000	139.103448	0.000000	-1.000000	-1.000000	456982.000000	1772918943.476108
-4164.840000	21578.355000	-18870.570000	-14866.695000	0.000000	0.000000	0.000000	0.000000	-48.256423	-9.782737	-73.731588	-71.404340	-0.000000	0.000000	-0.000000	-0.000000	38.485720	-55.805820	53.760980	-0.104492	0.802183	0.784971	-1.000000	-1.000000	-1.000000	-1.000000	-1.000000	-1.000000	-1.000000	139.103448	0.000000	-1.000000	-1.000000	456983.000000	1772918943.476110
-4200.030000	21535.470000	-18905.850000	-14870.475000	0.000000	0.000000	0.000000	0.000000	-85.269389	2.715551	-119.921202	-108.315887	-0.000000	0.000000	-0.000000	-0.000000	38.485720	-55.805820	53.760980	-0.104492	0.802183	0.784971	-1.000000	-1.000000	-1.000000	-1.000000	-1.000000	-1.000000	-1.000000	139.103448	0.000000	-1.000000	-1.000000	456984.000000	1772918943.481865
-4244.175000	21564.810000	-18866.655000	-14753.115000	0.000000	0.000000	0.000000	0.000000	-66.436680	8.233731	-87.252303	-75.187059	-0.000000	0.000000	-0.000000	-0.000000	38.485720	-55.805820	53.760980	-0.104492	0.802183	0.784971	-1.000000	-1.000000	-1.000000	-1.000000	-1.000000	-1.000000	-1.000000	139.103448	0.000000	-1.000000	-1.000000	456985.000000	1772918943.481868
-4187.340000	21675.195000	-18832.005000	-14659.380000	0.000000	0.000000	0.000000	0.000000	-16.025400	15.188458	-8.361715	-0.501671	-0.000000	0.000000	-0.000000	-0.000000	38.485720	-55.805820	53.760980	-0.104492	0.802183	0.784971	-1.000000	-1.000000	-1.000000	-1.000000	-1.000000	-1.000000	-1.000000	139.103448	0.000000	-1.000000	-1.000000	456986.000000	1772918943.514241
-4044.240000	21691.395000	-18747.045000	-14575.230000	0.000000	0.000000	0.000000	0.000000	36.378344	32.518019	66.323810	71.775311	-0.000000	0.000000	-0.000000	-0.000000	38.485720	-55.805820	53.760980	-0.104492	0.802183	0.784971	-1.000000	-1.000000	-1.000000	-1.000000	-1.000000	-1.000000	-1.000000	139.103448	0.000000	-1.000000	-1.000000	456987.000000	1772918943.514245
-4068.360000	21642.615000	-18880.515000	-14718.465000	0.000000	0.000000	0.000000	0.000000	74.262637	51.098012	101.120539	102.441623	-0.000000	0.000000	-0.000000	-0.000000	38.485720	-55.805820	53.760980	-0.104492	0.802183	0.784971	-1.000000	-1.000000	-1.000000	-1.000000	-1.000000	-1.000000	-1.000000	139.103448	0.000000	-1.000000	-1.000000	456988.000000	1772918943.514250
-4158.585000	21700.935000	-18992.655000	-14886.045000	0.000000	0.000000	0.000000	0.000000	82.436007	51.471576	80.167385	69.113813	-0.000000	0.000000	-0.000000	-0.000000	38.485720	-55.805820	53.760980	-0.104492	0.802183	0.784971	-1.000000	-1.000000	-1.000000	-1.000000	-1.000000	-1.000000	-1.000000	139.103448	0.000000	-1.000000	-1.000000	456989.000000	1772918943.514253
-4187.970000	21674.520000	-19068.165000	-15018.030000	0.000000	0.000000	0.000000	0.000000	50.291141	28.420124	13.929540	-17.273324	-0.000000	0.000000	-0.000000	-0.000000	38.485720	-55.805820	53.760980	-0.104492	0.802183	0.784971	-1.000000	-1.000000	-1.000000	-1.000000	-1.000000	-1.000000	-1.000000	139.103448	0.000000	-1.000000	-1.000000	456990.000000	1772918943.514257
-4302.135000	21601.665000	-19242.360000	-15029.595000	0.000000	0.000000	0.000000	0.000000	-10.037776	-7.297016	-61.493374	-107.914794	-0.000000	0.000000	-0.000000	-0.000000	38.485720	-55.805820	53.760980	-0.104492	0.802183	0.784971	-1.000000	-1.000000	-1.000000	-1.000000	-1.000000	-1.000000	-1.000000	139.103448	0.000000	-1.000000	-1.000000	456991.000000	1772918943.514259
-4049.685000	21682.935000	-18960.795000	-14843.430000	0.000000	0.000000	0.000000	0.000000	-62.985923	-40.652842	-102.005040	-141.816149	-0.000000	0.000000	-0.000000	-0.000000	151.730180	-79.245180	85.761200	-0.097473	0.700865	0.809629	-1.000000	-1.000000	-1.000000	-1.000000	-1.000000	-1.000000	-1.000000	139.103448	0.000000	-1.000000	-1.000000	456992.000000	1772918943.514263
-3749.490000	21800.655000	-18689.265000	-14663.115000	0.000000	0.000000	0.000000	0.000000	-65.932038	-53.299002	-71.898429	-86.889372	-0.000000	0.000000	-0.000000	-0.000000	151.730180	-79.245180	85.761200	-0.097473	0.700865	0.809629	-1.000000	-1.000000	-1.000000	-1.000000	-1.000000	-1.000000	-1.000000	139.103448	0.000000	-1.000000	-1.000000	456993.000000	1772918943.514265
-3801.690000	21835.980000	-18663.975000	-14462.955000	0.000000	0.000000	0.000000	0.000000	-8.532510	-34.255804	24.353531	33.177052	-0.000000	0.000000	-0.000000	-0.000000	151.730180	-79.245180	85.761200	-0.097473	0.700865	0.809629	-1.000000	-1.000000	-1.000000	-1.000000	-1.000000	-1.000000	-1.000000	139.103448	0.000000	-1.000000	-1.000000	456994.000000	1772918943.514269
-4284.720000	21818.115000	-19019.205000	-14759.865000	0.000000	0.000000	0.000000	0.000000	51.130738	2.343399	115.628490	143.720415	-0.000000	0.000000	-0.000000	-0.000000	151.730180	-79.245180	85.761200	-0.097473	0.700865	0.809629	-1.000000	-1.000000	-1.000000	-1.000000	-1.000000	-1.000000	-1.000000	139.103448	0.000000	-1.000000	-1.000000	456995.000000	1772918943.514271
-4428.045000	21855.060000	-19020.645000	-14917.320000	0.000000	0.000000	0.000000	0.000000	34.850205	27.778651	118.302490	162.244418	-0.000000	0.000000	-0.000000	-0.000000	151.730180	-79.245180	85.761200	-0.097473	0.700865	0.809629	-1.000000	-1.000000	-1.000000	-1.000000	-1.000000	-1.000000	-1.000000	139.103448	0.000000	-1.000000	-1.000000	456996.000000	1772918943.514275
-4377.105000	21909.870000	-19028.295000	-14884.740000	0.000000	0.000000	0.000000	0.000000	-54.268964	28.047830	29.062174	71.112423	-0.000000	0.000000	-0.000000	-0.000000	151.730180	-79.245180	85.761200	-0.097473	0.700865	0.809629	-1.000000	-1.000000	-1.000000	-1.000000	-1.000000	-1.000000	-1.000000	139.103448	0.000000	-1.000000	-1.000000	456997.000000	1772918943.514277
-4471.650000	21765.825000	-19204.290000	-15020.460000	0.000000	0.000000	0.000000	0.000000	-129.384683	8.610821	-78.364823	-60.302164	-0.000000	0.000000	-0.000000	-0.000000	151.730180	-79.245180	85.761200	-0.097473	0.700865	0.809629	-1.000000	-1.000000	-1.000000	-1.000000	-1.000000	-1.000000	-1.000000	139.103448	0.000000	-1.000000	-1.000000	456998.000000	1772918943.514281
-4459.590000	21650.265000	-19143.315000	-15009.300000	0.000000	0.000000	0.000000	0.000000	-121.897462	-23.033191	-135.584997	-145.563883	-0.000000	0.000000	-0.000000	-0.000000	151.730180	-79.245180	85.761200	-0.097473	0.700865	0.809629	-1.000000	-1.000000	-1.000000	-1.000000	-1.000000	-1.000000	-1.000000	139.103448	0.000000	-1.000000	-1.000000	456999.000000	1772918943.514283
-4373.325000	21648.420000	-19018.890000	-14939.415000	0.000000	0.000000	0.000000	0.000000	-36.043913	-56.596002	-116.607305	-144.279560	-0.000000	0.000000	-0.000000	-0.000000	151.730180	-79.245180	85.761200	-0.097473	0.700865	0.809629	-1.000000	-1.000000	-1.000000	-1.000000	-1.000000	-1.000000	-1.000000	139.103448	0.000000	-1.000000	-1.000000	457000.000000	1772918943.514803
-4152.780000	21726.945000	-18975.015000	-14786.595000	0.000000	0.000000	0.000000	0.000000	81.522266	-68.965347	-33.389412	-65.541972	-0.000000	0.000000	-0.000000	-0.000000	151.730180	-79.245180	85.761200	-0.097473	0.700865	0.809629	-1.000000	-1.000000	-1.000000	-1.000000	-1.000000	-1.000000	-1.000000	139.103448	0.000000	-1.000000	-1.000000	457001.000000	1772918943.514806
-4216.005000	21822.885000	-19111.725000	-14705.145000	0.000000	0.000000	0.000000	0.000000	176.386553	-39.855656	64.579408	47.466878	-0.000000	0.000000	-0.000000	-0.000000	151.577580	-77.963340	82.129320	-0.062317	0.695250	0.724363	-1.000000	-1.000000	-1.000000	-1.000000	-1.000000	-1.000000	-1.000000	139.103448	0.000000	-1.000000	-1.000000	457002.000000	1772918943.518551
-4011.120000	21926.160000	-18697.230000	-14399.730000	0.000000	0.000000	0.000000	0.000000	204.410966	24.009484	123.949681	141.628402	-0.000000	0.000000	-0.000000	-0.000000	151.577580	-77.963340	82.129320	-0.062317	0.695250	0.724363	-1.000000	-1.000000	-1.000000	-1.000000	-1.000000	-1.000000	-1.000000	139.103448	0.000000	-1.000000	-1.000000	457003.000000	1772918943.518553
-4006.260000	22018.185000	-18677.565000	-14462.370000	0.000000	0.000000	0.000000	0.000000	155.403269	89.959226	134.078255	178.919459	-0.000000	0.000000	-0.000000	-0.000000	151.577580	-77.963340	82.129320	-0.062317	0.695250	0.724363	-1.000000	-1.000000	-1.000000	-1.000000	-1.000000	-1.000000	-1.000000	139.103448	0.000000	-1.000000	-1.000000	457004.000000	1772918943.521809
-4300.830000	22082.805000	-18886.995000	-14636.340000	0.000000	0.000000	0.000000	0.000000	50.081210	122.312730	103.727941	138.196256	-0.000000	0.000000	-0.000000	-0.000000	151.577580	-77.963340	82.129320	-0.062317	0.695250	0.724363	-1.000000	-1.000000	-1.000000	-1.000000	-1.000000	-1.000000	-1.000000	139.103448	0.000000	-1.000000	-1.000000	457005.000000	1772918943.521812
-4502.700000	22132.980000	-19178.460000	-14939.190000	0.000000	0.000000	0.000000	0.000000	-84.377613	104.177766	24.620708	19.024675	-0.000000	0.000000	-0.000000	-0.000000	151.577580	-77.963340	82.129320	-0.062317	0.695250	0.724363	-1.000000	-1.000000	-1.000000	-1.000000	-1.000000	-1.000000	-1.000000	139.103448	0.000000	-1.000000	-1.000000	457006.000000	1772918943.524868
-4475.430000	22101.795000	-19236.960000	-14924.295000	0.000000	0.000000	0.000000	0.000000	-204.377372	43.501643	-93.153043	-134.267590	-0.000000	0.000000	-0.000000	-0.000000	151.577580	-77.963340	82.129320	-0.062317	0.695250	0.724363	-1.000000	-1.000000	-1.000000	-1.000000	-1.000000	-1.000000	-1.000000	139.103448	0.000000	-1.000000	-1.000000	457007.000000	1772918943.524871
-4426.605000	22090.185000	-19199.700000	-14942.250000	0.000000	0.000000	0.000000	0.000000	-247.049056	-35.011180	-189.112240	-237.705904	-0.000000	0.000000	-0.000000	-0.000000	151.577580	-77.963340	82.129320	-0.062317	0.695250	0.724363	-1.000000	-1.000000	-1.000000	-1.000000	-1.000000	-1.000000	-1.000000	139.103448	0.000000	-1.000000	-1.000000	457008.000000	1772918943.528964
-4473.135000	22040.595000	-19232.505000	-14979.780000	0.000000	0.000000	0.000000	0.000000	-181.092286	-101.621203	-197.085114	-228.411051	-0.000000	0.000000	-0.000000	-0.000000	151.577580	-77.963340	82.129320	-0.062317	0.695250	0.724363	-1.000000	-1.000000	-1.000000	-1.000000	-1.000000	-1.000000	-1.000000	139.103448	0.000000	-1.000000	-1.000000	457009.000000	1772918943.528967
-4126.320000	22054.770000	-18843.390000	-14703.615000	0.000000	0.000000	0.000000	0.000000	-37.346236	-132.212606	-102.280982	-111.431193	-0.000000	0.000000	-0.000000	-0.000000	151.577580	-77.963340	82.129320	-0.062317	0.695250	0.724363	-1.000000	-1.000000	-1.000000	-1.000000	-1.000000	-1.000000	-1.000000	139.103448	0.000000	-1.000000	-1.000000	457010.000000	1772918943.532873
-4154.220000	22116.690000	-18833.715000	-14690.655000	0.000000	0.000000	0.000000	0.000000	119.748021	-115.708797	53.462327	55.654309	-0.000000	0.000000	-0.000000	-0.000000	151.577580	-77.963340	82.129320	-0.062317	0.695250	0.724363	-1.000000	-1.000000	-1.000000	-1.000000	-1.000000	-1.000000	-1.000000	139.103448	0.000000	-1.000000	-1.000000	457011.000000	1772918943.532876
-4248.270000	22133.520000	-18971.505000	-14795.820000	0.000000	0.000000	0.000000	0.000000	218.721030	-58.689001	187.303968	191.545665	-0.000000	0.000000	-0.000000	-0.000000	-64.626100	-42.300720	25.301080	0.040893	0.785704	0.592223	-1.000000	-1.000000	-1.000000	-1.000000	-1.000000	-1.000000	-1.000000	139.103448	0.000000	-1.000000	-1.000000	457012.000000	1772918943.536904
-4241.295000	22186.935000	-18970.425000	-14750.100000	0.000000	0.000000	0.000000	0.000000	209.844390	14.258967	218.247495	228.411326	-0.000000	0.000000	-0.000000	-0.000000	-64.626100	-42.300720	25.301080	0.040893	0.785704	0.592223	-1.000000	-1.000000	-1.000000	-1.000000	-1.000000	-1.000000	-1.000000	139.103448	0.000000	-1.000000	-1.000000	457013.000000	1772918943.536906
-4300.155000	22162.365000	-19021.455000	-14771.340000	0.000000	0.000000	0.000000	0.000000	105.880316	71.731417	134.671379	160.689581	-0.000000	0.000000	-0.000000	-0.000000	-64.626100	-42.300720	25.301080	0.040893	0.785704	0.592223	-1.000000	-1.000000	-1.000000	-1.000000	-1.000000	-1.000000	-1.000000	139.103448	0.000000	-1.000000	-1.000000	457014.000000	1772918943.540826
-4515.750000	22008.915000	-19211.490000	-15022.575000	0.000000	0.000000	0.000000	0.000000	-31.679896	89.121433	-4.310563	37.313357	-0.000000	0.000000	-0.000000	-0.000000	-64.626100	-42.300720	25.301080	0.040893	0.785704	0.592223	-1.000000	-1.000000	-1.000000	-1.000000	-1.000000	-1.000000	-1.000000	139.103448	0.000000	-1.000000	-1.000000	457015.000000	1772918943.540828
-4476.870000	21928.500000	-19181.790000	-15092.595000	0.000000	0.000000	0.000000	0.000000	-140.765440	58.900248	-125.371812	-86.366144	-0.000000	0.000000	-0.000000	-0.000000	-64.626100	-42.300720	25.301080	0.040893	0.785704	0.592223	-1.000000	-1.000000	-1.000000	-1.000000	-1.000000	-1.000000	-1.000000	139.103448	0.000000	-1.000000	-1.000000	457016.000000	1772918943.548319
-4245.345000	21895.245000	-19042.245000	-14964.030000	0.000000	0.000000	0.000000	0.000000	-174.441276	0.982621	-173.257214	-161.841955	-0.000000	0.000000	-0.000000	-0.000000	-64.626100	-42.300720	25.301080	0.040893	0.785704	0.592223	-1.000000	-1.000000	-1.000000	-1.000000	-1.000000	-1.000000	-1.000000	139.103448	0.000000	-1.000000	-1.000000	457017.000000	1772918943.548321
-4273.380000	21837.645000	-19018.800000	-14833.305000	0.000000	0.000000	0.000000	0.000000	-115.646669	-46.527549	-128.532218	-151.486745	-0.000000	0.000000	-0.000000	-0.000000	-64.626100	-42.300720	25.301080	0.040893	0.785704	0.592223	-1.000000	-1.000000	-1.000000	-1.000000	-1.000000	-1.000000	-1.000000	139.103448	0.000000	-1.000000	-1.000000	457018.000000	1772918943.548325
-4218.255000	21826.080000	-18758.475000	-14550.570000	0.000000	0.000000	0.000000	0.000000	-3.397495	-56.797211	-20.773932	-56.049456	-0.000000	0.000000	-0.000000	-0.000000	-64.626100	-42.300720	25.301080	0.040893	0.785704	0.592223	-1.000000	-1.000000	-1.000000	-1.000000	-1.000000	-1.000000	-1.000000	139.103448	0.000000	-1.000000	-1.000000	457019.000000	1772918943.548327
-4261.095000	21902.040000	-18820.395000	-14599.260000	0.000000	0.000000	0.000000	0.000000	90.692407	-28.149867	90.306498	72.674581	-0.000000	0.000000	-0.000000	-0.000000	-64.626100	-42.300720	25.301080	0.040893	0.785704	0.592223	-1.000000	-1.000000	-1.000000	-1.000000	-1.000000	-1.000000	-1.000000	139.103448	0.000000	-1.000000	-1.000000	457020.000000	1772918943.556450
-4249.080000	21985.515000	-18922.770000	-14670.450000	0.000000	0.000000	0.000000	0.000000	119.115191	24.032435	144.057827	155.149377	-0.000000	0.000000	-0.000000	-0.000000	-64.626100	-42.300720	25.301080	0.040893	0.785704	0.592223	-1.000000	-1.000000	-1.000000	-1.000000	-1.000000	-1.000000	-1.000000	139.103448	0.000000	-1.000000	-1.000000	457021.000000	1772918943.556454
-4302.090000	22007.970000	-19063.845000	-14826.060000	0.000000	0.000000	0.000000	0.000000	82.029810	75.009647	108.137070	136.202417	-0.000000	0.000000	-0.000000	-0.000000	-166.883360	-8.118320	-4.791640	0.094299	0.839414	0.466674	-1.000000	-1.000000	-1.000000	-1.000000	-1.000000	-1.000000	-1.000000	139.103448	0.000000	-1.000000	-1.000000	457022.000000	1772918943.556459
-4455.090000	21974.985000	-19230.030000	-15029.685000	0.000000	0.000000	0.000000	0.000000	10.119355	96.920107	3.469457	26.322890	-0.000000	0.000000	-0.000000	-0.000000	-166.883360	-8.118320	-4.791640	0.094299	0.839414	0.466674	-1.000000	-1.000000	-1.000000	-1.000000	-1.000000	-1.000000	-1.000000	139.103448	0.000000	-1.000000	-1.000000	457023.000000	1772918943.556461
-4209.975000	21899.835000	-19001.430000	-14838.390000	0.000000	0.000000	0.000000	0.000000	-55.978187	72.921836	-102.876147	-103.941091	-0.000000	0.000000	-0.000000	-0.000000	-166.883360	-8.118320	-4.791640	0.094299	0.839414	0.466674	-1.000000	-1.000000	-1.000000	-1.000000	-1.000000	-1.000000	-1.000000	139.103448	0.000000	-1.000000	-1.000000	457024.000000	1772918943.560972
-4278.195000	21893.220000	-18969.885000	-14803.380000	0.000000	0.000000	0.000000	0.000000	-78.487828	11.553367	-138.490080	-167.762198	-0.000000	0.000000	-0.000000	-0.000000	-166.883360	-8.118320	-4.791640	0.094299	0.839414	0.466674	-1.000000	-1.000000	-1.000000	-1.000000	-1.000000	-1.000000	-1.000000	139.103448	0.000000	-1.000000	-1.000000	457025.000000	1772918943.560975
-4360.140000	21923.190000	-18943.065000	-14809.770000	0.000000	0.000000	0.000000	0.000000	-52.564602	-54.119756	-83.418150	-128.222939	-0.000000	0.000000	-0.000000	-0.000000	-166.883360	-8.118320	-4.791640	0.094299	0.839414	0.466674	-1.000000	-1.000000	-1.000000	-1.000000	-1.000000	-1.000000	-1.000000	139.103448	0.000000	-1.000000	-1.000000	457026.000000	1772918943.564980
-4176.225000	21969.585000	-18714.195000	-14589.045000	0.000000	0.000000	0.000000	0.000000	-8.583509	-87.768584	17.906573	-21.945007	-0.000000	0.000000	-0.000000	-0.000000	-166.883360	-8.118320	-4.791640	0.094299	0.839414	0.466674	-1.000000	-1.000000	-1.000000	-1.000000	-1.000000	-1.000000	-1.000000	139.103448	0.000000	-1.000000	-1.000000	457027.000000	1772918943.564982
-4157.055000	22061.115000	-18727.110000	-14645.655000	0.000000	0.000000	0.000000	0.000000	29.722381	-74.325586	105.260333	85.697524	-0.000000	0.000000	-0.000000	-0.000000	-166.883360	-8.118320	-4.791640	0.094299	0.839414	0.466674	-1.000000	-1.000000	-1.000000	-1.000000	-1.000000	-1.000000	-1.000000	139.103448	0.000000	-1.000000	-1.000000	457028.000000	1772918943.569017
-4256.955000	22098.825000	-19018.350000	-14814.135000	0.000000	0.000000	0.000000	0.000000	51.403771	-26.751275	130.770414	137.395168	-0.000000	0.000000	-0.000000	-0.000000	-166.883360	-8.118320	-4.791640	0.094299	0.839414	0.466674	-1.000000	-1.000000	-1.000000	-1.000000	-1.000000	-1.000000	-1.000000	139.103448	0.000000	-1.000000	-1.000000	457029.000000	1772918943.569019
-4217.490000	22144.230000	-19015.290000	-14819.265000	0.000000	0.000000	0.000000	0.000000	44.861397	24.921295	73.039330	105.968538	-0.000000	0.000000	-0.000000	-0.000000	-166.883360	-8.118320	-4.791640	0.094299	0.839414	0.466674	-1.000000	-1.000000	-1.000000	-1.000000	-1.000000	-1.000000	-1.000000	139.103448	0.000000	-1.000000	-1.000000	457030.000000	1772918943.573073
-4304.115000	22117.320000	-19063.890000	-14889.780000	0.000000	0.000000	0.000000	0.000000	12.333097	52.148161	-33.100297	17.968637	-0.000000	0.000000	-0.000000	-0.000000	-166.883360	-8.118320	-4.791640	0.094299	0.839414	0.466674	-1.000000	-1.000000	-1.000000	-1.000000	-1.000000	-1.000000	-1.000000	139.103448	0.000000	-1.000000	-1.000000	457031.000000	1772918943.573076
-4322.520000	22053.915000	-18990.495000	-14817.015000	0.000000	0.000000	0.000000	0.000000	-27.048119	42.209524	-114.441921	-65.283961	-0.000000	0.000000	-0.000000	-0.000000	-127.222620	8.209880	-14.329140	0.106201	0.778807	0.482238	-1.000000	-1.000000	-1.000000	-1.000000	-1.000000	-1.000000	-1.000000	139.103448	0.000000	-1.000000	-1.000000	457032.000000	1772918943.576898
-4249.485000	21987.180000	-18984.870000	-14741.190000	0.000000	0.000000	0.000000	0.000000	-51.185319	2.269189	-121.622196	-94.427388	-0.000000	0.000000	-0.000000	-0.000000	-127.222620	8.209880	-14.329140	0.106201	0.778807	0.482238	-1.000000	-1.000000	-1.000000	-1.000000	-1.000000	-1.000000	-1.000000	139.103448	0.000000	-1.000000	-1.000000	457033.000000	1772918943.576901
-4342.950000	22014.945000	-19083.510000	-14808.870000	0.000000	0.000000	0.000000	0.000000	-47.002040	-43.402989	-63.208892	-62.473484	-0.000000	0.000000	-0.000000	-0.000000	-127.222620	8.209880	-14.329140	0.106201	0.778807	0.482238	-1.000000	-1.000000	-1.000000	-1.000000	-1.000000	-1.000000	-1.000000	139.103448	0.000000	-1.000000	-1.000000	457034.000000	1772918943.581301
-4132.440000	22039.920000	-18878.220000	-14676.210000	0.000000	0.000000	0.000000	0.000000	-17.971712	-65.213312	15.632644	-1.951242	-0.000000	0.000000	-0.000000	-0.000000	-127.222620	8.209880	-14.329140	0.106201	0.778807	0.482238	-1.000000	-1.000000	-1.000000	-1.000000	-1.000000	-1.000000	-1.000000	139.103448	0.000000	-1.000000	-1.000000	457035.000000	1772918943.581304
-3987.945000	22109.580000	-18657.900000	-14554.890000	0.000000	0.000000	0.000000	0.000000	25.791024	-47.907214	82.018954	51.276043	-0.000000	0.000000	-0.000000	-0.000000	-127.222620	8.209880	-14.329140	0.106201	0.778807	0.482238	-1.000000	-1.000000	-1.000000	-1.000000	-1.000000	-1.000000	-1.000000	139.103448	0.000000	-1.000000	-1.000000	457036.000000	1772918943.584707
-4240.890000	22167.450000	-18859.365000	-14712.480000	0.000000	0.000000	0.000000	0.000000	65.181560	-0.941834	120.317850	76.566181	-0.000000	0.000000	-0.000000	-0.000000	-127.222620	8.209880	-14.329140	0.106201	0.778807	0.482238	-1.000000	-1.000000	-1.000000	-1.000000	-1.000000	-1.000000	-1.000000	139.103448	0.000000	-1.000000	-1.000000	457037.000000	1772918943.584710
-4390.290000	22166.235000	-19059.345000	-14900.535000	0.000000	0.000000	0.000000	0.000000	63.445846	48.593365	104.460145	56.886200	-0.000000	0.000000	-0.000000	-0.000000	-127.222620	8.209880	-14.329140	0.106201	0.778807	0.482238	-1.000000	-1.000000	-1.000000	-1.000000	-1.000000	-1.000000	-1.000000	139.103448	0.000000	-1.000000	-1.000000	457038.000000	1772918943.588495
-4492.440000	22149.135000	-19164.690000	-15017.805000	0.000000	0.000000	0.000000	0.000000	4.946709	72.190211	22.308321	-9.017004	-0.000000	0.000000	-0.000000	-0.000000	-127.222620	8.209880	-14.329140	0.106201	0.778807	0.482238	-1.000000	-1.000000	-1.000000	-1.000000	-1.000000	-1.000000	-1.000000	139.103448	0.000000	-1.000000	-1.000000	457039.000000	1772918943.588498
-4484.655000	22130.910000	-19168.290000	-15107.715000	0.000000	0.000000	0.000000	0.000000	-71.600827	57.437083	-84.226262	-86.317486	-0.000000	0.000000	-0.000000	-0.000000	-127.222620	8.209880	-14.329140	0.106201	0.778807	0.482238	-1.000000	-1.000000	-1.000000	-1.000000	-1.000000	-1.000000	-1.000000	139.103448	0.000000	-1.000000	-1.000000	457040.000000	1772918943.593129
-4293.945000	22096.215000	-18965.475000	-14926.185000	0.000000	0.000000	0.000000	0.000000	-103.881081	15.034655	-141.995546	-121.133556	-0.000000	0.000000	-0.000000	-0.000000	-127.222620	8.209880	-14.329140	0.106201	0.778807	0.482238	-1.000000	-1.000000	-1.000000	-1.000000	-1.000000	-1.000000	-1.000000	139.103448	0.000000	-1.000000	-1.000000	457041.000000	1772918943.593132
-4298.265000	22084.200000	-18981.180000	-14869.440000	0.000000	0.000000	0.000000	0.000000	-61.009679	-30.838518	-108.865345	-80.000711	-0.000000	0.000000	-0.000000	-0.000000	-60.765320	5.142620	5.234180	0.106323	0.693602	0.548522	-1.000000	-1.000000	-1.000000	-1.000000	-1.000000	-1.000000	-1.000000	139.103448	0.000000	-1.000000	-1.000000	457042.000000	1772918943.630436
-4198.005000	22071.240000	-18852.345000	-14644.620000	0.000000	0.000000	0.000000	0.000000	29.189230	-57.947436	-9.801994	21.831167	-0.000000	0.000000	-0.000000	-0.000000	-60.765320	5.142620	5.234180	0.106323	0.693602	0.548522	-1.000000	-1.000000	-1.000000	-1.000000	-1.000000	-1.000000	-1.000000	139.103448	0.000000	-1.000000	-1.000000	457043.000000	1772918943.630440
-4038.435000	22031.505000	-18750.195000	-14555.295000	0.000000	0.000000	0.000000	0.000000	109.330977	-57.282963	90.978302	129.552386	-0.000000	0.000000	-0.000000	-0.000000	-60.765320	5.142620	5.234180	0.106323	0.693602	0.548522	-1.000000	-1.000000	-1.000000	-1.000000	-1.000000	-1.000000	-1.000000	139.103448	0.000000	-1.000000	-1.000000	457044.000000	1772918943.630445
-4072.950000	22021.380000	-18772.290000	-14621.805000	0.000000	0.000000	0.000000	0.000000	138.876238	-35.185804	140.913423	182.301986	-0.000000	0.000000	-0.000000	-0.000000	-60.765320	5.142620	5.234180	0.106323	0.693602	0.548522	-1.000000	-1.000000	-1.000000	-1.000000	-1.000000	-1.000000	-1.000000	139.103448	0.000000	-1.000000	-1.000000	457045.000000	1772918943.630447
-4086.990000	22094.685000	-18823.590000	-14670.000000	0.000000	0.000000	0.000000	0.000000	105.277894	-3.594777	118.917024	144.807901	-0.000000	0.000000	-0.000000	-0.000000	-60.765320	5.142620	5.234180	0.106323	0.693602	0.548522	-1.000000	-1.000000	-1.000000	-1.000000	-1.000000	-1.000000	-1.000000	139.103448	0.000000	-1.000000	-1.000000	457046.000000	1772918943.630451
-4252.545000	22134.465000	-18872.415000	-14775.975000	0.000000	0.000000	0.000000	0.000000	20.334202	29.008102	38.196507	31.363314	-0.000000	0.000000	-0.000000	-0.000000	-60.765320	5.142620	5.234180	0.106323	0.693602	0.548522	-1.000000	-1.000000	-1.000000	-1.000000	-1.000000	-1.000000	-1.000000	139.103448	0.000000	-1.000000	-1.000000	457047.000000	1772918943.630453
-4436.370000	22123.575000	-19067.040000	-14898.735000	0.000000	0.000000	0.000000	0.000000	-84.161661	53.693961	-61.992001	-101.531004	-0.000000	0.000000	-0.000000	-0.000000	-60.765320	5.142620	5.234180	0.106323	0.693602	0.548522	-1.000000	-1.000000	-1.000000	-1.000000	-1.000000	-1.000000	-1.000000	139.103448	0.000000	-1.000000	-1.000000	457048.000000	1772918943.630457
-4338.405000	22171.680000	-19025.145000	-14861.115000	0.000000	0.000000	0.000000	0.000000	-163.611092	59.512686	-137.403764	-190.059993	-0.000000	0.000000	-0.000000	-0.000000	-60.765320	5.142620	5.234180	0.106323	0.693602	0.548522	-1.000000	-1.000000	-1.000000	-1.000000	-1.000000	-1.000000	-1.000000	139.103448	0.000000	-1.000000	-1.000000	457049.000000	1772918943.630460
-4350.465000	22215.735000	-19057.815000	-14911.290000	0.000000	0.000000	0.000000	0.000000	-173.821684	44.233232	-154.063546	-194.555744	-0.000000	0.000000	-0.000000	-0.000000	-60.765320	5.142620	5.234180	0.106323	0.693602	0.548522	-1.000000	-1.000000	-1.000000	-1.000000	-1.000000	-1.000000	-1.000000	139.103448	0.000000	-1.000000	-1.000000	457050.000000	1772918943.630463
-4521.825000	22261.995000	-19181.565000	-15012.315000	0.000000	0.000000	0.000000	0.000000	-107.608274	17.808380	-106.413126	-121.356108	-0.000000	0.000000	-0.000000	-0.000000	-60.765320	5.142620	5.234180	0.106323	0.693602	0.548522	-1.000000	-1.000000	-1.000000	-1.000000	-1.000000	-1.000000	-1.000000	139.103448	0.000000	-1.000000	-1.000000	457051.000000	1772918943.630466
-4304.700000	22406.670000	-18852.840000	-14694.165000	0.000000	0.000000	0.000000	0.000000	-5.008675	-5.563488	-19.228753	-10.687089	-0.000000	0.000000	-0.000000	-0.000000	-45.459540	2.411080	5.005280	0.101684	0.702757	0.625731	-1.000000	-1.000000	-1.000000	-1.000000	-1.000000	-1.000000	-1.000000	139.103448	0.000000	-1.000000	-1.000000	457052.000000	1772918943.630469
-4193.505000	22547.430000	-18810.720000	-14584.005000	0.000000	0.000000	0.000000	0.000000	91.777885	-14.066115	78.549303	101.041825	-0.000000	0.000000	-0.000000	-0.000000	-45.459540	2.411080	5.005280	0.101684	0.702757	0.625731	-1.000000	-1.000000	-1.000000	-1.000000	-1.000000	-1.000000	-1.000000	139.103448	0.000000	-1.000000	-1.000000	457053.000000	1772918943.630471
-4179.870000	22508.415000	-18925.155000	-14747.895000	0.000000	0.000000	0.000000	0.000000	157.516928	-8.567534	152.111733	178.554737	-0.000000	0.000000	-0.000000	-0.000000	-45.459540	2.411080	5.005280	0.101684	0.702757	0.625731	-1.000000	-1.000000	-1.000000	-1.000000	-1.000000	-1.000000	-1.000000	139.103448	0.000000	-1.000000	-1.000000	457054.000000	1772918943.630475
-4293.585000	22561.020000	-19019.880000	-14873.130000	0.000000	0.000000	0.000000	0.000000	167.131869	-6.035696	157.553996	177.663455	-0.000000	0.000000	-0.000000	-0.000000	-45.459540	2.411080	5.005280	0.101684	0.702757	0.625731	-1.000000	-1.000000	-1.000000	-1.000000	-1.000000	-1.000000	-1.000000	139.103448	0.000000	-1.000000	-1.000000	457055.000000	1772918943.630477
-4291.380000	22598.730000	-19006.875000	-14843.430000	0.000000	0.000000	0.000000	0.000000	108.644107	-18.479841	85.341873	89.872585	-0.000000	0.000000	-0.000000	-0.000000	-45.459540	2.411080	5.005280	0.101684	0.702757	0.625731	-1.000000	-1.000000	-1.000000	-1.000000	-1.000000	-1.000000	-1.000000	139.103448	0.000000	-1.000000	-1.000000	457056.000000	1772918943.630480
-4372.290000	22606.020000	-19020.375000	-14944.770000	0.000000	0.000000	0.000000	0.000000	7.277602	-38.392523	-18.898845	-32.138009	-0.000000	0.000000	-0.000000	-0.000000	-45.459540	2.411080	5.005280	0.101684	0.702757	0.625731	-1.000000	-1.000000	-1.000000	-1.000000	-1.000000	-1.000000	-1.000000	139.103448	0.000000	-1.000000	-1.000000	457057.000000	1772918943.630483
-4330.890000	22586.940000	-18943.650000	-14975.955000	0.000000	0.000000	0.000000	0.000000	-86.472094	-52.042833	-93.517255	-121.059542	-0.000000	0.000000	-0.000000	-0.000000	-45.459540	2.411080	5.005280	0.101684	0.702757	0.625731	-1.000000	-1.000000	-1.000000	-1.000000	-1.000000	-1.000000	-1.000000	139.103448	0.000000	-1.000000	-1.000000	457058.000000	1772918943.630527
-4248.315000	22417.920000	-19033.605000	-14887.215000	0.000000	0.000000	0.000000	0.000000	-128.481143	-55.534635	-107.623173	-140.783846	-0.000000	0.000000	-0.000000	-0.000000	-45.459540	2.411080	5.005280	0.101684	0.702757	0.625731	-1.000000	-1.000000	-1.000000	-1.000000	-1.000000	-1.000000	-1.000000	139.103448	0.000000	-1.000000	-1.000000	457059.000000	1772918943.630530
-4231.845000	22412.880000	-18918.450000	-14751.090000	0.000000	0.000000	0.000000	0.000000	-104.898470	-53.099616	-72.165427	-90.142060	-0.000000	0.000000	-0.000000	-0.000000	-45.459540	2.411080	5.005280	0.101684	0.702757	0.625731	-1.000000	-1.000000	-1.000000	-1.000000	-1.000000	-1.000000	-1.000000	139.103448	0.000000	-1.000000	-1.000000	457060.000000	1772918943.633120
-4122.270000	22532.760000	-18749.520000	-14627.205000	0.000000	0.000000	0.000000	0.000000	-38.055380	-40.012230	-13.589583	3.635916	-0.000000	0.000000	-0.000000	-0.000000	-45.459540	2.411080	5.005280	0.101684	0.702757	0.625731	-1.000000	-1.000000	-1.000000	-1.000000	-1.000000	-1.000000	-1.000000	139.103448	0.000000	-1.000000	-1.000000	457061.000000	1772918943.633123
-4210.515000	22562.145000	-18855.090000	-14716.845000	0.000000	0.000000	0.000000	0.000000	30.407008	-3.554874	43.518713	90.720502	-0.000000	0.000000	-0.000000	-0.000000	-70.058660	4.471180	1.175020	0.071228	0.730223	0.654356	-1.000000	-1.000000	-1.000000	-1.000000	-1.000000	-1.000000	-1.000000	139.103448	0.000000	-1.000000	-1.000000	457062.000000	1772918943.639672
-4306.500000	22536.810000	-18937.665000	-14794.605000	0.000000	0.000000	0.000000	0.000000	62.133694	49.427809	69.249078	119.702827	-0.000000	0.000000	-0.000000	-0.000000	-70.058660	4.471180	1.175020	0.071228	0.730223	0.654356	-1.000000	-1.000000	-1.000000	-1.000000	-1.000000	-1.000000	-1.000000	139.103448	0.000000	-1.000000	-1.000000	457063.000000	1772918943.639675
-4359.690000	22515.345000	-19047.645000	-14932.305000	0.000000	0.000000	0.000000	0.000000	42.845759	88.256163	43.828096	72.371697	-0.000000	0.000000	-0.000000	-0.000000	-70.058660	4.471180	1.175020	0.071228	0.730223	0.654356	-1.000000	-1.000000	-1.000000	-1.000000	-1.000000	-1.000000	-1.000000	139.103448	0.000000	-1.000000	-1.000000	457064.000000	1772918943.641507
-4348.395000	22330.125000	-18974.340000	-14889.285000	0.000000	0.000000	0.000000	0.000000	-5.411214	85.724004	-14.553052	-18.770482	-0.000000	0.000000	-0.000000	-0.000000	-70.058660	4.471180	1.175020	0.071228	0.730223	0.654356	-1.000000	-1.000000	-1.000000	-1.000000	-1.000000	-1.000000	-1.000000	139.103448	0.000000	-1.000000	-1.000000	457065.000000	1772918943.641509
-4323.465000	22157.685000	-18969.975000	-14899.770000	0.000000	0.000000	0.000000	0.000000	-41.955257	37.188367	-60.179384	-92.924160	-0.000000	0.000000	-0.000000	-0.000000	-70.058660	4.471180	1.175020	0.071228	0.730223	0.654356	-1.000000	-1.000000	-1.000000	-1.000000	-1.000000	-1.000000	-1.000000	139.103448	0.000000	-1.000000	-1.000000	457066.000000	1772918943.645287
-4404.240000	22103.775000	-18931.950000	-14911.920000	0.000000	0.000000	0.000000	0.000000	-43.060233	-33.961939	-60.991163	-107.565862	-0.000000	0.000000	-0.000000	-0.000000	-70.058660	4.471180	1.175020	0.071228	0.730223	0.654356	-1.000000	-1.000000	-1.000000	-1.000000	-1.000000	-1.000000	-1.000000	139.103448	0.000000	-1.000000	-1.000000	457067.000000	1772918943.645289
-4372.605000	22103.145000	-18847.575000	-14827.905000	0.000000	0.000000	0.000000	0.000000	-16.569809	-83.783058	-21.093830	-64.015624	-0.000000	0.000000	-0.000000	-0.000000	-70.058660	4.471180	1.175020	0.071228	0.730223	0.654356	-1.000000	-1.000000	-1.000000	-1.000000	-1.000000	-1.000000	-1.000000	139.103448	0.000000	-1.000000	-1.000000	457068.000000	1772918943.649237
-4118.265000	22129.335000	-18790.605000	-14654.790000	0.000000	0.000000	0.000000	0.000000	20.810678	-77.899481	32.626726	9.678974	-0.000000	0.000000	-0.000000	-0.000000	-70.058660	4.471180	1.175020	0.071228	0.730223	0.654356	-1.000000	-1.000000	-1.000000	-1.000000	-1.000000	-1.000000	-1.000000	139.103448	0.000000	-1.000000	-1.000000	457069.000000	1772918943.649240
-4053.150000	22158.675000	-18870.930000	-14650.650000	0.000000	0.000000	0.000000	0.000000	61.805359	-19.082587	68.858646	80.339635	-0.000000	0.000000	-0.000000	-0.000000	-70.058660	4.471180	1.175020	0.071228	0.730223	0.654356	-1.000000	-1.000000	-1.000000	-1.000000	-1.000000	-1.000000	-1.000000	139.103448	0.000000	-1.000000	-1.000000	457070.000000	1772918943.653152
-4034.745000	22163.355000	-18781.830000	-14619.150000	0.000000	0.000000	0.000000	0.000000	91.721997	56.480730	66.920959	115.066223	-0.000000	0.000000	-0.000000	-0.000000	-70.058660	4.471180	1.175020	0.071228	0.730223	0.654356	-1.000000	-1.000000	-1.000000	-1.000000	-1.000000	-1.000000	-1.000000	139.103448	0.000000	-1.000000	-1.000000	457071.000000	1772918943.653155
-4345.470000	22122.405000	-19068.120000	-14901.390000	0.000000	0.000000	0.000000	0.000000	79.540674	105.210935	27.477606	90.427761	-0.000000	0.000000	-0.000000	-0.000000	-35.799960	2.243220	1.236060	0.051453	0.723692	0.674559	-1.000000	-1.000000	-1.000000	-1.000000	-1.000000	-1.000000	-1.000000	139.103448	0.000000	-1.000000	-1.000000	457072.000000	1772918943.657351
-4496.850000	22091.985000	-19184.400000	-15033.105000	0.000000	0.000000	0.000000	0.000000	6.286053	102.241310	-35.304996	7.596535	-0.000000	0.000000	-0.000000	-0.000000	-35.799960	2.243220	1.236060	0.051453	0.723692	0.674559	-1.000000	-1.000000	-1.000000	-1.000000	-1.000000	-1.000000	-1.000000	139.103448	0.000000	-1.000000	-1.000000	457073.000000	1772918943.657353
-4404.420000	22119.705000	-19089.495000	-14950.260000	0.000000	0.000000	0.000000	0.000000	-96.414868	54.611544	-93.050873	-92.551568	-0.000000	0.000000	-0.000000	-0.000000	-35.799960	2.243220	1.236060	0.051453	0.723692	0.674559	-1.000000	-1.000000	-1.000000	-1.000000	-1.000000	-1.000000	-1.000000	139.103448	0.000000	-1.000000	-1.000000	457074.000000	1772918943.661175
-4318.830000	22169.160000	-19025.955000	-14866.515000	0.000000	0.000000	0.000000	0.000000	-154.636733	-5.734818	-103.535839	-142.548293	-0.000000	0.000000	-0.000000	-0.000000	-35.799960	2.243220	1.236060	0.051453	0.723692	0.674559	-1.000000	-1.000000	-1.000000	-1.000000	-1.000000	-1.000000	-1.000000	139.103448	0.000000	-1.000000	-1.000000	457075.000000	1772918943.661177
-4236.705000	22175.820000	-18922.680000	-14754.060000	0.000000	0.000000	0.000000	0.000000	-120.036039	-46.751453	-48.033064	-103.833327	-0.000000	0.000000	-0.000000	-0.000000	-35.799960	2.243220	1.236060	0.051453	0.723692	0.674559	-1.000000	-1.000000	-1.000000	-1.000000	-1.000000	-1.000000	-1.000000	139.103448	0.000000	-1.000000	-1.000000	457076.000000	1772918943.666081
-4150.890000	22238.055000	-18763.965000	-14610.015000	0.000000	0.000000	0.000000	0.000000	-14.690350	-56.681104	45.654317	-0.294017	-0.000000	0.000000	-0.000000	-0.000000	-35.799960	2.243220	1.236060	0.051453	0.723692	0.674559	-1.000000	-1.000000	-1.000000	-1.000000	-1.000000	-1.000000	-1.000000	139.103448	0.000000	-1.000000	-1.000000	457077.000000	1772918943.666084
-4081.545000	22206.285000	-18713.250000	-14614.065000	0.000000	0.000000	0.000000	0.000000	95.572872	-43.821577	126.584948	104.805997	-0.000000	0.000000	-0.000000	-0.000000	-35.799960	2.243220	1.236060	0.051453	0.723692	0.674559	-1.000000	-1.000000	-1.000000	-1.000000	-1.000000	-1.000000	-1.000000	139.103448	0.000000	-1.000000	-1.000000	457078.000000	1772918943.669294
-4064.220000	22230.630000	-18753.120000	-14688.315000	0.000000	0.000000	0.000000	0.000000	152.116404	-24.959349	150.489844	149.822156	-0.000000	0.000000	-0.000000	-0.000000	-35.799960	2.243220	1.236060	0.051453	0.723692	0.674559	-1.000000	-1.000000	-1.000000	-1.000000	-1.000000	-1.000000	-1.000000	139.103448	0.000000	-1.000000	-1.000000	457079.000000	1772918943.669296
-4336.515000	22323.105000	-19080.405000	-14932.215000	0.000000	0.000000	0.000000	0.000000	128.367600	-10.784373	95.802614	106.415955	-0.000000	0.000000	-0.000000	-0.000000	-35.799960	2.243220	1.236060	0.051453	0.723692	0.674559	-1.000000	-1.000000	-1.000000	-1.000000	-1.000000	-1.000000	-1.000000	139.103448	0.000000	-1.000000	-1.000000	457080.000000	1772918943.673335
-4454.325000	22383.270000	-19171.710000	-15025.455000	0.000000	0.000000	0.000000	0.000000	32.846047	0.504283	-23.050469	-4.374352	-0.000000	0.000000	-0.000000	-0.000000	-35.799960	2.243220	1.236060	0.051453	0.723692	0.674559	-1.000000	-1.000000	-1.000000	-1.000000	-1.000000	-1.000000	-1.000000	139.103448	0.000000	-1.000000	-1.000000	457081.000000	1772918943.673338
-4351.005000	22393.620000	-19072.845000	-14930.910000	0.000000	0.000000	0.000000	0.000000	-83.881536	11.416949	-144.288881	-116.568153	-0.000000	0.000000	-0.000000	-0.000000	-25.621540	-2.609460	11.948580	0.036377	0.721678	0.692320	-1.000000	-1.000000	-1.000000	-1.000000	-1.000000	-1.000000	-1.000000	139.103448	0.000000	-1.000000	-1.000000	457082.000000	1772918943.677210
-4340.250000	22375.440000	-19047.825000	-14850.720000	0.000000	0.000000	0.000000	0.000000	-148.067712	15.531905	-189.108561	-156.595367	-0.000000	0.000000	-0.000000	-0.000000	-25.621540	-2.609460	11.948580	0.036377	0.721678	0.692320	-1.000000	-1.000000	-1.000000	-1.000000	-1.000000	-1.000000	-1.000000	139.103448	0.000000	-1.000000	-1.000000	457083.000000	1772918943.677212
-4266.090000	22348.170000	-18946.080000	-14756.940000	0.000000	0.000000	0.000000	0.000000	-121.825773	5.606324	-128.250568	-99.576683	-0.000000	0.000000	-0.000000	-0.000000	-25.621540	-2.609460	11.948580	0.036377	0.721678	0.692320	-1.000000	-1.000000	-1.000000	-1.000000	-1.000000	-1.000000	-1.000000	139.103448	0.000000	-1.000000	-1.000000	457084.000000	1772918943.681356
-4143.960000	22443.435000	-18782.235000	-14723.325000	0.000000	0.000000	0.000000	0.000000	-29.464216	-13.384330	-1.293560	12.821486	-0.000000	0.000000	-0.000000	-0.000000	-25.621540	-2.609460	11.948580	0.036377	0.721678	0.692320	-1.000000	-1.000000	-1.000000	-1.000000	-1.000000	-1.000000	-1.000000	139.103448	0.000000	-1.000000	-1.000000	457085.000000	1772918943.681360
-4183.200000	22489.110000	-18745.155000	-14757.705000	0.000000	0.000000	0.000000	0.000000	71.167139	-24.580931	122.057336	108.679345	-0.000000	0.000000	-0.000000	-0.000000	-25.621540	-2.609460	11.948580	0.036377	0.721678	0.692320	-1.000000	-1.000000	-1.000000	-1.000000	-1.000000	-1.000000	-1.000000	139.103448	0.000000	-1.000000	-1.000000	457086.000000	1772918943.686137
-4107.870000	22494.375000	-18734.040000	-14689.665000	0.000000	0.000000	0.000000	0.000000	126.296146	-17.633611	181.387781	137.299169	-0.000000	0.000000	-0.000000	-0.000000	-25.621540	-2.609460	11.948580	0.036377	0.721678	0.692320	-1.000000	-1.000000	-1.000000	-1.000000	-1.000000	-1.000000	-1.000000	139.103448	0.000000	-1.000000	-1.000000	457087.000000	1772918943.686140
-4183.560000	22500.270000	-18961.920000	-14795.550000	0.000000	0.000000	0.000000	0.000000	114.000236	-0.812892	148.428910	95.678792	-0.000000	0.000000	-0.000000	-0.000000	-25.621540	-2.609460	11.948580	0.036377	0.721678	0.692320	-1.000000	-1.000000	-1.000000	-1.000000	-1.000000	-1.000000	-1.000000	139.103448	0.000000	-1.000000	-1.000000	457088.000000	1772918943.689339
-4417.965000	22508.010000	-19228.320000	-15017.805000	0.000000	0.000000	0.000000	0.000000	45.538869	10.865696	35.033493	11.641005	-0.000000	0.000000	-0.000000	-0.000000	-25.621540	-2.609460	11.948580	0.036377	0.721678	0.692320	-1.000000	-1.000000	-1.000000	-1.000000	-1.000000	-1.000000	-1.000000	139.103448	0.000000	-1.000000	-1.000000	457089.000000	1772918943.689342
-4383.855000	22494.105000	-19096.695000	-14974.290000	0.000000	0.000000	0.000000	0.000000	-47.566695	10.689343	-103.644025	-77.935951	-0.000000	0.000000	-0.000000	-0.000000	-25.621540	-2.609460	11.948580	0.036377	0.721678	0.692320	-1.000000	-1.000000	-1.000000	-1.000000	-1.000000	-1.000000	-1.000000	139.103448	0.000000	-1.000000	-1.000000	457090.000000	1772918943.693267
-4237.785000	22463.820000	-18882.990000	-14749.605000	0.000000	0.000000	0.000000	0.000000	-114.528008	1.189634	-181.106209	-125.455471	-0.000000	0.000000	-0.000000	-0.000000	-25.621540	-2.609460	11.948580	0.036377	0.721678	0.692320	-1.000000	-1.000000	-1.000000	-1.000000	-1.000000	-1.000000	-1.000000	139.103448	0.000000	-1.000000	-1.000000	457091.000000	1772918943.693269
-4221.855000	22438.080000	-18941.940000	-14702.310000	0.000000	0.000000	0.000000	0.000000	-110.839463	-11.170757	-143.664843	-94.899988	-0.000000	0.000000	-0.000000	-0.000000	-23.622480	-11.841760	1.541260	0.024841	0.717161	0.705565	-1.000000	-1.000000	-1.000000	-1.000000	-1.000000	-1.000000	-1.000000	139.103448	0.000000	-1.000000	-1.000000	457092.000000	1772918943.697381
-4216.635000	22481.100000	-18901.395000	-14693.850000	0.000000	0.000000	0.000000	0.000000	-43.110411	-18.288438	-26.879984	-5.793378	-0.000000	0.000000	-0.000000	-0.000000	-23.622480	-11.841760	1.541260	0.024841	0.717161	0.705565	-1.000000	-1.000000	-1.000000	-1.000000	-1.000000	-1.000000	-1.000000	139.103448	0.000000	-1.000000	-1.000000	457093.000000	1772918943.697383
-4246.380000	22611.330000	-18909.315000	-14725.305000	0.000000	0.000000	0.000000	0.000000	36.439967	-10.888580	83.884160	76.739701	-0.000000	0.000000	-0.000000	-0.000000	-23.622480	-11.841760	1.541260	0.024841	0.717161	0.705565	-1.000000	-1.000000	-1.000000	-1.000000	-1.000000	-1.000000	-1.000000	139.103448	0.000000	-1.000000	-1.000000	457094.000000	1772918943.701440
-4217.715000	22713.885000	-18892.620000	-14712.795000	0.000000	0.000000	0.000000	0.000000	79.667233	15.180319	130.106497	101.317088	-0.000000	0.000000	-0.000000	-0.000000	-23.622480	-11.841760	1.541260	0.024841	0.717161	0.705565	-1.000000	-1.000000	-1.000000	-1.000000	-1.000000	-1.000000	-1.000000	139.103448	0.000000	-1.000000	-1.000000	457095.000000	1772918943.701443
-4240.170000	22741.470000	-18917.145000	-14783.760000	0.000000	0.000000	0.000000	0.000000	74.103126	48.264558	105.860897	64.423176	-0.000000	0.000000	-0.000000	-0.000000	-23.622480	-11.841760	1.541260	0.024841	0.717161	0.705565	-1.000000	-1.000000	-1.000000	-1.000000	-1.000000	-1.000000	-1.000000	139.103448	0.000000	-1.000000	-1.000000	457096.000000	1772918943.705376
-4313.070000	22778.955000	-19062.540000	-14980.275000	0.000000	0.000000	0.000000	0.000000	35.465272	64.245139	38.135130	-5.661883	-0.000000	0.000000	-0.000000	-0.000000	-23.622480	-11.841760	1.541260	0.024841	0.717161	0.705565	-1.000000	-1.000000	-1.000000	-1.000000	-1.000000	-1.000000	-1.000000	139.103448	0.000000	-1.000000	-1.000000	457097.000000	1772918943.705379
-4358.295000	22795.065000	-19117.620000	-15007.500000	0.000000	0.000000	0.000000	0.000000	-13.117947	47.699592	-38.918177	-74.899334	-0.000000	0.000000	-0.000000	-0.000000	-23.622480	-11.841760	1.541260	0.024841	0.717161	0.705565	-1.000000	-1.000000	-1.000000	-1.000000	-1.000000	-1.000000	-1.000000	139.103448	0.000000	-1.000000	-1.000000	457098.000000	1772918943.738688
-4293.540000	22828.770000	-18999.945000	-14904.765000	0.000000	0.000000	0.000000	0.000000	-48.863457	5.723382	-90.773896	-108.339992	-0.000000	0.000000	-0.000000	-0.000000	-23.622480	-11.841760	1.541260	0.024841	0.717161	0.705565	-1.000000	-1.000000	-1.000000	-1.000000	-1.000000	-1.000000	-1.000000	139.103448	0.000000	-1.000000	-1.000000	457099.000000	1772918943.738692
-4337.415000	22828.005000	-19060.470000	-14952.060000	0.000000	0.000000	0.000000	0.000000	-54.713037	-39.709062	-91.104532	-82.839551	-0.000000	0.000000	-0.000000	-0.000000	-23.622480	-11.841760	1.541260	0.024841	0.717161	0.705565	-1.000000	-1.000000	-1.000000	-1.000000	-1.000000	-1.000000	-1.000000	139.103448	0.000000	-1.000000	-1.000000	457100.000000	1772918943.738696
-4379.580000	22791.105000	-19093.905000	-14950.620000	0.000000	0.000000	0.000000	0.000000	-32.937385	-69.186549	-46.000214	-13.080080	-0.000000	0.000000	-0.000000	-0.000000	-23.622480	-11.841760	1.541260	0.024841	0.717161	0.705565	-1.000000	-1.000000	-1.000000	-1.000000	-1.000000	-1.000000	-1.000000	139.103448	0.000000	-1.000000	-1.000000	457101.000000	1772918943.738699
-4224.645000	22730.895000	-18888.795000	-14757.480000	0.000000	0.000000	0.000000	0.000000	-0.102324	-76.514126	13.533992	61.150302	-0.000000	0.000000	-0.000000	-0.000000	-16.511320	-7.416360	-5.264700	0.024658	0.694456	0.697386	-1.000000	-1.000000	-1.000000	-1.000000	-1.000000	-1.000000	-1.000000	139.103448	0.000000	-1.000000	-1.000000	457102.000000	1772918943.738702
-4163.220000	22713.030000	-18838.485000	-14699.925000	0.000000	0.000000	0.000000	0.000000	33.209934	-65.261473	64.817162	111.469576	-0.000000	0.000000	-0.000000	-0.000000	-16.511320	-7.416360	-5.264700	0.024658	0.694456	0.697386	-1.000000	-1.000000	-1.000000	-1.000000	-1.000000	-1.000000	-1.000000	139.103448	0.000000	-1.000000	-1.000000	457103.000000	1772918943.738705
-4211.145000	22732.020000	-18905.355000	-14782.365000	0.000000	0.000000	0.000000	0.000000	58.068831	-39.564434	92.319677	122.264159	-0.000000	0.000000	-0.000000	-0.000000	-16.511320	-7.416360	-5.264700	0.024658	0.694456	0.697386	-1.000000	-1.000000	-1.000000	-1.000000	-1.000000	-1.000000	-1.000000	139.103448	0.000000	-1.000000	-1.000000	457104.000000	1772918943.738709
-4288.545000	22808.790000	-18978.435000	-14847.255000	0.000000	0.000000	0.000000	0.000000	56.915160	-1.745911	77.678865	82.320598	-0.000000	0.000000	-0.000000	-0.000000	-16.511320	-7.416360	-5.264700	0.024658	0.694456	0.697386	-1.000000	-1.000000	-1.000000	-1.000000	-1.000000	-1.000000	-1.000000	139.103448	0.000000	-1.000000	-1.000000	457105.000000	1772918943.738711
-4384.575000	22850.235000	-19129.365000	-15009.750000	0.000000	0.000000	0.000000	0.000000	20.278993	42.029781	18.360384	-0.164191	-0.000000	0.000000	-0.000000	-0.000000	-16.511320	-7.416360	-5.264700	0.024658	0.694456	0.697386	-1.000000	-1.000000	-1.000000	-1.000000	-1.000000	-1.000000	-1.000000	139.103448	0.000000	-1.000000	-1.000000	457106.000000	1772918943.738714
-4367.160000	22891.815000	-19099.620000	-14977.845000	0.000000	0.000000	0.000000	0.000000	-34.971117	77.470476	-58.069581	-89.386288	-0.000000	0.000000	-0.000000	-0.000000	-16.511320	-7.416360	-5.264700	0.024658	0.694456	0.697386	-1.000000	-1.000000	-1.000000	-1.000000	-1.000000	-1.000000	-1.000000	139.103448	0.000000	-1.000000	-1.000000	457107.000000	1772918943.738717
-4351.050000	23027.175000	-19059.480000	-14946.975000	0.000000	0.000000	0.000000	0.000000	-73.672393	90.423848	-106.224443	-137.723521	-0.000000	0.000000	-0.000000	-0.000000	-16.511320	-7.416360	-5.264700	0.024658	0.694456	0.697386	-1.000000	-1.000000	-1.000000	-1.000000	-1.000000	-1.000000	-1.000000	139.103448	0.000000	-1.000000	-1.000000	457108.000000	1772918943.738720
-4274.730000	23040.405000	-18977.400000	-14862.645000	0.000000	0.000000	0.000000	0.000000	-69.499008	77.808438	-94.355326	-116.482271	-0.000000	0.000000	-0.000000	-0.000000	-16.511320	-7.416360	-5.264700	0.024658	0.694456	0.697386	-1.000000	-1.000000	-1.000000	-1.000000	-1.000000	-1.000000	-1.000000	139.103448	0.000000	-1.000000	-1.000000	457109.000000	1772918943.738722
-4122.945000	23103.720000	-18800.640000	-14682.105000	0.000000	0.000000	0.000000	0.000000	-22.838686	44.786937	-27.536362	-36.056918	-0.000000	0.000000	-0.000000	-0.000000	-16.511320	-7.416360	-5.264700	0.024658	0.694456	0.697386	-1.000000	-1.000000	-1.000000	-1.000000	-1.000000	-1.000000	-1.000000	139.103448	0.000000	-1.000000	-1.000000	457110.000000	1772918943.738725
-4162.500000	23138.685000	-18848.745000	-14676.615000	0.000000	0.000000	0.000000	0.000000	40.564570	0.688146	56.512331	61.786935	-0.000000	0.000000	-0.000000	-0.000000	-16.511320	-7.416360	-5.264700	0.024658	0.694456	0.697386	-1.000000	-1.000000	-1.000000	-1.000000	-1.000000	-1.000000	-1.000000	139.103448	0.000000	-1.000000	-1.000000	457111.000000	1772918943.738727
-4270.545000	23040.495000	-18973.980000	-14777.280000	0.000000	0.000000	0.000000	0.000000	79.640194	-43.136551	105.433422	122.962156	-0.000000	0.000000	-0.000000	-0.000000	0.824040	-8.805020	-2.990960	0.028259	0.666197	0.691527	-1.000000	-1.000000	-1.000000	-1.000000	-1.000000	-1.000000	-1.000000	139.103448	0.000000	-1.000000	-1.000000	457112.000000	1772918943.738730
-4242.735000	23050.710000	-18925.605000	-14802.075000	0.000000	0.000000	0.000000	0.000000	66.040989	-78.079831	87.012052	111.022797	-0.000000	0.000000	-0.000000	-0.000000	0.824040	-8.805020	-2.990960	0.028259	0.666197	0.691527	-1.000000	-1.000000	-1.000000	-1.000000	-1.000000	-1.000000	-1.000000	139.103448	0.000000	-1.000000	-1.000000	457113.000000	1772918943.738732
-4340.925000	23095.620000	-19048.365000	-14929.605000	0.000000	0.000000	0.000000	0.000000	11.215667	-93.675492	18.202668	35.714853	-0.000000	0.000000	-0.000000	-0.000000	0.824040	-8.805020	-2.990960	0.028259	0.666197	0.691527	-1.000000	-1.000000	-1.000000	-1.000000	-1.000000	-1.000000	-1.000000	139.103448	0.000000	-1.000000	-1.000000	457114.000000	1772918943.741397
-4409.145000	23041.800000	-19151.190000	-15001.785000	0.000000	0.000000	0.000000	0.000000	-48.659620	-79.808558	-56.703766	-56.993246	-0.000000	0.000000	-0.000000	-0.000000	0.824040	-8.805020	-2.990960	0.028259	0.666197	0.691527	-1.000000	-1.000000	-1.000000	-1.000000	-1.000000	-1.000000	-1.000000	139.103448	0.000000	-1.000000	-1.000000	457115.000000	1772918943.741400
-4371.390000	23065.020000	-19149.435000	-15005.655000	0.000000	0.000000	0.000000	0.000000	-82.134166	-41.349155	-101.734634	-117.724958	-0.000000	0.000000	-0.000000	-0.000000	0.824040	-8.805020	-2.990960	0.028259	0.666197	0.691527	-1.000000	-1.000000	-1.000000	-1.000000	-1.000000	-1.000000	-1.000000	139.103448	0.000000	-1.000000	-1.000000	457116.000000	1772918943.745551
-4314.105000	23055.165000	-19049.445000	-14933.160000	0.000000	0.000000	0.000000	0.000000	-72.190601	4.217996	-96.239865	-116.225146	-0.000000	0.000000	-0.000000	-0.000000	0.824040	-8.805020	-2.990960	0.028259	0.666197	0.691527	-1.000000	-1.000000	-1.000000	-1.000000	-1.000000	-1.000000	-1.000000	139.103448	0.000000	-1.000000	-1.000000	457117.000000	1772918943.745553
-4155.795000	23089.320000	-18879.345000	-14770.665000	0.000000	0.000000	0.000000	0.000000	-20.624376	41.122730	-37.416645	-52.104225	-0.000000	0.000000	-0.000000	-0.000000	0.824040	-8.805020	-2.990960	0.028259	0.666197	0.691527	-1.000000	-1.000000	-1.000000	-1.000000	-1.000000	-1.000000	-1.000000	139.103448	0.000000	-1.000000	-1.000000	457118.000000	1772918943.749520
-4068.945000	23107.275000	-18818.820000	-14661.135000	0.000000	0.000000	0.000000	0.000000	50.129251	61.239820	50.679079	45.094754	-0.000000	0.000000	-0.000000	-0.000000	0.824040	-8.805020	-2.990960	0.028259	0.666197	0.691527	-1.000000	-1.000000	-1.000000	-1.000000	-1.000000	-1.000000	-1.000000	139.103448	0.000000	-1.000000	-1.000000	457119.000000	1772918943.749523
-4247.280000	23137.380000	-18928.575000	-14751.495000	0.000000	0.000000	0.000000	0.000000	100.629270	63.365814	118.941670	124.742581	-0.000000	0.000000	-0.000000	-0.000000	0.824040	-8.805020	-2.990960	0.028259	0.666197	0.691527	-1.000000	-1.000000	-1.000000	-1.000000	-1.000000	-1.000000	-1.000000	139.103448	0.000000	-1.000000	-1.000000	457120.000000	1772918943.753715
-4296.285000	23190.435000	-18997.695000	-14832.855000	0.000000	0.000000	0.000000	0.000000	92.621466	51.274362	120.960634	137.900971	-0.000000	0.000000	-0.000000	-0.000000	0.824040	-8.805020	-2.990960	0.028259	0.666197	0.691527	-1.000000	-1.000000	-1.000000	-1.000000	-1.000000	-1.000000	-1.000000	139.103448	0.000000	-1.000000	-1.000000	457121.000000	1772918943.753717
-4372.380000	23236.650000	-19036.125000	-14931.675000	0.000000	0.000000	0.000000	0.000000	25.124599	31.920399	52.938337	73.031441	-0.000000	0.000000	-0.000000	-0.000000	30.611560	-12.055400	-6.378680	0.035461	0.679686	0.683104	-1.000000	-1.000000	-1.000000	-1.000000	-1.000000	-1.000000	-1.000000	139.103448	0.000000	-1.000000	-1.000000	457122.000000	1772918943.759287
-4377.600000	23278.635000	-19004.040000	-14983.335000	0.000000	0.000000	0.000000	0.000000	-57.988257	11.912703	-39.594069	-31.268955	-0.000000	0.000000	-0.000000	-0.000000	30.611560	-12.055400	-6.378680	0.035461	0.679686	0.683104	-1.000000	-1.000000	-1.000000	-1.000000	-1.000000	-1.000000	-1.000000	139.103448	0.000000	-1.000000	-1.000000	457123.000000	1772918943.759289
-4341.690000	23341.860000	-19017.720000	-14974.830000	0.000000	0.000000	0.000000	0.000000	-104.448924	-4.920020	-99.922273	-114.104802	-0.000000	0.000000	-0.000000	-0.000000	30.611560	-12.055400	-6.378680	0.035461	0.679686	0.683104	-1.000000	-1.000000	-1.000000	-1.000000	-1.000000	-1.000000	-1.000000	139.103448	0.000000	-1.000000	-1.000000	457124.000000	1772918943.761436
-4353.705000	23373.810000	-19074.240000	-14977.845000	0.000000	0.000000	0.000000	0.000000	-90.835094	-16.785914	-102.961222	-132.633086	-0.000000	0.000000	-0.000000	-0.000000	30.611560	-12.055400	-6.378680	0.035461	0.679686	0.683104	-1.000000	-1.000000	-1.000000	-1.000000	-1.000000	-1.000000	-1.000000	139.103448	0.000000	-1.000000	-1.000000	457125.000000	1772918943.761439
-4279.050000	23426.820000	-18983.520000	-14850.405000	0.000000	0.000000	0.000000	0.000000	-32.100398	-23.520613	-61.561866	-83.325319	-0.000000	0.000000	-0.000000	-0.000000	30.611560	-12.055400	-6.378680	0.035461	0.679686	0.683104	-1.000000	-1.000000	-1.000000	-1.000000	-1.000000	-1.000000	-1.000000	139.103448	0.000000	-1.000000	-1.000000	457126.000000	1772918943.765523
-4108.950000	23405.085000	-18752.130000	-14598.405000	0.000000	0.000000	0.000000	0.000000	39.080340	-26.857604	1.479546	7.919020	-0.000000	0.000000	-0.000000	-0.000000	30.611560	-12.055400	-6.378680	0.035461	0.679686	0.683104	-1.000000	-1.000000	-1.000000	-1.000000	-1.000000	-1.000000	-1.000000	139.103448	0.000000	-1.000000	-1.000000	457127.000000	1772918943.765526
-4168.530000	23201.910000	-18865.845000	-14679.090000	0.000000	0.000000	0.000000	0.000000	92.802275	-33.334619	64.764975	100.013113	-0.000000	0.000000	-0.000000	-0.000000	30.611560	-12.055400	-6.378680	0.035461	0.679686	0.683104	-1.000000	-1.000000	-1.000000	-1.000000	-1.000000	-1.000000	-1.000000	139.103448	0.000000	-1.000000	-1.000000	457128.000000	1772918943.768686
-4191.795000	23136.255000	-18914.310000	-14728.140000	0.000000	0.000000	0.000000	0.000000	103.770995	-50.229463	96.049102	142.321400	-0.000000	0.000000	-0.000000	-0.000000	30.611560	-12.055400	-6.378680	0.035461	0.679686	0.683104	-1.000000	-1.000000	-1.000000	-1.000000	-1.000000	-1.000000	-1.000000	139.103448	0.000000	-1.000000	-1.000000	457129.000000	1772918943.768689
-4218.705000	23170.770000	-18929.115000	-14772.510000	0.000000	0.000000	0.000000	0.000000	63.091903	-67.292196	71.827908	105.119259	-0.000000	0.000000	-0.000000	-0.000000	30.611560	-12.055400	-6.378680	0.035461	0.679686	0.683104	-1.000000	-1.000000	-1.000000	-1.000000	-1.000000	-1.000000	-1.000000	139.103448	0.000000	-1.000000	-1.000000	457130.000000	1772918943.773594
-4289.085000	23187.240000	-19040.220000	-14911.020000	0.000000	0.000000	0.000000	0.000000	-8.367998	-58.228529	6.811356	9.216426	-0.000000	0.000000	-0.000000	-0.000000	30.611560	-12.055400	-6.378680	0.035461	0.679686	0.683104	-1.000000	-1.000000	-1.000000	-1.000000	-1.000000	-1.000000	-1.000000	139.103448	0.000000	-1.000000	-1.000000	457131.000000	1772918943.773597
-4313.025000	23114.070000	-19081.170000	-14926.230000	0.000000	0.000000	0.000000	0.000000	-74.076868	-14.075408	-60.636614	-91.511295	-0.000000	0.000000	-0.000000	-0.000000	19.548060	-8.759240	0.732480	0.050232	0.718199	0.674742	-1.000000	-1.000000	-1.000000	-1.000000	-1.000000	-1.000000	-1.000000	139.103448	0.000000	-1.000000	-1.000000	457132.000000	1772918943.778161
-4338.630000	22960.935000	-19023.795000	-14868.225000	0.000000	0.000000	0.000000	0.000000	-104.583234	39.395382	-95.327890	-144.102835	-0.000000	0.000000	-0.000000	-0.000000	19.548060	-8.759240	0.732480	0.050232	0.718199	0.674742	-1.000000	-1.000000	-1.000000	-1.000000	-1.000000	-1.000000	-1.000000	139.103448	0.000000	-1.000000	-1.000000	457133.000000	1772918943.778164
-4307.715000	22945.905000	-18991.440000	-14897.880000	0.000000	0.000000	0.000000	0.000000	-89.346358	67.736914	-78.948489	-123.419726	-0.000000	0.000000	-0.000000	-0.000000	19.548060	-8.759240	0.732480	0.050232	0.718199	0.674742	-1.000000	-1.000000	-1.000000	-1.000000	-1.000000	-1.000000	-1.000000	139.103448	0.000000	-1.000000	-1.000000	457134.000000	1772918943.872791
-4181.805000	22988.970000	-18842.715000	-14721.705000	0.000000	0.000000	0.000000	0.000000	-36.584390	64.247353	-19.159611	-45.090746	-0.000000	0.000000	-0.000000	-0.000000	19.548060	-8.759240	0.732480	0.050232	0.718199	0.674742	-1.000000	-1.000000	-1.000000	-1.000000	-1.000000	-1.000000	-1.000000	139.103448	0.000000	-1.000000	-1.000000	457135.000000	1772918943.872797
