Channel1	Channel2	Channel3	Channel4	Channel5	Channel6	Channel7	Channel8	FilteredChannel1	FilteredChannel2	FilteredChannel3	FilteredChannel4	FilteredChannel5	FilteredChannel6	FilteredChannel7	FilteredChannel8	GyroX	GyroY	GyroZ	AccX	AccY	AccZ	PPG1	PPG2	rawPPG1	rawPPG2	rawPPG3	Hr	Hrv	Battery	Trigger	PhysicalTrigger	AutoTrigger	NumMeasurements	Timestamp
-16675.740000	-16520.895000	-19909.215000	-12667.680000	0.000000	0.000000	0.000000	0.000000	-8.570685	-12.197155	-5.524720	-6.820730	-0.000000	0.000000	0.000000	0.000000	5.783540	0.549360	3.540320	0.021179	0.976743	-0.084045	-1.000000	-1.000000	-1.000000	-1.000000	-1.000000	-1.000000	-1.000000	146.827586	0.000000	-1.000000	-1.000000	328459.000000	1772311315.430143
-16688.115000	-16499.790000	-19921.500000	-12679.605000	0.000000	0.000000	0.000000	0.000000	-9.583641	-5.479281	-7.404469	-9.492296	-0.000000	0.000000	0.000000	0.000000	5.783540	0.549360	3.540320	0.021179	0.976743	-0.084045	-1.000000	-1.000000	-1.000000	-1.000000	-1.000000	-1.000000	-1.000000	146.827586	0.000000	-1.000000	-1.000000	328460.000000	1772311315.430145
-16688.655000	-16492.050000	-19921.455000	-12676.815000	0.000000	0.000000	0.000000	0.000000	-7.100199	2.629143	-6.579282	-8.709781	-0.000000	0.000000	0.000000	0.000000	5.783540	0.549360	3.540320	0.021179	0.976743	-0.084045	-1.000000	-1.000000	-1.000000	-1.000000	-1.000000	-1.000000	-1.000000	146.827586	0.000000	-1.000000	-1.000000	328461.000000	1772311315.434147
-16677.855000	-16493.220000	-19907.415000	-12658.500000	0.000000	0.000000	0.000000	0.000000	-3.326811	7.452495	-4.249515	-5.315828	-0.000000	0.000000	0.000000	0.000000	5.783540	0.549360	3.540320	0.021179	0.976743	-0.084045	-1.000000	-1.000000	-1.000000	-1.000000	-1.000000	-1.000000	-1.000000	146.827586	0.000000	-1.000000	-1.000000	328462.000000	1772311315.434150
-16660.890000	-16483.455000	-19890.405000	-12642.795000	0.000000	0.000000	0.000000	0.000000	1.014155	6.584760	-0.431931	0.323714	-0.000000	0.000000	0.000000	0.000000	4.074420	0.152600	0.686700	0.026794	0.976621	-0.088318	-1.000000	-1.000000	-1.000000	-1.000000	-1.000000	-1.000000	-1.000000	146.827586	0.000000	-1.000000	-1.000000	328463.000000	1772311315.438127
-16670.655000	-16468.650000	-19904.760000	-12657.285000	0.000000	0.000000	0.000000	0.000000	5.368502	1.887937	4.177115	6.399291	-0.000000	0.000000	0.000000	0.000000	4.074420	0.152600	0.686700	0.026794	0.976621	-0.088318	-1.000000	-1.000000	-1.000000	-1.000000	-1.000000	-1.000000	-1.000000	146.827586	0.000000	-1.000000	-1.000000	328464.000000	1772311315.438130
-16696.620000	-16479.945000	-19930.860000	-12681.360000	0.000000	0.000000	0.000000	0.000000	7.019173	-2.697832	6.122274	8.532470	-0.000000	0.000000	0.000000	0.000000	4.074420	0.152600	0.686700	0.026794	0.976621	-0.088318	-1.000000	-1.000000	-1.000000	-1.000000	-1.000000	-1.000000	-1.000000	146.827586	0.000000	-1.000000	-1.000000	328465.000000	1772311315.442255
-16692.120000	-16482.240000	-19926.270000	-12679.605000	0.000000	0.000000	0.000000	0.000000	3.554457	-5.269325	2.667535	4.039398	-0.000000	0.000000	0.000000	0.000000	4.074420	0.152600	0.686700	0.026794	0.976621	-0.088318	-1.000000	-1.000000	-1.000000	-1.000000	-1.000000	-1.000000	-1.000000	146.827586	0.000000	-1.000000	-1.000000	328466.000000	1772311315.442258
-16686.630000	-16461.855000	-19920.960000	-12677.175000	0.000000	0.000000	0.000000	0.000000	-2.616796	-5.597833	-3.420857	-3.697320	-0.000000	0.000000	0.000000	0.000000	4.074420	0.152600	0.686700	0.026794	0.976621	-0.088318	-1.000000	-1.000000	-1.000000	-1.000000	-1.000000	-1.000000	-1.000000	146.827586	0.000000	-1.000000	-1.000000	328467.000000	1772311315.446215
-16685.145000	-16449.750000	-19920.735000	-12675.195000	0.000000	0.000000	0.000000	0.000000	-6.145815	-2.879506	-6.493632	-8.309537	-0.000000	0.000000	0.000000	0.000000	4.074420	0.152600	0.686700	0.026794	0.976621	-0.088318	-1.000000	-1.000000	-1.000000	-1.000000	-1.000000	-1.000000	-1.000000	146.827586	0.000000	-1.000000	-1.000000	328468.000000	1772311315.446218
-16677.540000	-16433.595000	-19914.750000	-12667.815000	0.000000	0.000000	0.000000	0.000000	-4.551221	2.749670	-4.251301	-6.696000	-0.000000	0.000000	0.000000	0.000000	4.074420	0.152600	0.686700	0.026794	0.976621	-0.088318	-1.000000	-1.000000	-1.000000	-1.000000	-1.000000	-1.000000	-1.000000	146.827586	0.000000	-1.000000	-1.000000	328469.000000	1772311315.450765
-16671.420000	-16423.065000	-19908.045000	-12660.210000	0.000000	0.000000	0.000000	0.000000	0.454165	8.648635	1.242342	-0.510950	-0.000000	0.000000	0.000000	0.000000	4.074420	0.152600	0.686700	0.026794	0.976621	-0.088318	-1.000000	-1.000000	-1.000000	-1.000000	-1.000000	-1.000000	-1.000000	146.827586	0.000000	-1.000000	-1.000000	328470.000000	1772311315.450768
-16693.200000	-16392.105000	-19928.745000	-12679.785000	0.000000	0.000000	0.000000	0.000000	4.976593	11.830271	6.000306	5.809783	-0.000000	0.000000	0.000000	0.000000	4.074420	0.152600	0.686700	0.026794	0.976621	-0.088318	-1.000000	-1.000000	-1.000000	-1.000000	-1.000000	-1.000000	-1.000000	146.827586	0.000000	-1.000000	-1.000000	328471.000000	1772311315.455877
-16689.645000	-16396.695000	-19925.865000	-12680.145000	0.000000	0.000000	0.000000	0.000000	5.465404	11.028306	6.574616	7.815201	-0.000000	0.000000	0.000000	0.000000	4.074420	0.152600	0.686700	0.026794	0.976621	-0.088318	-1.000000	-1.000000	-1.000000	-1.000000	-1.000000	-1.000000	-1.000000	146.827586	0.000000	-1.000000	-1.000000	328472.000000	1772311315.455881
-16670.070000	-16440.705000	-19901.745000	-12657.150000	0.000000	0.000000	0.000000	0.000000	2.286798	5.203887	3.396886	5.065380	-0.000000	0.000000	0.000000	0.000000	1.770160	0.152600	0.289940	0.025879	0.977720	-0.091247	-1.000000	-1.000000	-1.000000	-1.000000	-1.000000	-1.000000	-1.000000	146.827586	0.000000	-1.000000	-1.000000	328473.000000	1772311315.460633
-16667.595000	-16484.940000	-19896.525000	-12651.120000	0.000000	0.000000	0.000000	0.000000	-0.531554	-6.743036	0.585559	1.594113	-0.000000	0.000000	0.000000	0.000000	1.770160	0.152600	0.289940	0.025879	0.977720	-0.091247	-1.000000	-1.000000	-1.000000	-1.000000	-1.000000	-1.000000	-1.000000	146.827586	0.000000	-1.000000	-1.000000	328474.000000	1772311315.460636
-16681.230000	-16497.495000	-19911.960000	-12666.780000	0.000000	0.000000	0.000000	0.000000	-0.955505	-21.388792	0.118955	0.115008	-0.000000	0.000000	0.000000	0.000000	1.770160	0.152600	0.289940	0.025879	0.977720	-0.091247	-1.000000	-1.000000	-1.000000	-1.000000	-1.000000	-1.000000	-1.000000	146.827586	0.000000	-1.000000	-1.000000	328475.000000	1772311315.462347
-16675.380000	-16489.620000	-19906.695000	-12662.955000	0.000000	0.000000	0.000000	0.000000	-0.793713	-29.288681	-0.202510	-0.829701	-0.000000	0.000000	0.000000	0.000000	1.770160	0.152600	0.289940	0.025879	0.977720	-0.091247	-1.000000	-1.000000	-1.000000	-1.000000	-1.000000	-1.000000	-1.000000	146.827586	0.000000	-1.000000	-1.000000	328476.000000	1772311315.462351
-16679.970000	-16488.450000	-19912.590000	-12664.665000	0.000000	0.000000	0.000000	0.000000	-1.595980	-22.497010	-2.119541	-2.740719	-0.000000	0.000000	0.000000	0.000000	1.770160	0.152600	0.289940	0.025879	0.977720	-0.091247	-1.000000	-1.000000	-1.000000	-1.000000	-1.000000	-1.000000	-1.000000	146.827586	0.000000	-1.000000	-1.000000	328477.000000	1772311315.466246
-16693.740000	-16469.010000	-19928.025000	-12679.695000	0.000000	0.000000	0.000000	0.000000	-3.017341	-2.537735	-4.862018	-4.914477	-0.000000	0.000000	0.000000	0.000000	1.770160	0.152600	0.289940	0.025879	0.977720	-0.091247	-1.000000	-1.000000	-1.000000	-1.000000	-1.000000	-1.000000	-1.000000	146.827586	0.000000	-1.000000	-1.000000	328478.000000	1772311315.466249
-16690.950000	-16449.615000	-19923.525000	-12677.355000	0.000000	0.000000	0.000000	0.000000	-4.273285	20.901135	-6.915691	-6.235682	-0.000000	0.000000	0.000000	0.000000	1.770160	0.152600	0.289940	0.025879	0.977720	-0.091247	-1.000000	-1.000000	-1.000000	-1.000000	-1.000000	-1.000000	-1.000000	146.827586	0.000000	-1.000000	-1.000000	328479.000000	1772311315.470304
-16666.245000	-16466.220000	-19900.755000	-12656.565000	0.000000	0.000000	0.000000	0.000000	-3.816499	36.445221	-6.228251	-5.342976	-0.000000	0.000000	0.000000	0.000000	1.770160	0.152600	0.289940	0.025879	0.977720	-0.091247	-1.000000	-1.000000	-1.000000	-1.000000	-1.000000	-1.000000	-1.000000	146.827586	0.000000	-1.000000	-1.000000	328480.000000	1772311315.470307
-16658.865000	-16470.315000	-19892.700000	-12650.445000	0.000000	0.000000	0.000000	0.000000	0.048755	36.367851	-1.217493	-0.973890	-0.000000	0.000000	0.000000	0.000000	1.770160	0.152600	0.289940	0.025879	0.977720	-0.091247	-1.000000	-1.000000	-1.000000	-1.000000	-1.000000	-1.000000	-1.000000	146.827586	0.000000	-1.000000	-1.000000	328481.000000	1772311315.474381
-16681.140000	-16460.640000	-19912.545000	-12669.615000	0.000000	0.000000	0.000000	0.000000	5.518416	21.360834	5.762797	4.974299	-0.000000	0.000000	0.000000	0.000000	1.770160	0.152600	0.289940	0.025879	0.977720	-0.091247	-1.000000	-1.000000	-1.000000	-1.000000	-1.000000	-1.000000	-1.000000	146.827586	0.000000	-1.000000	-1.000000	328482.000000	1772311315.474386
-16686.450000	-16484.805000	-19915.425000	-12670.830000	0.000000	0.000000	0.000000	0.000000	7.483395	0.140296	9.117604	7.757323	-0.000000	0.000000	0.000000	0.000000	1.327620	0.198380	0.259420	0.024658	0.978330	-0.090027	-1.000000	-1.000000	-1.000000	-1.000000	-1.000000	-1.000000	-1.000000	146.827586	0.000000	-1.000000	-1.000000	328483.000000	1772311315.478342
-16669.530000	-16501.770000	-19900.305000	-12658.005000	0.000000	0.000000	0.000000	0.000000	4.011622	-18.024796	6.497322	5.482363	-0.000000	0.000000	0.000000	0.000000	1.327620	0.198380	0.259420	0.024658	0.978330	-0.090027	-1.000000	-1.000000	-1.000000	-1.000000	-1.000000	-1.000000	-1.000000	146.827586	0.000000	-1.000000	-1.000000	328484.000000	1772311315.478346
-16680.780000	-16489.530000	-19913.535000	-12664.395000	0.000000	0.000000	0.000000	0.000000	-1.229742	-27.520947	1.104763	1.109134	-0.000000	0.000000	0.000000	0.000000	1.327620	0.198380	0.259420	0.024658	0.978330	-0.090027	-1.000000	-1.000000	-1.000000	-1.000000	-1.000000	-1.000000	-1.000000	146.827586	0.000000	-1.000000	-1.000000	328485.000000	1772311315.482278
-16680.645000	-16470.630000	-19915.245000	-12664.845000	0.000000	0.000000	0.000000	0.000000	-4.430916	-25.346568	-3.360739	-2.124718	-0.000000	0.000000	0.000000	0.000000	1.327620	0.198380	0.259420	0.024658	0.978330	-0.090027	-1.000000	-1.000000	-1.000000	-1.000000	-1.000000	-1.000000	-1.000000	146.827586	0.000000	-1.000000	-1.000000	328486.000000	1772311315.482281
-16672.680000	-16484.085000	-19907.685000	-12659.040000	0.000000	0.000000	0.000000	0.000000	-4.741086	-12.896998	-5.439558	-3.328066	-0.000000	0.000000	0.000000	0.000000	1.327620	0.198380	0.259420	0.024658	0.978330	-0.090027	-1.000000	-1.000000	-1.000000	-1.000000	-1.000000	-1.000000	-1.000000	146.827586	0.000000	-1.000000	-1.000000	328487.000000	1772311315.486240
-16679.205000	-16476.480000	-19912.545000	-12663.495000	0.000000	0.000000	0.000000	0.000000	-2.786632	2.523584	-4.738586	-2.789306	-0.000000	0.000000	0.000000	0.000000	1.327620	0.198380	0.259420	0.024658	0.978330	-0.090027	-1.000000	-1.000000	-1.000000	-1.000000	-1.000000	-1.000000	-1.000000	146.827586	0.000000	-1.000000	-1.000000	328488.000000	1772311315.486243
-16678.305000	-16478.910000	-19910.970000	-12663.405000	0.000000	0.000000	0.000000	0.000000	-0.084393	12.930247	-2.064121	-1.418646	-0.000000	0.000000	0.000000	0.000000	1.327620	0.198380	0.259420	0.024658	0.978330	-0.090027	-1.000000	-1.000000	-1.000000	-1.000000	-1.000000	-1.000000	-1.000000	146.827586	0.000000	-1.000000	-1.000000	328489.000000	1772311315.491477
-16674.930000	-16480.890000	-19906.515000	-12660.525000	0.000000	0.000000	0.000000	0.000000	1.786165	15.099459	0.898080	-0.220252	-0.000000	0.000000	0.000000	0.000000	1.327620	0.198380	0.259420	0.024658	0.978330	-0.090027	-1.000000	-1.000000	-1.000000	-1.000000	-1.000000	-1.000000	-1.000000	146.827586	0.000000	-1.000000	-1.000000	328490.000000	1772311315.491480
-16676.775000	-16473.105000	-19906.965000	-12660.480000	0.000000	0.000000	0.000000	0.000000	2.412674	10.659971	2.979690	0.538409	-0.000000	0.000000	0.000000	0.000000	1.327620	0.198380	0.259420	0.024658	0.978330	-0.090027	-1.000000	-1.000000	-1.000000	-1.000000	-1.000000	-1.000000	-1.000000	146.827586	0.000000	-1.000000	-1.000000	328491.000000	1772311315.494355
-16674.165000	-16471.530000	-19904.445000	-12655.710000	0.000000	0.000000	0.000000	0.000000	2.106331	3.779923	3.682927	1.039111	-0.000000	0.000000	0.000000	0.000000	1.327620	0.198380	0.259420	0.024658	0.978330	-0.090027	-1.000000	-1.000000	-1.000000	-1.000000	-1.000000	-1.000000	-1.000000	146.827586	0.000000	-1.000000	-1.000000	328492.000000	1772311315.494358
-16671.780000	-16503.165000	-19904.940000	-12657.240000	0.000000	0.000000	0.000000	0.000000	1.325315	-2.397319	2.965909	1.347753	-0.000000	0.000000	0.000000	0.000000	1.495480	0.167860	0.824040	0.023193	0.978269	-0.088318	-1.000000	-1.000000	-1.000000	-1.000000	-1.000000	-1.000000	-1.000000	146.827586	0.000000	-1.000000	-1.000000	328493.000000	1772311315.498411
-16667.595000	-16525.530000	-19901.610000	-12654.090000	0.000000	0.000000	0.000000	0.000000	0.610292	-7.792153	1.326403	1.309343	-0.000000	0.000000	0.000000	0.000000	1.495480	0.167860	0.824040	0.023193	0.978269	-0.088318	-1.000000	-1.000000	-1.000000	-1.000000	-1.000000	-1.000000	-1.000000	146.827586	0.000000	-1.000000	-1.000000	328494.000000	1772311315.498424
-16663.815000	-16543.440000	-19900.440000	-12652.920000	0.000000	0.000000	0.000000	0.000000	0.290588	-12.534047	-0.401552	0.838565	-0.000000	0.000000	0.000000	0.000000	1.495480	0.167860	0.824040	0.023193	0.978269	-0.088318	-1.000000	-1.000000	-1.000000	-1.000000	-1.000000	-1.000000	-1.000000	146.827586	0.000000	-1.000000	-1.000000	328495.000000	1772311315.502461
-16666.965000	-16551.630000	-19904.670000	-12657.915000	0.000000	0.000000	0.000000	0.000000	0.171511	-14.313562	-1.639282	0.023827	-0.000000	0.000000	0.000000	0.000000	1.495480	0.167860	0.824040	0.023193	0.978269	-0.088318	-1.000000	-1.000000	-1.000000	-1.000000	-1.000000	-1.000000	-1.000000	146.827586	0.000000	-1.000000	-1.000000	328496.000000	1772311315.502465
-16671.780000	-16542.720000	-19906.920000	-12660.345000	0.000000	0.000000	0.000000	0.000000	-0.406966	-10.259558	-2.422902	-1.104323	-0.000000	0.000000	0.000000	0.000000	1.495480	0.167860	0.824040	0.023193	0.978269	-0.088318	-1.000000	-1.000000	-1.000000	-1.000000	-1.000000	-1.000000	-1.000000	146.827586	0.000000	-1.000000	-1.000000	328497.000000	1772311315.506424
-16672.185000	-16544.880000	-19905.165000	-12658.995000	0.000000	0.000000	0.000000	0.000000	-1.755619	-0.280785	-2.820428	-2.231447	-0.000000	0.000000	0.000000	0.000000	1.495480	0.167860	0.824040	0.023193	0.978269	-0.088318	-1.000000	-1.000000	-1.000000	-1.000000	-1.000000	-1.000000	-1.000000	146.827586	0.000000	-1.000000	-1.000000	328498.000000	1772311315.506427
-16674.255000	-16558.380000	-19905.210000	-12658.995000	0.000000	0.000000	0.000000	0.000000	-3.144499	11.292098	-2.473136	-2.566246	-0.000000	0.000000	0.000000	0.000000	1.495480	0.167860	0.824040	0.023193	0.978269	-0.088318	-1.000000	-1.000000	-1.000000	-1.000000	-1.000000	-1.000000	-1.000000	146.827586	0.000000	-1.000000	-1.000000	328499.000000	1772311315.510421
-16675.875000	-16546.140000	-19906.695000	-12659.490000	0.000000	0.000000	0.000000	0.000000	-3.490152	18.400054	-1.235123	-1.670219	-0.000000	0.000000	0.000000	0.000000	1.495480	0.167860	0.824040	0.023193	0.978269	-0.088318	-1.000000	-1.000000	-1.000000	-1.000000	-1.000000	-1.000000	-1.000000	146.827586	0.000000	-1.000000	-1.000000	328500.000000	1772311315.510424
-16674.840000	-16533.450000	-19906.515000	-12660.165000	0.000000	0.000000	0.000000	0.000000	-2.387231	18.644136	0.359581	-0.023187	-0.000000	0.000000	0.000000	0.000000	1.495480	0.167860	0.824040	0.023193	0.978269	-0.088318	-1.000000	-1.000000	-1.000000	-1.000000	-1.000000	-1.000000	-1.000000	146.827586	0.000000	-1.000000	-1.000000	328501.000000	1772311315.517408
-16661.745000	-16538.220000	-19895.850000	-12651.930000	0.000000	0.000000	0.000000	0.000000	-0.011049	13.819404	1.795267	1.616584	-0.000000	0.000000	0.000000	0.000000	1.495480	0.167860	0.824040	0.023193	0.978269	-0.088318	-1.000000	-1.000000	-1.000000	-1.000000	-1.000000	-1.000000	-1.000000	146.827586	0.000000	-1.000000	-1.000000	328502.000000	1772311315.517411
-16657.380000	-16531.020000	-19893.510000	-12649.770000	0.000000	0.000000	0.000000	0.000000	3.175779	6.300933	3.056664	2.907502	-0.000000	0.000000	0.000000	0.000000	2.365300	0.350980	-0.335720	0.026001	0.977048	-0.085754	-1.000000	-1.000000	-1.000000	-1.000000	-1.000000	-1.000000	-1.000000	146.827586	0.000000	-1.000000	-1.000000	328503.000000	1772311315.518370
-16671.375000	-16502.220000	-19908.045000	-12663.315000	0.000000	0.000000	0.000000	0.000000	5.609964	-1.395682	3.568578	3.288444	-0.000000	0.000000	0.000000	0.000000	2.365300	0.350980	-0.335720	0.026001	0.977048	-0.085754	-1.000000	-1.000000	-1.000000	-1.000000	-1.000000	-1.000000	-1.000000	146.827586	0.000000	-1.000000	-1.000000	328504.000000	1772311315.518373
-16674.615000	-16523.955000	-19909.800000	-12662.955000	0.000000	0.000000	0.000000	0.000000	4.976049	-6.731959	2.039854	1.820054	-0.000000	0.000000	0.000000	0.000000	2.365300	0.350980	-0.335720	0.026001	0.977048	-0.085754	-1.000000	-1.000000	-1.000000	-1.000000	-1.000000	-1.000000	-1.000000	146.827586	0.000000	-1.000000	-1.000000	328505.000000	1772311315.523698
-16664.220000	-16548.525000	-19897.155000	-12651.975000	0.000000	0.000000	0.000000	0.000000	1.242819	-10.265542	-1.057766	-0.867185	-0.000000	0.000000	0.000000	0.000000	2.365300	0.350980	-0.335720	0.026001	0.977048	-0.085754	-1.000000	-1.000000	-1.000000	-1.000000	-1.000000	-1.000000	-1.000000	146.827586	0.000000	-1.000000	-1.000000	328506.000000	1772311315.523701
-16663.815000	-16571.430000	-19895.085000	-12649.680000	0.000000	0.000000	0.000000	0.000000	-2.518410	-14.442234	-2.995797	-2.372337	-0.000000	0.000000	0.000000	0.000000	2.365300	0.350980	-0.335720	0.026001	0.977048	-0.085754	-1.000000	-1.000000	-1.000000	-1.000000	-1.000000	-1.000000	-1.000000	146.827586	0.000000	-1.000000	-1.000000	328507.000000	1772311315.526616
-16671.555000	-16579.530000	-19902.465000	-12657.465000	0.000000	0.000000	0.000000	0.000000	-3.876909	-18.428369	-2.364987	-1.689232	-0.000000	0.000000	0.000000	0.000000	2.365300	0.350980	-0.335720	0.026001	0.977048	-0.085754	-1.000000	-1.000000	-1.000000	-1.000000	-1.000000	-1.000000	-1.000000	146.827586	0.000000	-1.000000	-1.000000	328508.000000	1772311315.526619
-16668.630000	-16557.885000	-19899.405000	-12653.505000	0.000000	0.000000	0.000000	0.000000	-3.240717	-17.571064	-0.648313	-0.309954	-0.000000	0.000000	0.000000	0.000000	2.365300	0.350980	-0.335720	0.026001	0.977048	-0.085754	-1.000000	-1.000000	-1.000000	-1.000000	-1.000000	-1.000000	-1.000000	146.827586	0.000000	-1.000000	-1.000000	328509.000000	1772311315.532014
-16679.115000	-16542.405000	-19911.825000	-12664.890000	0.000000	0.000000	0.000000	0.000000	-2.056241	-8.141115	0.210487	0.137957	-0.000000	0.000000	0.000000	0.000000	2.365300	0.350980	-0.335720	0.026001	0.977048	-0.085754	-1.000000	-1.000000	-1.000000	-1.000000	-1.000000	-1.000000	-1.000000	146.827586	0.000000	-1.000000	-1.000000	328510.000000	1772311315.532017
-16687.215000	-16537.095000	-19923.840000	-12676.545000	0.000000	0.000000	0.000000	0.000000	-1.351046	7.515646	-0.596157	-0.864544	-0.000000	0.000000	0.000000	0.000000	2.365300	0.350980	-0.335720	0.026001	0.977048	-0.085754	-1.000000	-1.000000	-1.000000	-1.000000	-1.000000	-1.000000	-1.000000	146.827586	0.000000	-1.000000	-1.000000	328511.000000	1772311315.534491
-16678.485000	-16483.455000	-19913.445000	-12665.925000	0.000000	0.000000	0.000000	0.000000	-1.174065	22.121204	-2.331499	-2.560515	-0.000000	0.000000	0.000000	0.000000	2.365300	0.350980	-0.335720	0.026001	0.977048	-0.085754	-1.000000	-1.000000	-1.000000	-1.000000	-1.000000	-1.000000	-1.000000	146.827586	0.000000	-1.000000	-1.000000	328512.000000	1772311315.534494
-16677.720000	-16447.185000	-19913.535000	-12667.365000	0.000000	0.000000	0.000000	0.000000	-0.344173	30.124282	-2.737919	-2.896253	-0.000000	0.000000	0.000000	0.000000	3.067260	0.183120	-0.549360	0.025574	0.976438	-0.085327	-1.000000	-1.000000	-1.000000	-1.000000	-1.000000	-1.000000	-1.000000	146.827586	0.000000	-1.000000	-1.000000	328513.000000	1772311315.538657
-16682.310000	-16440.165000	-19917.540000	-12672.180000	0.000000	0.000000	0.000000	0.000000	1.704953	29.280457	-0.577774	-0.836147	-0.000000	0.000000	0.000000	0.000000	3.067260	0.183120	-0.549360	0.025574	0.976438	-0.085327	-1.000000	-1.000000	-1.000000	-1.000000	-1.000000	-1.000000	-1.000000	146.827586	0.000000	-1.000000	-1.000000	328514.000000	1772311315.538660
-16683.480000	-16459.110000	-19914.795000	-12669.615000	0.000000	0.000000	0.000000	0.000000	3.648249	17.966249	2.667257	2.155441	-0.000000	0.000000	0.000000	0.000000	3.067260	0.183120	-0.549360	0.025574	0.976438	-0.085327	-1.000000	-1.000000	-1.000000	-1.000000	-1.000000	-1.000000	-1.000000	146.827586	0.000000	-1.000000	-1.000000	328515.000000	1772311315.542565
-16676.820000	-16468.380000	-19906.785000	-12662.415000	0.000000	0.000000	0.000000	0.000000	4.134740	-2.755147	4.977840	4.291060	-0.000000	0.000000	0.000000	0.000000	3.067260	0.183120	-0.549360	0.025574	0.976438	-0.085327	-1.000000	-1.000000	-1.000000	-1.000000	-1.000000	-1.000000	-1.000000	146.827586	0.000000	-1.000000	-1.000000	328516.000000	1772311315.542568
-16672.230000	-16458.030000	-19903.815000	-12658.860000	0.000000	0.000000	0.000000	0.000000	3.409969	-25.280062	5.684389	5.108033	-0.000000	0.000000	0.000000	0.000000	3.067260	0.183120	-0.549360	0.025574	0.976438	-0.085327	-1.000000	-1.000000	-1.000000	-1.000000	-1.000000	-1.000000	-1.000000	146.827586	0.000000	-1.000000	-1.000000	328517.000000	1772311315.546460
-16666.875000	-16438.455000	-19898.640000	-12652.785000	0.000000	0.000000	0.000000	0.000000	2.407392	-38.115517	4.886523	4.744156	-0.000000	0.000000	0.000000	0.000000	3.067260	0.183120	-0.549360	0.025574	0.976438	-0.085327	-1.000000	-1.000000	-1.000000	-1.000000	-1.000000	-1.000000	-1.000000	146.827586	0.000000	-1.000000	-1.000000	328518.000000	1772311315.546463
-16682.445000	-16412.895000	-19915.740000	-12666.420000	0.000000	0.000000	0.000000	0.000000	1.139900	-34.105345	2.483544	3.014526	-0.000000	0.000000	0.000000	0.000000	3.067260	0.183120	-0.549360	0.025574	0.976438	-0.085327	-1.000000	-1.000000	-1.000000	-1.000000	-1.000000	-1.000000	-1.000000	146.827586	0.000000	-1.000000	-1.000000	328519.000000	1772311315.550407
-16692.795000	-16409.790000	-19929.150000	-12677.355000	0.000000	0.000000	0.000000	0.000000	-1.380451	-16.110621	-1.845142	-0.566571	-0.000000	0.000000	0.000000	0.000000	3.067260	0.183120	-0.549360	0.025574	0.976438	-0.085327	-1.000000	-1.000000	-1.000000	-1.000000	-1.000000	-1.000000	-1.000000	146.827586	0.000000	-1.000000	-1.000000	328520.000000	1772311315.550411
-16684.020000	-16397.550000	-19920.555000	-12670.560000	0.000000	0.000000	0.000000	0.000000	-4.901000	5.155679	-6.942228	-5.204435	-0.000000	0.000000	0.000000	0.000000	3.067260	0.183120	-0.549360	0.025574	0.976438	-0.085327	-1.000000	-1.000000	-1.000000	-1.000000	-1.000000	-1.000000	-1.000000	146.827586	0.000000	-1.000000	-1.000000	328521.000000	1772311315.554852
-16675.515000	-16405.020000	-19910.025000	-12663.360000	0.000000	0.000000	0.000000	0.000000	-6.665396	18.893254	-9.269702	-7.906647	-0.000000	0.000000	0.000000	0.000000	3.067260	0.183120	-0.549360	0.025574	0.976438	-0.085327	-1.000000	-1.000000	-1.000000	-1.000000	-1.000000	-1.000000	-1.000000	146.827586	0.000000	-1.000000	-1.000000	328522.000000	1772311315.554855
-16686.585000	-16404.030000	-19920.330000	-12673.845000	0.000000	0.000000	0.000000	0.000000	-4.650348	20.448455	-6.457911	-6.456033	-0.000000	0.000000	0.000000	0.000000	3.280900	0.122080	-0.671440	0.025696	0.977537	-0.085571	-1.000000	-1.000000	-1.000000	-1.000000	-1.000000	-1.000000	-1.000000	146.827586	0.000000	-1.000000	-1.000000	328523.000000	1772311315.558655
-16689.240000	-16422.300000	-19920.375000	-12673.575000	0.000000	0.000000	0.000000	0.000000	-0.587734	12.042383	-0.643549	-2.263527	-0.000000	0.000000	0.000000	0.000000	3.280900	0.122080	-0.671440	0.025696	0.977537	-0.085571	-1.000000	-1.000000	-1.000000	-1.000000	-1.000000	-1.000000	-1.000000	146.827586	0.000000	-1.000000	-1.000000	328524.000000	1772311315.558659
-16677.495000	-16450.110000	-19906.830000	-12660.570000	0.000000	0.000000	0.000000	0.000000	2.633051	-0.629101	4.371677	1.922210	-0.000000	0.000000	0.000000	0.000000	3.280900	0.122080	-0.671440	0.025696	0.977537	-0.085571	-1.000000	-1.000000	-1.000000	-1.000000	-1.000000	-1.000000	-1.000000	146.827586	0.000000	-1.000000	-1.000000	328525.000000	1772311315.562620
-16675.920000	-16465.140000	-19906.470000	-12660.165000	0.000000	0.000000	0.000000	0.000000	4.305699	-11.844289	6.998221	4.943259	-0.000000	0.000000	0.000000	0.000000	3.280900	0.122080	-0.671440	0.025696	0.977537	-0.085571	-1.000000	-1.000000	-1.000000	-1.000000	-1.000000	-1.000000	-1.000000	146.827586	0.000000	-1.000000	-1.000000	328526.000000	1772311315.562623
-16679.070000	-16466.220000	-19912.275000	-12663.405000	0.000000	0.000000	0.000000	0.000000	4.749390	-16.780980	7.029516	6.265625	-0.000000	0.000000	0.000000	0.000000	3.280900	0.122080	-0.671440	0.025696	0.977537	-0.085571	-1.000000	-1.000000	-1.000000	-1.000000	-1.000000	-1.000000	-1.000000	146.827586	0.000000	-1.000000	-1.000000	328527.000000	1772311315.566626
-16676.820000	-16407.990000	-19911.960000	-12664.665000	0.000000	0.000000	0.000000	0.000000	3.719102	-11.677121	4.338774	5.093075	-0.000000	0.000000	0.000000	0.000000	3.280900	0.122080	-0.671440	0.025696	0.977537	-0.085571	-1.000000	-1.000000	-1.000000	-1.000000	-1.000000	-1.000000	-1.000000	146.827586	0.000000	-1.000000	-1.000000	328528.000000	1772311315.566629
-16668.495000	-16381.395000	-19903.905000	-12661.065000	0.000000	0.000000	0.000000	0.000000	1.514709	3.869287	0.097924	1.785312	-0.000000	-0.000000	0.000000	0.000000	3.280900	0.122080	-0.671440	0.025696	0.977537	-0.085571	-1.000000	-1.000000	-1.000000	-1.000000	-1.000000	-1.000000	-1.000000	146.827586	0.000000	-1.000000	-1.000000	328529.000000	1772311315.570455
-16672.095000	-16368.300000	-19906.515000	-12663.765000	0.000000	0.000000	0.000000	0.000000	-0.651699	22.934617	-3.312085	-1.833094	-0.000000	-0.000000	0.000000	0.000000	3.280900	0.122080	-0.671440	0.025696	0.977537	-0.085571	-1.000000	-1.000000	-1.000000	-1.000000	-1.000000	-1.000000	-1.000000	146.827586	0.000000	-1.000000	-1.000000	328530.000000	1772311315.570458
-16684.290000	-16363.035000	-19914.615000	-12665.880000	0.000000	0.000000	0.000000	0.000000	-2.327713	33.414853	-4.700719	-4.138266	-0.000000	-0.000000	0.000000	0.000000	3.280900	0.122080	-0.671440	0.025696	0.977537	-0.085571	-1.000000	-1.000000	-1.000000	-1.000000	-1.000000	-1.000000	-1.000000	146.827586	0.000000	-1.000000	-1.000000	328531.000000	1772311315.574493
-16672.005000	-16369.470000	-19899.945000	-12653.370000	0.000000	0.000000	0.000000	0.000000	-3.764862	27.572351	-4.447054	-4.443895	-0.000000	-0.000000	0.000000	0.000000	3.280900	0.122080	-0.671440	0.025696	0.977537	-0.085571	-1.000000	-1.000000	-1.000000	-1.000000	-1.000000	-1.000000	-1.000000	146.827586	0.000000	-1.000000	-1.000000	328532.000000	1772311315.574496
-16671.420000	-16371.315000	-19899.855000	-12654.900000	0.000000	0.000000	0.000000	0.000000	-4.170625	7.924261	-2.760846	-2.667065	-0.000000	-0.000000	0.000000	0.000000	3.616620	0.122080	-0.839300	0.025146	0.977598	-0.085998	-1.000000	-1.000000	-1.000000	-1.000000	-1.000000	-1.000000	-1.000000	146.827586	0.000000	-1.000000	-1.000000	328533.000000	1772311315.578534
-16685.280000	-16411.320000	-19914.435000	-12668.265000	0.000000	0.000000	0.000000	0.000000	-2.914783	-15.936662	-0.336863	-0.095771	-0.000000	-0.000000	0.000000	0.000000	3.616620	0.122080	-0.839300	0.025146	0.977598	-0.085998	-1.000000	-1.000000	-1.000000	-1.000000	-1.000000	-1.000000	-1.000000	146.827586	0.000000	-1.000000	-1.000000	328534.000000	1772311315.578537
-16680.645000	-16456.185000	-19911.285000	-12664.620000	0.000000	0.000000	0.000000	0.000000	-1.162360	-34.728342	0.962937	1.066059	-0.000000	-0.000000	0.000000	0.000000	3.616620	0.122080	-0.839300	0.025146	0.977598	-0.085998	-1.000000	-1.000000	-1.000000	-1.000000	-1.000000	-1.000000	-1.000000	146.827586	0.000000	-1.000000	-1.000000	328535.000000	1772311315.582517
-16677.900000	-16442.685000	-19911.330000	-12664.260000	0.000000	0.000000	0.000000	0.000000	0.148445	-42.264335	0.558962	0.419296	-0.000000	-0.000000	0.000000	0.000000	3.616620	0.122080	-0.839300	0.025146	0.977598	-0.085998	-1.000000	-1.000000	-1.000000	-1.000000	-1.000000	-1.000000	-1.000000	146.827586	0.000000	-1.000000	-1.000000	328536.000000	1772311315.582522
-16674.390000	-16433.370000	-19907.010000	-12660.300000	0.000000	0.000000	0.000000	0.000000	1.446796	-34.214311	-0.075232	-0.370079	-0.000000	-0.000000	0.000000	0.000000	3.616620	0.122080	-0.839300	0.025146	0.977598	-0.085998	-1.000000	-1.000000	-1.000000	-1.000000	-1.000000	-1.000000	-1.000000	146.827586	0.000000	-1.000000	-1.000000	328537.000000	1772311315.586606
-16675.740000	-16436.700000	-19908.765000	-12664.035000	0.000000	0.000000	0.000000	0.000000	2.871373	-11.775257	0.298673	-0.092806	-0.000000	-0.000000	0.000000	0.000000	3.616620	0.122080	-0.839300	0.025146	0.977598	-0.085998	-1.000000	-1.000000	-1.000000	-1.000000	-1.000000	-1.000000	-1.000000	146.827586	0.000000	-1.000000	-1.000000	328538.000000	1772311315.586609
-16677.630000	-16416.585000	-19910.970000	-12668.220000	0.000000	0.000000	0.000000	0.000000	3.586274	15.429498	1.340350	0.770760	-0.000000	-0.000000	0.000000	0.000000	3.616620	0.122080	-0.839300	0.025146	0.977598	-0.085998	-1.000000	-1.000000	-1.000000	-1.000000	-1.000000	-1.000000	-1.000000	146.827586	0.000000	-1.000000	-1.000000	328539.000000	1772311315.590686
-16679.475000	-16399.890000	-19909.395000	-12665.115000	0.000000	0.000000	0.000000	0.000000	2.815816	35.689094	1.963113	1.177389	-0.000000	-0.000000	0.000000	0.000000	3.616620	0.122080	-0.839300	0.025146	0.977598	-0.085998	-1.000000	-1.000000	-1.000000	-1.000000	-1.000000	-1.000000	-1.000000	146.827586	0.000000	-1.000000	-1.000000	328540.000000	1772311315.590689
-16680.600000	-16421.985000	-19909.530000	-12665.295000	0.000000	0.000000	0.000000	0.000000	0.797092	41.663329	1.706682	0.984233	-0.000000	-0.000000	0.000000	0.000000	3.616620	0.122080	-0.839300	0.025146	0.977598	-0.085998	-1.000000	-1.000000	-1.000000	-1.000000	-1.000000	-1.000000	-1.000000	146.827586	0.000000	-1.000000	-1.000000	328541.000000	1772311315.594658
-16698.195000	-16435.395000	-19927.890000	-12683.880000	0.000000	0.000000	0.000000	0.000000	-1.670866	31.453499	0.576366	0.367794	-0.000000	-0.000000	0.000000	0.000000	3.616620	0.122080	-0.839300	0.025146	0.977598	-0.085998	-1.000000	-1.000000	-1.000000	-1.000000	-1.000000	-1.000000	-1.000000	146.827586	0.000000	-1.000000	-1.000000	328542.000000	1772311315.594661
-16703.460000	-16411.995000	-19935.765000	-12690.585000	0.000000	0.000000	0.000000	0.000000	-4.052722	10.337512	-1.605697	-1.093990	-0.000000	-0.000000	0.000000	0.000000	4.043900	-0.335720	-0.991900	0.025330	0.978025	-0.085876	-1.000000	-1.000000	-1.000000	-1.000000	-1.000000	-1.000000	-1.000000	146.827586	0.000000	-1.000000	-1.000000	328543.000000	1772311315.598597
-16673.400000	-16392.330000	-19907.280000	-12660.255000	0.000000	0.000000	0.000000	0.000000	-4.918639	-9.860881	-3.579983	-2.483368	-0.000000	-0.000000	0.000000	0.000000	4.043900	-0.335720	-0.991900	0.025330	0.978025	-0.085876	-1.000000	-1.000000	-1.000000	-1.000000	-1.000000	-1.000000	-1.000000	146.827586	0.000000	-1.000000	-1.000000	328544.000000	1772311315.598601
-16662.555000	-16395.795000	-19897.920000	-12651.930000	0.000000	0.000000	0.000000	0.000000	-1.830461	-19.489572	-2.281743	-0.947359	-0.000000	-0.000000	0.000000	0.000000	4.043900	-0.335720	-0.991900	0.025330	0.978025	-0.085876	-1.000000	-1.000000	-1.000000	-1.000000	-1.000000	-1.000000	-1.000000	146.827586	0.000000	-1.000000	-1.000000	328545.000000	1772311315.602548
-16671.465000	-16408.890000	-19907.145000	-12660.435000	0.000000	0.000000	0.000000	0.000000	4.484247	-18.601386	2.590818	3.677951	-0.000000	-0.000000	0.000000	0.000000	4.043900	-0.335720	-0.991900	0.025330	0.978025	-0.085876	-1.000000	-1.000000	-1.000000	-1.000000	-1.000000	-1.000000	-1.000000	146.827586	0.000000	-1.000000	-1.000000	328546.000000	1772311315.602551
-16673.985000	-16395.030000	-19908.360000	-12660.705000	0.000000	0.000000	0.000000	0.000000	8.860357	-13.281196	6.644081	7.068314	-0.000000	-0.000000	0.000000	0.000000	4.043900	-0.335720	-0.991900	0.025330	0.978025	-0.085876	-1.000000	-1.000000	-1.000000	-1.000000	-1.000000	-1.000000	-1.000000	146.827586	0.000000	-1.000000	-1.000000	328547.000000	1772311315.606649
-16673.535000	-16391.925000	-19905.165000	-12659.130000	0.000000	0.000000	0.000000	0.000000	7.373834	-7.667391	6.098932	5.751112	-0.000000	-0.000000	0.000000	0.000000	4.043900	-0.335720	-0.991900	0.025330	0.978025	-0.085876	-1.000000	-1.000000	-1.000000	-1.000000	-1.000000	-1.000000	-1.000000	146.827586	0.000000	-1.000000	-1.000000	328548.000000	1772311315.606651
-16683.030000	-16368.210000	-19914.930000	-12665.880000	0.000000	0.000000	0.000000	0.000000	1.179998	-2.247601	1.577987	0.661650	-0.000000	-0.000000	0.000000	0.000000	4.043900	-0.335720	-0.991900	0.025330	0.978025	-0.085876	-1.000000	-1.000000	-1.000000	-1.000000	-1.000000	-1.000000	-1.000000	146.827586	0.000000	-1.000000	-1.000000	328549.000000	1772311315.610682
-16685.235000	-16343.730000	-19918.215000	-12668.670000	0.000000	0.000000	0.000000	0.000000	-5.763885	3.508658	-3.965086	-5.001320	-0.000000	-0.000000	0.000000	0.000000	4.043900	-0.335720	-0.991900	0.025330	0.978025	-0.085876	-1.000000	-1.000000	-1.000000	-1.000000	-1.000000	-1.000000	-1.000000	146.827586	0.000000	-1.000000	-1.000000	328550.000000	1772311315.610685
-16683.660000	-16301.970000	-19916.865000	-12669.435000	0.000000	0.000000	0.000000	0.000000	-9.791050	9.486800	-7.699688	-8.424169	-0.000000	-0.000000	0.000000	0.000000	4.043900	-0.335720	-0.991900	0.025330	0.978025	-0.085876	-1.000000	-1.000000	-1.000000	-1.000000	-1.000000	-1.000000	-1.000000	146.827586	0.000000	-1.000000	-1.000000	328551.000000	1772311315.614683
-16684.155000	-16259.355000	-19921.230000	-12674.070000	0.000000	0.000000	0.000000	0.000000	-9.074854	14.592769	-7.895930	-8.270450	-0.000000	-0.000000	0.000000	0.000000	4.043900	-0.335720	-0.991900	0.025330	0.978025	-0.085876	-1.000000	-1.000000	-1.000000	-1.000000	-1.000000	-1.000000	-1.000000	146.827586	0.000000	-1.000000	-1.000000	328552.000000	1772311315.614687
-16685.460000	-16229.070000	-19924.020000	-12676.905000	0.000000	0.000000	0.000000	0.000000	-4.461591	16.802826	-4.852950	-5.121954	-0.000000	-0.000000	0.000000	0.000000	2.395820	0.000000	-1.281840	0.024963	0.977537	-0.089416	-1.000000	-1.000000	-1.000000	-1.000000	-1.000000	-1.000000	-1.000000	146.827586	0.000000	-1.000000	-1.000000	328553.000000	1772311315.619481
-16683.930000	-16217.505000	-19922.265000	-12674.565000	0.000000	0.000000	0.000000	0.000000	1.304734	13.507931	-0.454686	-0.721016	-0.000000	-0.000000	0.000000	0.000000	2.395820	0.000000	-1.281840	0.024963	0.977537	-0.089416	-1.000000	-1.000000	-1.000000	-1.000000	-1.000000	-1.000000	-1.000000	146.827586	0.000000	-1.000000	-1.000000	328554.000000	1772311315.619484
-16683.525000	-16218.855000	-19922.040000	-12673.845000	0.000000	0.000000	0.000000	0.000000	5.598593	3.231980	3.461970	3.355242	-0.000000	-0.000000	0.000000	0.000000	2.395820	0.000000	-1.281840	0.024963	0.977537	-0.089416	-1.000000	-1.000000	-1.000000	-1.000000	-1.000000	-1.000000	-1.000000	146.827586	0.000000	-1.000000	-1.000000	328555.000000	1772311315.622663
-16680.285000	-16207.380000	-19918.710000	-12671.325000	0.000000	0.000000	0.000000	0.000000	7.193178	-11.684396	5.848818	6.084365	-0.000000	-0.000000	0.000000	0.000000	2.395820	0.000000	-1.281840	0.024963	0.977537	-0.089416	-1.000000	-1.000000	-1.000000	-1.000000	-1.000000	-1.000000	-1.000000	146.827586	0.000000	-1.000000	-1.000000	328556.000000	1772311315.622667
-16672.365000	-16212.330000	-19908.810000	-12661.875000	0.000000	0.000000	0.000000	0.000000	6.398096	-24.976861	6.510114	7.039282	-0.000000	-0.000000	0.000000	0.000000	2.395820	0.000000	-1.281840	0.024963	0.977537	-0.089416	-1.000000	-1.000000	-1.000000	-1.000000	-1.000000	-1.000000	-1.000000	146.827586	0.000000	-1.000000	-1.000000	328557.000000	1772311315.626662
-16680.690000	-16214.895000	-19916.865000	-12670.155000	0.000000	0.000000	0.000000	0.000000	4.184138	-30.630535	5.683532	6.243447	-0.000000	-0.000000	0.000000	0.000000	2.395820	0.000000	-1.281840	0.024963	0.977537	-0.089416	-1.000000	-1.000000	-1.000000	-1.000000	-1.000000	-1.000000	-1.000000	146.827586	0.000000	-1.000000	-1.000000	328558.000000	1772311315.626665
-16690.770000	-16203.195000	-19929.330000	-12681.765000	0.000000	0.000000	0.000000	0.000000	0.912484	-26.460642	3.076804	3.445332	-0.000000	-0.000000	0.000000	0.000000	2.395820	0.000000	-1.281840	0.024963	0.977537	-0.089416	-1.000000	-1.000000	-1.000000	-1.000000	-1.000000	-1.000000	-1.000000	146.827586	0.000000	-1.000000	-1.000000	328559.000000	1772311315.630703
-16689.330000	-16198.425000	-19929.105000	-12680.280000	0.000000	0.000000	0.000000	0.000000	-3.093889	-14.090376	-1.361205	-1.171928	-0.000000	-0.000000	0.000000	0.000000	2.395820	0.000000	-1.281840	0.024963	0.977537	-0.089416	-1.000000	-1.000000	-1.000000	-1.000000	-1.000000	-1.000000	-1.000000	146.827586	0.000000	-1.000000	-1.000000	328560.000000	1772311315.630706
-16685.235000	-16208.820000	-19926.405000	-12677.490000	0.000000	0.000000	0.000000	0.000000	-6.087331	1.577367	-5.661568	-5.478880	-0.000000	-0.000000	0.000000	0.000000	2.395820	0.000000	-1.281840	0.024963	0.977537	-0.089416	-1.000000	-1.000000	-1.000000	-1.000000	-1.000000	-1.000000	-1.000000	146.827586	0.000000	-1.000000	-1.000000	328561.000000	1772311315.634722
-16685.460000	-16224.210000	-19927.305000	-12679.020000	0.000000	0.000000	0.000000	0.000000	-6.064607	13.753320	-7.063403	-6.817996	-0.000000	-0.000000	0.000000	0.000000	2.395820	0.000000	-1.281840	0.024963	0.977537	-0.089416	-1.000000	-1.000000	-1.000000	-1.000000	-1.000000	-1.000000	-1.000000	146.827586	0.000000	-1.000000	-1.000000	328562.000000	1772311315.634725
-16679.070000	-16220.295000	-19919.115000	-12670.650000	0.000000	0.000000	0.000000	0.000000	-2.997877	18.076637	-4.743002	-4.586785	-0.000000	-0.000000	0.000000	0.000000	1.800680	0.061040	-1.236060	0.025330	0.977598	-0.089721	-1.000000	-1.000000	-1.000000	-1.000000	-1.000000	-1.000000	-1.000000	146.827586	0.000000	-1.000000	-1.000000	328563.000000	1772311315.638721
-16679.115000	-16219.530000	-19916.460000	-12668.805000	0.000000	0.000000	0.000000	0.000000	1.247692	15.731848	-0.150187	-0.286381	-0.000000	-0.000000	0.000000	0.000000	1.800680	0.061040	-1.236060	0.025330	0.977598	-0.089721	-1.000000	-1.000000	-1.000000	-1.000000	-1.000000	-1.000000	-1.000000	146.827586	0.000000	-1.000000	-1.000000	328564.000000	1772311315.638724
-16675.290000	-16235.955000	-19910.880000	-12664.305000	0.000000	0.000000	0.000000	0.000000	4.430868	10.704546	4.281195	3.781647	-0.000000	-0.000000	0.000000	0.000000	1.800680	0.061040	-1.236060	0.025330	0.977598	-0.089721	-1.000000	-1.000000	-1.000000	-1.000000	-1.000000	-1.000000	-1.000000	146.827586	0.000000	-1.000000	-1.000000	328565.000000	1772311315.642839
-16683.255000	-16228.620000	-19919.970000	-12672.090000	0.000000	0.000000	0.000000	0.000000	5.058485	5.678150	6.259913	5.524980	-0.000000	-0.000000	0.000000	0.000000	1.800680	0.061040	-1.236060	0.025330	0.977598	-0.089721	-1.000000	-1.000000	-1.000000	-1.000000	-1.000000	-1.000000	-1.000000	146.827586	0.000000	-1.000000	-1.000000	328566.000000	1772311315.642841
-16671.060000	-16230.240000	-19908.765000	-12660.165000	0.000000	0.000000	0.000000	0.000000	3.146366	2.048582	4.863498	4.234657	-0.000000	-0.000000	0.000000	0.000000	1.800680	0.061040	-1.236060	0.025330	0.977598	-0.089721	-1.000000	-1.000000	-1.000000	-1.000000	-1.000000	-1.000000	-1.000000	146.827586	0.000000	-1.000000	-1.000000	328567.000000	1772311315.646799
-16659.900000	-16239.555000	-19897.425000	-12649.770000	0.000000	0.000000	0.000000	0.000000	0.568670	0.345018	1.630746	1.463994	-0.000000	-0.000000	0.000000	0.000000	1.800680	0.061040	-1.236060	0.025330	0.977598	-0.089721	-1.000000	-1.000000	-1.000000	-1.000000	-1.000000	-1.000000	-1.000000	146.827586	0.000000	-1.000000	-1.000000	328568.000000	1772311315.646804
-16673.085000	-16238.745000	-19913.355000	-12662.820000	0.000000	0.000000	0.000000	0.000000	-0.866948	-0.303330	-1.146666	-0.755986	-0.000000	-0.000000	0.000000	0.000000	1.800680	0.061040	-1.236060	0.025330	0.977598	-0.089721	-1.000000	-1.000000	-1.000000	-1.000000	-1.000000	-1.000000	-1.000000	146.827586	0.000000	-1.000000	-1.000000	328569.000000	1772311315.651492
-16676.145000	-16258.905000	-19918.845000	-12666.690000	0.000000	0.000000	0.000000	0.000000	-1.725041	-1.126842	-3.290281	-2.458955	-0.000000	-0.000000	0.000000	0.000000	1.800680	0.061040	-1.236060	0.025330	0.977598	-0.089721	-1.000000	-1.000000	-1.000000	-1.000000	-1.000000	-1.000000	-1.000000	146.827586	0.000000	-1.000000	-1.000000	328570.000000	1772311315.651495
-16674.435000	-16259.715000	-19915.605000	-12664.350000	0.000000	0.000000	0.000000	0.000000	-3.118978	-2.617255	-5.333025	-4.292061	-0.000000	-0.000000	0.000000	0.000000	1.800680	0.061040	-1.236060	0.025330	0.977598	-0.089721	-1.000000	-1.000000	-1.000000	-1.000000	-1.000000	-1.000000	-1.000000	146.827586	0.000000	-1.000000	-1.000000	328571.000000	1772311315.654658
-16668.135000	-16272.135000	-19908.180000	-12658.590000	0.000000	0.000000	0.000000	0.000000	-4.166923	-4.122372	-6.002145	-5.205650	-0.000000	-0.000000	0.000000	0.000000	1.800680	0.061040	-1.236060	0.025330	0.977598	-0.089721	-1.000000	-1.000000	-1.000000	-1.000000	-1.000000	-1.000000	-1.000000	146.827586	0.000000	-1.000000	-1.000000	328572.000000	1772311315.654661
-16667.820000	-16278.840000	-19906.245000	-12657.330000	0.000000	0.000000	0.000000	0.000000	-3.342530	-4.456275	-3.816602	-3.812771	-0.000000	-0.000000	0.000000	0.000000	1.495480	-0.076300	-1.449700	0.024902	0.978269	-0.089905	-1.000000	-1.000000	-1.000000	-1.000000	-1.000000	-1.000000	-1.000000	146.827586	0.000000	-1.000000	-1.000000	328573.000000	1772311315.664409
-16680.735000	-16281.720000	-19916.640000	-12666.555000	0.000000	0.000000	0.000000	0.000000	-1.019947	-3.090266	0.227630	-0.723094	-0.000000	-0.000000	0.000000	0.000000	1.495480	-0.076300	-1.449700	0.024902	0.978269	-0.089905	-1.000000	-1.000000	-1.000000	-1.000000	-1.000000	-1.000000	-1.000000	146.827586	0.000000	-1.000000	-1.000000	328574.000000	1772311315.664412
-16681.005000	-16254.045000	-19915.605000	-12665.385000	0.000000	0.000000	0.000000	0.000000	0.783941	0.243835	3.299407	1.869567	-0.000000	-0.000000	0.000000	0.000000	1.495480	-0.076300	-1.449700	0.024902	0.978269	-0.089905	-1.000000	-1.000000	-1.000000	-1.000000	-1.000000	-1.000000	-1.000000	146.827586	0.000000	-1.000000	-1.000000	328575.000000	1772311315.664416
-16682.940000	-16221.150000	-19920.915000	-12671.145000	0.000000	0.000000	0.000000	0.000000	1.057828	6.077668	3.745381	2.591330	-0.000000	-0.000000	0.000000	0.000000	1.495480	-0.076300	-1.449700	0.024902	0.978269	-0.089905	-1.000000	-1.000000	-1.000000	-1.000000	-1.000000	-1.000000	-1.000000	146.827586	0.000000	-1.000000	-1.000000	328576.000000	1772311315.664418
-16680.375000	-16206.570000	-19920.825000	-12670.605000	0.000000	0.000000	0.000000	0.000000	0.730777	13.225590	2.232028	1.830678	-0.000000	-0.000000	0.000000	0.000000	1.495480	-0.076300	-1.449700	0.024902	0.978269	-0.089905	-1.000000	-1.000000	-1.000000	-1.000000	-1.000000	-1.000000	-1.000000	146.827586	0.000000	-1.000000	-1.000000	328577.000000	1772311315.666838
-16678.485000	-16201.080000	-19919.115000	-12667.275000	0.000000	0.000000	0.000000	0.000000	1.031688	17.192788	0.463360	0.854308	-0.000000	-0.000000	0.000000	0.000000	1.495480	-0.076300	-1.449700	0.024902	0.978269	-0.089905	-1.000000	-1.000000	-1.000000	-1.000000	-1.000000	-1.000000	-1.000000	146.827586	0.000000	-1.000000	-1.000000	328578.000000	1772311315.666841
-16677.315000	-16189.560000	-19918.215000	-12667.185000	0.000000	0.000000	0.000000	0.000000	2.134032	13.563488	-0.224825	0.712996	-0.000000	-0.000000	0.000000	0.000000	1.495480	-0.076300	-1.449700	0.024902	0.978269	-0.089905	-1.000000	-1.000000	-1.000000	-1.000000	-1.000000	-1.000000	-1.000000	146.827586	0.000000	-1.000000	-1.000000	328579.000000	1772311315.670807
-16676.595000	-16179.930000	-19917.090000	-12668.895000	0.000000	0.000000	0.000000	0.000000	3.200840	2.877461	0.338802	1.348668	-0.000000	-0.000000	0.000000	0.000000	1.495480	-0.076300	-1.449700	0.024902	0.978269	-0.089905	-1.000000	-1.000000	-1.000000	-1.000000	-1.000000	-1.000000	-1.000000	146.827586	0.000000	-1.000000	-1.000000	328580.000000	1772311315.670810
-16673.490000	-16181.370000	-19912.995000	-12666.240000	0.000000	0.000000	0.000000	0.000000	3.322341	-9.790235	1.392362	1.861909	-0.000000	-0.000000	0.000000	0.000000	1.495480	-0.076300	-1.449700	0.024902	0.978269	-0.089905	-1.000000	-1.000000	-1.000000	-1.000000	-1.000000	-1.000000	-1.000000	146.827586	0.000000	-1.000000	-1.000000	328581.000000	1772311315.676899
-16676.820000	-16188.255000	-19914.435000	-12664.080000	0.000000	0.000000	0.000000	0.000000	2.234257	-19.278350	2.059029	1.715717	-0.000000	-0.000000	0.000000	0.000000	1.495480	-0.076300	-1.449700	0.024902	0.978269	-0.089905	-1.000000	-1.000000	-1.000000	-1.000000	-1.000000	-1.000000	-1.000000	146.827586	0.000000	-1.000000	-1.000000	328582.000000	1772311315.676903
-16678.755000	-16196.985000	-19917.855000	-12665.250000	0.000000	0.000000	0.000000	0.000000	0.203366	-23.049105	1.685012	1.022472	-0.000000	-0.000000	0.000000	0.000000	1.266580	0.289940	-1.098720	0.023865	0.978574	-0.089844	-1.000000	-1.000000	-1.000000	-1.000000	-1.000000	-1.000000	-1.000000	146.827586	0.000000	-1.000000	-1.000000	328583.000000	1772311315.678815
-16677.630000	-16186.275000	-19917.585000	-12666.870000	0.000000	0.000000	0.000000	0.000000	-2.075293	-20.577474	0.142026	-0.030491	-0.000000	-0.000000	0.000000	0.000000	1.266580	0.289940	-1.098720	0.023865	0.978574	-0.089844	-1.000000	-1.000000	-1.000000	-1.000000	-1.000000	-1.000000	-1.000000	146.827586	0.000000	-1.000000	-1.000000	328584.000000	1772311315.678819
-16676.370000	-16176.240000	-19917.045000	-12664.890000	0.000000	0.000000	0.000000	0.000000	-3.528094	-12.244541	-1.779134	-1.220901	-0.000000	-0.000000	0.000000	0.000000	1.266580	0.289940	-1.098720	0.023865	0.978574	-0.089844	-1.000000	-1.000000	-1.000000	-1.000000	-1.000000	-1.000000	-1.000000	146.827586	0.000000	-1.000000	-1.000000	328585.000000	1772311315.687038
-16672.455000	-16162.515000	-19915.425000	-12664.665000	0.000000	0.000000	0.000000	0.000000	-3.357400	-0.005436	-2.868093	-2.041900	-0.000000	-0.000000	0.000000	0.000000	1.266580	0.289940	-1.098720	0.023865	0.978574	-0.089844	-1.000000	-1.000000	-1.000000	-1.000000	-1.000000	-1.000000	-1.000000	146.827586	0.000000	-1.000000	-1.000000	328586.000000	1772311315.687041
-16674.615000	-16135.875000	-19918.125000	-12667.005000	0.000000	0.000000	0.000000	0.000000	-1.752612	12.329767	-2.585208	-2.121139	-0.000000	-0.000000	0.000000	0.000000	1.266580	0.289940	-1.098720	0.023865	0.978574	-0.089844	-1.000000	-1.000000	-1.000000	-1.000000	-1.000000	-1.000000	-1.000000	146.827586	0.000000	-1.000000	-1.000000	328587.000000	1772311315.687044
-16679.385000	-16141.365000	-19919.385000	-12666.870000	0.000000	0.000000	0.000000	0.000000	0.077777	20.404439	-1.436096	-1.628697	-0.000000	-0.000000	0.000000	0.000000	1.266580	0.289940	-1.098720	0.023865	0.978574	-0.089844	-1.000000	-1.000000	-1.000000	-1.000000	-1.000000	-1.000000	-1.000000	146.827586	0.000000	-1.000000	-1.000000	328588.000000	1772311315.687046
-16680.015000	-16136.910000	-19918.080000	-12666.105000	0.000000	0.000000	0.000000	0.000000	0.872178	20.668887	-0.240609	-0.894401	-0.000000	-0.000000	0.000000	0.000000	1.266580	0.289940	-1.098720	0.023865	0.978574	-0.089844	-1.000000	-1.000000	-1.000000	-1.000000	-1.000000	-1.000000	-1.000000	146.827586	0.000000	-1.000000	-1.000000	328589.000000	1772311315.691272
-16685.640000	-16131.465000	-19923.030000	-12671.280000	0.000000	0.000000	0.000000	0.000000	0.425871	12.806458	0.557792	-0.159356	-0.000000	-0.000000	0.000000	0.000000	1.266580	0.289940	-1.098720	0.023865	0.978574	-0.089844	-1.000000	-1.000000	-1.000000	-1.000000	-1.000000	-1.000000	-1.000000	146.827586	0.000000	-1.000000	-1.000000	328590.000000	1772311315.691276
-16680.510000	-16132.545000	-19916.325000	-12664.215000	0.000000	0.000000	0.000000	0.000000	-0.421880	0.940112	0.924113	0.404345	-0.000000	-0.000000	0.000000	0.000000	1.266580	0.289940	-1.098720	0.023865	0.978574	-0.089844	-1.000000	-1.000000	-1.000000	-1.000000	-1.000000	-1.000000	-1.000000	146.827586	0.000000	-1.000000	-1.000000	328591.000000	1772311315.695013
-16663.770000	-16136.910000	-19902.060000	-12655.755000	0.000000	0.000000	0.000000	0.000000	-0.268455	-9.489765	1.436809	1.096531	-0.000000	-0.000000	0.000000	0.000000	1.266580	0.289940	-1.098720	0.023865	0.978574	-0.089844	-1.000000	-1.000000	-1.000000	-1.000000	-1.000000	-1.000000	-1.000000	146.827586	0.000000	-1.000000	-1.000000	328592.000000	1772311315.695015
-16675.065000	-16148.745000	-19914.390000	-12665.655000	0.000000	0.000000	0.000000	0.000000	1.520890	-15.231497	2.462944	2.063725	-0.000000	-0.000000	0.000000	0.000000	1.205540	0.320460	-0.686700	0.022949	0.977964	-0.088684	-1.000000	-1.000000	-1.000000	-1.000000	-1.000000	-1.000000	-1.000000	146.827586	0.000000	-1.000000	-1.000000	328593.000000	1772311315.698935
-16684.650000	-16162.200000	-19924.200000	-12671.910000	0.000000	0.000000	0.000000	0.000000	3.109559	-15.888690	2.596077	2.173050	-0.000000	-0.000000	0.000000	0.000000	1.205540	0.320460	-0.686700	0.022949	0.977964	-0.088684	-1.000000	-1.000000	-1.000000	-1.000000	-1.000000	-1.000000	-1.000000	146.827586	0.000000	-1.000000	-1.000000	328594.000000	1772311315.698938
-16679.340000	-16125.615000	-19921.320000	-12670.110000	0.000000	0.000000	0.000000	0.000000	2.208604	-11.857996	0.403772	0.491566	-0.000000	-0.000000	0.000000	0.000000	1.205540	0.320460	-0.686700	0.022949	0.977964	-0.088684	-1.000000	-1.000000	-1.000000	-1.000000	-1.000000	-1.000000	-1.000000	146.827586	0.000000	-1.000000	-1.000000	328595.000000	1772311315.702958
-16675.515000	-16096.230000	-19916.145000	-12667.230000	0.000000	0.000000	0.000000	0.000000	-0.424087	-2.587923	-2.684963	-1.786932	-0.000000	-0.000000	0.000000	0.000000	1.205540	0.320460	-0.686700	0.022949	0.977964	-0.088684	-1.000000	-1.000000	-1.000000	-1.000000	-1.000000	-1.000000	-1.000000	146.827586	0.000000	-1.000000	-1.000000	328596.000000	1772311315.702961
-16688.880000	-16095.780000	-19929.735000	-12679.695000	0.000000	0.000000	0.000000	0.000000	-2.440485	10.120083	-4.134983	-2.886991	-0.000000	-0.000000	0.000000	0.000000	1.205540	0.320460	-0.686700	0.022949	0.977964	-0.088684	-1.000000	-1.000000	-1.000000	-1.000000	-1.000000	-1.000000	-1.000000	146.827586	0.000000	-1.000000	-1.000000	328597.000000	1772311315.706914
-16688.340000	-16104.735000	-19930.005000	-12683.880000	0.000000	0.000000	0.000000	0.000000	-3.128322	19.254083	-3.554682	-2.721647	-0.000000	-0.000000	0.000000	0.000000	1.205540	0.320460	-0.686700	0.022949	0.977964	-0.088684	-1.000000	-1.000000	-1.000000	-1.000000	-1.000000	-1.000000	-1.000000	146.827586	0.000000	-1.000000	-1.000000	328598.000000	1772311315.706917
-16673.895000	-16103.250000	-19911.150000	-12658.140000	0.000000	0.000000	0.000000	0.000000	-2.563779	18.163803	-1.623791	-1.568530	-0.000000	-0.000000	0.000000	0.000000	1.205540	0.320460	-0.686700	0.022949	0.977964	-0.088684	-1.000000	-1.000000	-1.000000	-1.000000	-1.000000	-1.000000	-1.000000	146.827586	0.000000	-1.000000	-1.000000	328599.000000	1772311315.711051
-16652.880000	-16106.130000	-19890.765000	-12635.505000	0.000000	0.000000	0.000000	0.000000	0.033653	7.521979	1.983045	1.687377	-0.000000	-0.000000	0.000000	0.000000	1.205540	0.320460	-0.686700	0.022949	0.977964	-0.088684	-1.000000	-1.000000	-1.000000	-1.000000	-1.000000	-1.000000	-1.000000	146.827586	0.000000	-1.000000	-1.000000	328600.000000	1772311315.711054
-16668.180000	-16096.185000	-19908.855000	-12657.330000	0.000000	0.000000	0.000000	0.000000	4.195825	-5.617503	6.428707	6.490498	-0.000000	-0.000000	0.000000	0.000000	1.205540	0.320460	-0.686700	0.022949	0.977964	-0.088684	-1.000000	-1.000000	-1.000000	-1.000000	-1.000000	-1.000000	-1.000000	146.827586	0.000000	-1.000000	-1.000000	328601.000000	1772311315.714956
-16676.910000	-16086.420000	-19919.430000	-12669.075000	0.000000	0.000000	0.000000	0.000000	6.380173	-13.710171	7.855252	8.239743	-0.000000	-0.000000	0.000000	0.000000	1.205540	0.320460	-0.686700	0.022949	0.977964	-0.088684	-1.000000	-1.000000	-1.000000	-1.000000	-1.000000	-1.000000	-1.000000	146.827586	0.000000	-1.000000	-1.000000	328602.000000	1772311315.714960
-16677.945000	-16093.845000	-19920.915000	-12669.030000	0.000000	0.000000	0.000000	0.000000	3.664657	-13.736273	3.604984	3.620668	-0.000000	-0.000000	0.000000	0.000000	1.800680	0.366240	-0.350980	0.023071	0.977109	-0.086975	-1.000000	-1.000000	-1.000000	-1.000000	-1.000000	-1.000000	-1.000000	146.827586	0.000000	-1.000000	-1.000000	328603.000000	1772311315.719058
-16688.655000	-16099.875000	-19931.040000	-12676.860000	0.000000	0.000000	0.000000	0.000000	-2.379385	-8.428924	-3.843014	-4.502845	-0.000000	-0.000000	0.000000	0.000000	1.800680	0.366240	-0.350980	0.023071	0.977109	-0.086975	-1.000000	-1.000000	-1.000000	-1.000000	-1.000000	-1.000000	-1.000000	146.827586	0.000000	-1.000000	-1.000000	328604.000000	1772311315.719061
-16678.260000	-16080.165000	-19919.295000	-12667.545000	0.000000	0.000000	0.000000	0.000000	-7.450457	-2.236838	-9.338423	-10.279433	-0.000000	-0.000000	0.000000	0.000000	1.800680	0.366240	-0.350980	0.023071	0.977109	-0.086975	-1.000000	-1.000000	-1.000000	-1.000000	-1.000000	-1.000000	-1.000000	146.827586	0.000000	-1.000000	-1.000000	328605.000000	1772311315.728807
-16676.415000	-16077.735000	-19917.180000	-12668.355000	0.000000	0.000000	0.000000	0.000000	-8.091693	2.924261	-9.271892	-10.076445	-0.000000	-0.000000	0.000000	0.000000	1.800680	0.366240	-0.350980	0.023071	0.977109	-0.086975	-1.000000	-1.000000	-1.000000	-1.000000	-1.000000	-1.000000	-1.000000	146.827586	0.000000	-1.000000	-1.000000	328606.000000	1772311315.728810
-16687.305000	-16068.285000	-19928.745000	-12679.515000	0.000000	0.000000	0.000000	0.000000	-4.194221	6.691246	-4.132701	-4.790091	-0.000000	-0.000000	0.000000	0.000000	1.800680	0.366240	-0.350980	0.023071	0.977109	-0.086975	-1.000000	-1.000000	-1.000000	-1.000000	-1.000000	-1.000000	-1.000000	146.827586	0.000000	-1.000000	-1.000000	328607.000000	1772311315.728815
-16686.045000	-16053.030000	-19927.080000	-12677.040000	0.000000	0.000000	0.000000	0.000000	0.982390	8.480302	1.990017	1.456436	-0.000000	-0.000000	0.000000	0.000000	1.800680	0.366240	-0.350980	0.023071	0.977109	-0.086975	-1.000000	-1.000000	-1.000000	-1.000000	-1.000000	-1.000000	-1.000000	146.827586	0.000000	-1.000000	-1.000000	328608.000000	1772311315.728817
-16682.130000	-16041.060000	-19921.905000	-12670.605000	0.000000	0.000000	0.000000	0.000000	4.386960	8.163785	5.634663	5.502644	-0.000000	0.000000	0.000000	0.000000	1.800680	0.366240	-0.350980	0.023071	0.977109	-0.086975	-1.000000	-1.000000	-1.000000	-1.000000	-1.000000	-1.000000	-1.000000	146.827586	0.000000	-1.000000	-1.000000	328609.000000	1772311315.735381
-16678.665000	-16031.520000	-19918.890000	-12668.310000	0.000000	0.000000	0.000000	0.000000	5.536873	6.117518	6.455333	7.029359	-0.000000	0.000000	0.000000	0.000000	1.800680	0.366240	-0.350980	0.023071	0.977109	-0.086975	-1.000000	-1.000000	-1.000000	-1.000000	-1.000000	-1.000000	-1.000000	146.827586	0.000000	-1.000000	-1.000000	328610.000000	1772311315.735384
-16679.340000	-16007.715000	-19920.330000	-12669.975000	0.000000	0.000000	0.000000	0.000000	5.160061	2.971186	5.474796	6.654246	-0.000000	0.000000	0.000000	0.000000	1.800680	0.366240	-0.350980	0.023071	0.977109	-0.086975	-1.000000	-1.000000	-1.000000	-1.000000	-1.000000	-1.000000	-1.000000	146.827586	0.000000	-1.000000	-1.000000	328611.000000	1772311315.735388
-16681.995000	-15994.125000	-19924.560000	-12673.755000	0.000000	0.000000	0.000000	0.000000	3.632299	-0.100488	3.265158	4.547893	-0.000000	0.000000	0.000000	0.000000	1.800680	0.366240	-0.350980	0.023071	0.977109	-0.086975	-1.000000	-1.000000	-1.000000	-1.000000	-1.000000	-1.000000	-1.000000	146.827586	0.000000	-1.000000	-1.000000	328612.000000	1772311315.735390
-16680.645000	-15988.680000	-19922.130000	-12671.955000	0.000000	0.000000	0.000000	0.000000	1.184547	-2.405882	0.256551	1.120351	-0.000000	0.000000	0.000000	0.000000	2.853620	-0.076300	-0.595140	0.023743	0.977048	-0.085815	-1.000000	-1.000000	-1.000000	-1.000000	-1.000000	-1.000000	-1.000000	146.827586	0.000000	-1.000000	-1.000000	328613.000000	1772311315.739110
-16679.115000	-15973.245000	-19920.555000	-12671.730000	0.000000	0.000000	0.000000	0.000000	-1.380231	-4.328397	-2.473380	-2.308668	-0.000000	0.000000	0.000000	0.000000	2.853620	-0.076300	-0.595140	0.023743	0.977048	-0.085815	-1.000000	-1.000000	-1.000000	-1.000000	-1.000000	-1.000000	-1.000000	146.827586	0.000000	-1.000000	-1.000000	328614.000000	1772311315.739113
-16683.165000	-15958.170000	-19924.290000	-12676.635000	0.000000	0.000000	0.000000	0.000000	-3.071139	-5.819190	-3.810826	-4.367924	-0.000000	0.000000	0.000000	0.000000	2.853620	-0.076300	-0.595140	0.023743	0.977048	-0.085815	-1.000000	-1.000000	-1.000000	-1.000000	-1.000000	-1.000000	-1.000000	146.827586	0.000000	-1.000000	-1.000000	328615.000000	1772311315.743120
-16685.955000	-15952.230000	-19927.575000	-12680.145000	0.000000	0.000000	0.000000	0.000000	-3.623652	-6.128239	-3.712439	-4.769619	-0.000000	0.000000	0.000000	0.000000	2.853620	-0.076300	-0.595140	0.023743	0.977048	-0.085815	-1.000000	-1.000000	-1.000000	-1.000000	-1.000000	-1.000000	-1.000000	146.827586	0.000000	-1.000000	-1.000000	328616.000000	1772311315.743123
-16684.965000	-15963.705000	-19925.685000	-12676.815000	0.000000	0.000000	0.000000	0.000000	-3.305466	-5.585038	-2.819046	-3.909585	-0.000000	0.000000	0.000000	0.000000	2.853620	-0.076300	-0.595140	0.023743	0.977048	-0.085815	-1.000000	-1.000000	-1.000000	-1.000000	-1.000000	-1.000000	-1.000000	146.827586	0.000000	-1.000000	-1.000000	328617.000000	1772311315.747067
-16676.730000	-15952.005000	-19918.755000	-12670.920000	0.000000	0.000000	0.000000	0.000000	-2.094327	-5.346308	-1.353270	-1.939669	-0.000000	0.000000	0.000000	0.000000	2.853620	-0.076300	-0.595140	0.023743	0.977048	-0.085815	-1.000000	-1.000000	-1.000000	-1.000000	-1.000000	-1.000000	-1.000000	146.827586	0.000000	-1.000000	-1.000000	328618.000000	1772311315.747071
-16649.685000	-15921.045000	-19894.005000	-12649.590000	0.000000	0.000000	0.000000	0.000000	0.562140	-4.575556	1.137942	1.240990	-0.000000	0.000000	0.000000	0.000000	2.853620	-0.076300	-0.595140	0.023743	0.977048	-0.085815	-1.000000	-1.000000	-1.000000	-1.000000	-1.000000	-1.000000	-1.000000	146.827586	0.000000	-1.000000	-1.000000	328619.000000	1772311315.751100
-16673.445000	-15915.555000	-19917.045000	-12669.570000	0.000000	0.000000	0.000000	0.000000	4.164887	-1.047259	4.229037	4.723536	-0.000000	0.000000	0.000000	0.000000	2.853620	-0.076300	-0.595140	0.023743	0.977048	-0.085815	-1.000000	-1.000000	-1.000000	-1.000000	-1.000000	-1.000000	-1.000000	146.827586	0.000000	-1.000000	-1.000000	328620.000000	1772311315.751104
-16697.970000	-15932.745000	-19938.780000	-12685.140000	0.000000	0.000000	0.000000	0.000000	5.236166	4.025150	4.853259	5.543687	-0.000000	0.000000	0.000000	0.000000	2.853620	-0.076300	-0.595140	0.023743	0.977048	-0.085815	-1.000000	-1.000000	-1.000000	-1.000000	-1.000000	-1.000000	-1.000000	146.827586	0.000000	-1.000000	-1.000000	328621.000000	1772311315.754928
-16694.820000	-15931.665000	-19934.235000	-12683.115000	0.000000	0.000000	0.000000	0.000000	0.937684	6.074513	0.658101	1.741679	-0.000000	0.000000	0.000000	0.000000	2.853620	-0.076300	-0.595140	0.023743	0.977048	-0.085815	-1.000000	-1.000000	-1.000000	-1.000000	-1.000000	-1.000000	-1.000000	146.827586	0.000000	-1.000000	-1.000000	328622.000000	1772311315.754930
-16696.665000	-15932.880000	-19934.370000	-12685.410000	0.000000	0.000000	0.000000	0.000000	-5.726530	3.298336	-5.364249	-4.020523	-0.000000	0.000000	0.000000	0.000000	3.464020	-0.030520	-0.549360	0.023498	0.977353	-0.085144	-1.000000	-1.000000	-1.000000	-1.000000	-1.000000	-1.000000	-1.000000	146.827586	0.000000	-1.000000	-1.000000	328623.000000	1772311315.759015
-16701.030000	-15933.960000	-19938.465000	-12689.820000	0.000000	0.000000	0.000000	0.000000	-9.004750	-1.371300	-7.998983	-7.213550	-0.000000	0.000000	0.000000	0.000000	3.464020	-0.030520	-0.549360	0.023498	0.977353	-0.085144	-1.000000	-1.000000	-1.000000	-1.000000	-1.000000	-1.000000	-1.000000	146.827586	0.000000	-1.000000	-1.000000	328624.000000	1772311315.759018
-16683.885000	-15946.605000	-19923.750000	-12675.240000	0.000000	0.000000	0.000000	0.000000	-6.363932	-4.395964	-5.314428	-5.790426	-0.000000	0.000000	0.000000	0.000000	3.464020	-0.030520	-0.549360	0.023498	0.977353	-0.085144	-1.000000	-1.000000	-1.000000	-1.000000	-1.000000	-1.000000	-1.000000	146.827586	0.000000	-1.000000	-1.000000	328625.000000	1772311315.763108
-16665.570000	-15947.145000	-19907.055000	-12659.445000	0.000000	0.000000	0.000000	0.000000	1.011291	-4.610512	1.259607	-0.356201	-0.000000	0.000000	0.000000	0.000000	3.464020	-0.030520	-0.549360	0.023498	0.977353	-0.085144	-1.000000	-1.000000	-1.000000	-1.000000	-1.000000	-1.000000	-1.000000	146.827586	0.000000	-1.000000	-1.000000	328626.000000	1772311315.763111
-16661.970000	-15947.865000	-19904.625000	-12654.180000	0.000000	0.000000	0.000000	0.000000	9.584633	-2.447336	8.543034	6.610813	-0.000000	0.000000	0.000000	0.000000	3.464020	-0.030520	-0.549360	0.023498	0.977353	-0.085144	-1.000000	-1.000000	-1.000000	-1.000000	-1.000000	-1.000000	-1.000000	146.827586	0.000000	-1.000000	-1.000000	328627.000000	1772311315.767192
-16673.580000	-15960.285000	-19916.055000	-12662.865000	0.000000	0.000000	0.000000	0.000000	14.216820	1.001283	12.190387	10.985405	-0.000000	0.000000	0.000000	0.000000	3.464020	-0.030520	-0.549360	0.023498	0.977353	-0.085144	-1.000000	-1.000000	-1.000000	-1.000000	-1.000000	-1.000000	-1.000000	146.827586	0.000000	-1.000000	-1.000000	328628.000000	1772311315.767195
-16682.850000	-15965.910000	-19926.630000	-12673.395000	0.000000	0.000000	0.000000	0.000000	11.084821	3.929431	9.007008	9.209933	-0.000000	0.000000	0.000000	0.000000	3.464020	-0.030520	-0.549360	0.023498	0.977353	-0.085144	-1.000000	-1.000000	-1.000000	-1.000000	-1.000000	-1.000000	-1.000000	146.827586	0.000000	-1.000000	-1.000000	328629.000000	1772311315.771066
-16676.685000	-15965.505000	-19917.855000	-12666.330000	0.000000	0.000000	0.000000	0.000000	1.521489	5.089382	0.369793	1.763169	-0.000000	0.000000	0.000000	0.000000	3.464020	-0.030520	-0.549360	0.023498	0.977353	-0.085144	-1.000000	-1.000000	-1.000000	-1.000000	-1.000000	-1.000000	-1.000000	146.827586	0.000000	-1.000000	-1.000000	328630.000000	1772311315.771069
-16681.725000	-15954.795000	-19918.890000	-12668.625000	0.000000	0.000000	0.000000	0.000000	-8.469719	5.120145	-8.078423	-6.535770	-0.000000	0.000000	0.000000	0.000000	3.464020	-0.030520	-0.549360	0.023498	0.977353	-0.085144	-1.000000	-1.000000	-1.000000	-1.000000	-1.000000	-1.000000	-1.000000	146.827586	0.000000	-1.000000	-1.000000	328631.000000	1772311315.775144
-16683.165000	-15926.310000	-19922.940000	-12677.670000	0.000000	0.000000	0.000000	0.000000	-13.422660	5.825991	-11.483427	-10.942858	-0.000000	0.000000	0.000000	0.000000	3.464020	-0.030520	-0.549360	0.023498	0.977353	-0.085144	-1.000000	-1.000000	-1.000000	-1.000000	-1.000000	-1.000000	-1.000000	146.827586	0.000000	-1.000000	-1.000000	328632.000000	1772311315.775147
-16685.820000	-15902.415000	-19927.080000	-12679.065000	0.000000	0.000000	0.000000	0.000000	-12.058304	8.284784	-9.449596	-10.394206	-0.000000	0.000000	0.000000	0.000000	2.792580	-0.030520	-0.701960	0.023376	0.977964	-0.087646	-1.000000	-1.000000	-1.000000	-1.000000	-1.000000	-1.000000	-1.000000	146.827586	0.000000	-1.000000	-1.000000	328633.000000	1772311315.779290
-16680.240000	-15895.125000	-19923.795000	-12675.240000	0.000000	0.000000	0.000000	0.000000	-6.362769	10.933070	-4.514727	-6.333313	-0.000000	0.000000	0.000000	0.000000	2.792580	-0.030520	-0.701960	0.023376	0.977964	-0.087646	-1.000000	-1.000000	-1.000000	-1.000000	-1.000000	-1.000000	-1.000000	146.827586	0.000000	-1.000000	-1.000000	328634.000000	1772311315.779293
-16672.185000	-15913.980000	-19915.695000	-12668.940000	0.000000	0.000000	0.000000	0.000000	0.820491	9.614638	0.921901	-0.514869	-0.000000	0.000000	0.000000	0.000000	2.792580	-0.030520	-0.701960	0.023376	0.977964	-0.087646	-1.000000	-1.000000	-1.000000	-1.000000	-1.000000	-1.000000	-1.000000	146.827586	0.000000	-1.000000	-1.000000	328635.000000	1772311315.783223
-16665.030000	-15923.115000	-19907.190000	-12660.480000	0.000000	0.000000	0.000000	0.000000	7.049739	1.305243	5.567427	5.340156	-0.000000	0.000000	0.000000	0.000000	2.792580	-0.030520	-0.701960	0.023376	0.977964	-0.087646	-1.000000	-1.000000	-1.000000	-1.000000	-1.000000	-1.000000	-1.000000	146.827586	0.000000	-1.000000	-1.000000	328636.000000	1772311315.783226
-16666.380000	-15918.210000	-19909.125000	-12661.470000	0.000000	0.000000	0.000000	0.000000	10.349710	-11.328374	8.378536	9.320449	-0.000000	0.000000	0.000000	0.000000	2.792580	-0.030520	-0.701960	0.023376	0.977964	-0.087646	-1.000000	-1.000000	-1.000000	-1.000000	-1.000000	-1.000000	-1.000000	146.827586	0.000000	-1.000000	-1.000000	328637.000000	1772311315.787130
-16669.080000	-15923.565000	-19912.545000	-12662.730000	0.000000	0.000000	0.000000	0.000000	9.427151	-20.912028	8.091274	9.707189	-0.000000	0.000000	0.000000	0.000000	2.792580	-0.030520	-0.701960	0.023376	0.977964	-0.087646	-1.000000	-1.000000	-1.000000	-1.000000	-1.000000	-1.000000	-1.000000	146.827586	0.000000	-1.000000	-1.000000	328638.000000	1772311315.787132
-16672.320000	-15943.005000	-19913.220000	-12664.260000	0.000000	0.000000	0.000000	0.000000	4.604052	-22.213771	4.393980	6.142750	-0.000000	0.000000	0.000000	0.000000	2.792580	-0.030520	-0.701960	0.023376	0.977964	-0.087646	-1.000000	-1.000000	-1.000000	-1.000000	-1.000000	-1.000000	-1.000000	146.827586	0.000000	-1.000000	-1.000000	328639.000000	1772311315.791137
-16675.110000	-15930.675000	-19915.515000	-12665.880000	0.000000	0.000000	0.000000	0.000000	-1.859680	-15.703121	-1.036368	0.325447	-0.000000	0.000000	0.000000	0.000000	2.792580	-0.030520	-0.701960	0.023376	0.977964	-0.087646	-1.000000	-1.000000	-1.000000	-1.000000	-1.000000	-1.000000	-1.000000	146.827586	0.000000	-1.000000	-1.000000	328640.000000	1772311315.791139
-16671.960000	-15919.740000	-19911.915000	-12662.775000	0.000000	0.000000	0.000000	0.000000	-6.879368	-4.435770	-5.458095	-4.910332	-0.000000	0.000000	0.000000	0.000000	2.792580	-0.030520	-0.701960	0.023376	0.977964	-0.087646	-1.000000	-1.000000	-1.000000	-1.000000	-1.000000	-1.000000	-1.000000	146.827586	0.000000	-1.000000	-1.000000	328641.000000	1772311315.795634
-16672.545000	-15919.155000	-19913.985000	-12663.810000	0.000000	0.000000	0.000000	0.000000	-8.264954	8.025112	-6.907107	-7.301828	-0.000000	0.000000	0.000000	0.000000	2.792580	-0.030520	-0.701960	0.023376	0.977964	-0.087646	-1.000000	-1.000000	-1.000000	-1.000000	-1.000000	-1.000000	-1.000000	146.827586	0.000000	-1.000000	-1.000000	328642.000000	1772311315.795637
-16678.980000	-15905.970000	-19922.850000	-12672.090000	0.000000	0.000000	0.000000	0.000000	-6.074887	17.317085	-5.481214	-6.551043	-0.000000	0.000000	0.000000	0.000000	2.380560	0.137340	-0.579880	0.023132	0.977903	-0.087768	-1.000000	-1.000000	-1.000000	-1.000000	-1.000000	-1.000000	-1.000000	146.827586	0.000000	-1.000000	-1.000000	328643.000000	1772311315.799207
-16671.780000	-15882.030000	-19918.080000	-12667.545000	0.000000	0.000000	0.000000	0.000000	-2.193999	20.549483	-2.803893	-4.052408	-0.000000	0.000000	0.000000	0.000000	2.380560	0.137340	-0.579880	0.023132	0.977903	-0.087768	-1.000000	-1.000000	-1.000000	-1.000000	-1.000000	-1.000000	-1.000000	146.827586	0.000000	-1.000000	-1.000000	328644.000000	1772311315.799209
-16663.230000	-15865.740000	-19910.700000	-12661.740000	0.000000	0.000000	0.000000	0.000000	1.750263	18.164106	0.045290	-0.998071	-0.000000	0.000000	0.000000	0.000000	2.380560	0.137340	-0.579880	0.023132	0.977903	-0.087768	-1.000000	-1.000000	-1.000000	-1.000000	-1.000000	-1.000000	-1.000000	146.827586	0.000000	-1.000000	-1.000000	328645.000000	1772311315.803171
-16664.355000	-15866.235000	-19910.880000	-12662.055000	0.000000	0.000000	0.000000	0.000000	4.937007	11.826395	2.872734	2.125276	-0.000000	0.000000	0.000000	0.000000	2.380560	0.137340	-0.579880	0.023132	0.977903	-0.087768	-1.000000	-1.000000	-1.000000	-1.000000	-1.000000	-1.000000	-1.000000	146.827586	0.000000	-1.000000	-1.000000	328646.000000	1772311315.803174
-16662.375000	-15878.430000	-19906.515000	-12656.430000	0.000000	0.000000	0.000000	0.000000	6.344664	2.354863	5.012861	4.543304	-0.000000	0.000000	0.000000	0.000000	2.380560	0.137340	-0.579880	0.023132	0.977903	-0.087768	-1.000000	-1.000000	-1.000000	-1.000000	-1.000000	-1.000000	-1.000000	146.827586	0.000000	-1.000000	-1.000000	328647.000000	1772311315.807192
-16679.925000	-15883.470000	-19924.020000	-12675.195000	0.000000	0.000000	0.000000	0.000000	4.902287	-8.986549	5.147053	5.027217	-0.000000	0.000000	0.000000	0.000000	2.380560	0.137340	-0.579880	0.023132	0.977903	-0.087768	-1.000000	-1.000000	-1.000000	-1.000000	-1.000000	-1.000000	-1.000000	146.827586	0.000000	-1.000000	-1.000000	328648.000000	1772311315.807195
-16681.185000	-15892.245000	-19924.740000	-12675.555000	0.000000	0.000000	0.000000	0.000000	0.644421	-18.748017	2.463467	2.739700	-0.000000	0.000000	0.000000	0.000000	2.380560	0.137340	-0.579880	0.023132	0.977903	-0.087768	-1.000000	-1.000000	-1.000000	-1.000000	-1.000000	-1.000000	-1.000000	146.827586	0.000000	-1.000000	-1.000000	328649.000000	1772311315.811180
-16646.895000	-15874.650000	-19890.270000	-12642.480000	0.000000	0.000000	0.000000	0.000000	-3.702415	-22.378222	-1.182942	-0.641584	-0.000000	0.000000	0.000000	0.000000	2.380560	0.137340	-0.579880	0.023132	0.977903	-0.087768	-1.000000	-1.000000	-1.000000	-1.000000	-1.000000	-1.000000	-1.000000	146.827586	0.000000	-1.000000	-1.000000	328650.000000	1772311315.811183
-16676.100000	-15846.570000	-19920.195000	-12669.795000	0.000000	0.000000	0.000000	0.000000	-4.515736	-16.823922	-2.464032	-1.859524	-0.000000	0.000000	0.000000	0.000000	2.380560	0.137340	-0.579880	0.023132	0.977903	-0.087768	-1.000000	-1.000000	-1.000000	-1.000000	-1.000000	-1.000000	-1.000000	146.827586	0.000000	-1.000000	-1.000000	328651.000000	1772311315.815328
-16707.105000	-15818.220000	-19952.730000	-12697.380000	0.000000	0.000000	0.000000	0.000000	-2.959838	-3.032670	-2.228936	-1.545222	-0.000000	0.000000	0.000000	0.000000	2.380560	0.137340	-0.579880	0.023132	0.977903	-0.087768	-1.000000	-1.000000	-1.000000	-1.000000	-1.000000	-1.000000	-1.000000	146.827586	0.000000	-1.000000	-1.000000	328652.000000	1772311315.815331
-16697.790000	-15811.470000	-19943.640000	-12691.215000	0.000000	0.000000	0.000000	0.000000	-3.117746	12.817817	-3.921844	-2.974729	-0.000000	0.000000	0.000000	0.000000	2.563680	-0.061040	-0.717220	0.022888	0.977781	-0.086670	-1.000000	-1.000000	-1.000000	-1.000000	-1.000000	-1.000000	-1.000000	146.827586	0.000000	-1.000000	-1.000000	328653.000000	1772311315.819243
-16691.940000	-15806.475000	-19939.635000	-12689.055000	0.000000	0.000000	0.000000	0.000000	-4.334650	22.078462	-6.230520	-5.251754	-0.000000	0.000000	0.000000	0.000000	2.563680	-0.061040	-0.717220	0.022888	0.977781	-0.086670	-1.000000	-1.000000	-1.000000	-1.000000	-1.000000	-1.000000	-1.000000	146.827586	0.000000	-1.000000	-1.000000	328654.000000	1772311315.819246
-16686.405000	-15796.845000	-19935.225000	-12686.220000	0.000000	0.000000	0.000000	0.000000	-2.619316	19.820292	-4.808164	-4.552644	-0.000000	0.000000	0.000000	0.000000	2.563680	-0.061040	-0.717220	0.022888	0.977781	-0.086670	-1.000000	-1.000000	-1.000000	-1.000000	-1.000000	-1.000000	-1.000000	146.827586	0.000000	-1.000000	-1.000000	328655.000000	1772311315.823209
-16698.150000	-15796.845000	-19943.820000	-12689.955000	0.000000	0.000000	0.000000	0.000000	2.465963	8.322612	0.808695	-0.080717	-0.000000	0.000000	0.000000	0.000000	2.563680	-0.061040	-0.717220	0.022888	0.977781	-0.086670	-1.000000	-1.000000	-1.000000	-1.000000	-1.000000	-1.000000	-1.000000	146.827586	0.000000	-1.000000	-1.000000	328656.000000	1772311315.823212
-16679.835000	-15797.295000	-19926.045000	-12671.190000	0.000000	0.000000	0.000000	0.000000	7.485420	-5.734260	7.019010	5.558467	-0.000000	0.000000	0.000000	0.000000	2.563680	-0.061040	-0.717220	0.022888	0.977781	-0.086670	-1.000000	-1.000000	-1.000000	-1.000000	-1.000000	-1.000000	-1.000000	146.827586	0.000000	-1.000000	-1.000000	328657.000000	1772311315.827245
-16678.305000	-15789.690000	-19925.595000	-12671.865000	0.000000	0.000000	0.000000	0.000000	9.742443	-15.911406	10.615357	9.598270	-0.000000	0.000000	0.000000	0.000000	2.563680	-0.061040	-0.717220	0.022888	0.977781	-0.086670	-1.000000	-1.000000	-1.000000	-1.000000	-1.000000	-1.000000	-1.000000	146.827586	0.000000	-1.000000	-1.000000	328658.000000	1772311315.827248
-16679.565000	-15804.810000	-19926.765000	-12671.460000	0.000000	0.000000	0.000000	0.000000	8.702172	-18.869770	10.345906	10.225747	-0.000000	0.000000	0.000000	0.000000	2.563680	-0.061040	-0.717220	0.022888	0.977781	-0.086670	-1.000000	-1.000000	-1.000000	-1.000000	-1.000000	-1.000000	-1.000000	146.827586	0.000000	-1.000000	-1.000000	328659.000000	1772311315.832583
-16672.230000	-15804.585000	-19921.320000	-12667.275000	0.000000	0.000000	0.000000	0.000000	4.799570	-15.368620	6.312279	6.801928	-0.000000	0.000000	0.000000	0.000000	2.563680	-0.061040	-0.717220	0.022888	0.977781	-0.086670	-1.000000	-1.000000	-1.000000	-1.000000	-1.000000	-1.000000	-1.000000	146.827586	0.000000	-1.000000	-1.000000	328660.000000	1772311315.832585
-16658.865000	-15788.970000	-19908.045000	-12657.465000	0.000000	0.000000	0.000000	0.000000	-0.218551	-8.015158	0.489642	0.950798	-0.000000	0.000000	0.000000	0.000000	2.563680	-0.061040	-0.717220	0.022888	0.977781	-0.086670	-1.000000	-1.000000	-1.000000	-1.000000	-1.000000	-1.000000	-1.000000	146.827586	0.000000	-1.000000	-1.000000	328661.000000	1772311315.835179
-16660.215000	-15781.995000	-19911.240000	-12658.140000	0.000000	0.000000	0.000000	0.000000	-3.973657	1.205432	-4.231959	-4.344063	-0.000000	0.000000	0.000000	0.000000	2.563680	-0.061040	-0.717220	0.022888	0.977781	-0.086670	-1.000000	-1.000000	-1.000000	-1.000000	-1.000000	-1.000000	-1.000000	146.827586	0.000000	-1.000000	-1.000000	328662.000000	1772311315.835182
-16675.515000	-15783.345000	-19925.055000	-12669.705000	0.000000	0.000000	0.000000	0.000000	-6.000329	9.822733	-6.890460	-7.501154	-0.000000	0.000000	0.000000	0.000000	2.197440	-0.030520	-0.549360	0.022888	0.978269	-0.087646	-1.000000	-1.000000	-1.000000	-1.000000	-1.000000	-1.000000	-1.000000	146.827586	0.000000	-1.000000	-1.000000	328663.000000	1772311315.839353
-16680.330000	-15797.970000	-19927.170000	-12673.980000	0.000000	0.000000	0.000000	0.000000	-7.631545	14.116984	-8.483431	-8.950549	-0.000000	0.000000	0.000000	0.000000	2.197440	-0.030520	-0.549360	0.022888	0.978269	-0.087646	-1.000000	-1.000000	-1.000000	-1.000000	-1.000000	-1.000000	-1.000000	146.827586	0.000000	-1.000000	-1.000000	328664.000000	1772311315.839355
-16676.100000	-15816.420000	-19922.715000	-12670.470000	0.000000	0.000000	0.000000	0.000000	-8.918181	11.514578	-9.056323	-8.968140	-0.000000	0.000000	0.000000	0.000000	2.197440	-0.030520	-0.549360	0.022888	0.978269	-0.087646	-1.000000	-1.000000	-1.000000	-1.000000	-1.000000	-1.000000	-1.000000	146.827586	0.000000	-1.000000	-1.000000	328665.000000	1772311315.846113
-16681.005000	-15814.485000	-19926.630000	-12673.440000	0.000000	0.000000	0.000000	0.000000	-8.068039	3.484664	-7.302626	-6.838827	-0.000000	0.000000	0.000000	0.000000	2.197440	-0.030520	-0.549360	0.022888	0.978269	-0.087646	-1.000000	-1.000000	-1.000000	-1.000000	-1.000000	-1.000000	-1.000000	146.827586	0.000000	-1.000000	-1.000000	328666.000000	1772311315.846116
-16676.820000	-15792.390000	-19924.695000	-12673.080000	0.000000	0.000000	0.000000	0.000000	-4.227115	-4.166279	-3.054476	-2.583669	-0.000000	0.000000	0.000000	0.000000	2.197440	-0.030520	-0.549360	0.022888	0.978269	-0.087646	-1.000000	-1.000000	-1.000000	-1.000000	-1.000000	-1.000000	-1.000000	146.827586	0.000000	-1.000000	-1.000000	328667.000000	1772311315.847391
-16675.920000	-15756.660000	-19926.315000	-12675.195000	0.000000	0.000000	0.000000	0.000000	1.330719	-5.107474	2.023960	2.266019	-0.000000	0.000000	0.000000	0.000000	2.197440	-0.030520	-0.549360	0.022888	0.978269	-0.087646	-1.000000	-1.000000	-1.000000	-1.000000	-1.000000	-1.000000	-1.000000	146.827586	0.000000	-1.000000	-1.000000	328668.000000	1772311315.847393
-16678.845000	-15744.510000	-19930.410000	-12676.815000	0.000000	0.000000	0.000000	0.000000	6.280549	1.815507	5.799402	5.801542	-0.000000	0.000000	0.000000	0.000000	2.197440	-0.030520	-0.549360	0.022888	0.978269	-0.087646	-1.000000	-1.000000	-1.000000	-1.000000	-1.000000	-1.000000	-1.000000	146.827586	0.000000	-1.000000	-1.000000	328669.000000	1772311315.851358
-16680.870000	-15742.935000	-19932.705000	-12677.355000	0.000000	0.000000	0.000000	0.000000	8.506494	10.587196	6.891003	6.934531	-0.000000	0.000000	0.000000	0.000000	2.197440	-0.030520	-0.549360	0.022888	0.978269	-0.087646	-1.000000	-1.000000	-1.000000	-1.000000	-1.000000	-1.000000	-1.000000	146.827586	0.000000	-1.000000	-1.000000	328670.000000	1772311315.851361
-16690.545000	-15731.145000	-19939.590000	-12684.555000	0.000000	0.000000	0.000000	0.000000	7.187321	13.308586	5.295330	5.708392	-0.000000	0.000000	0.000000	0.000000	2.197440	-0.030520	-0.549360	0.022888	0.978269	-0.087646	-1.000000	-1.000000	-1.000000	-1.000000	-1.000000	-1.000000	-1.000000	146.827586	0.000000	-1.000000	-1.000000	328671.000000	1772311315.855375
-16680.645000	-15713.370000	-19929.735000	-12679.020000	0.000000	0.000000	0.000000	0.000000	3.420511	7.724045	2.401206	3.049375	-0.000000	0.000000	0.000000	0.000000	2.197440	-0.030520	-0.549360	0.022888	0.978269	-0.087646	-1.000000	-1.000000	-1.000000	-1.000000	-1.000000	-1.000000	-1.000000	146.827586	0.000000	-1.000000	-1.000000	328672.000000	1772311315.855379
-16661.610000	-15691.815000	-19909.035000	-12657.780000	0.000000	0.000000	0.000000	0.000000	0.107405	-1.680869	0.606337	0.851352	-0.000000	0.000000	0.000000	0.000000	1.480220	0.274680	-0.579880	0.023132	0.978513	-0.087463	-1.000000	-1.000000	-1.000000	-1.000000	-1.000000	-1.000000	-1.000000	146.827586	0.000000	-1.000000	-1.000000	328673.000000	1772311315.859320
-16669.755000	-15680.790000	-19915.335000	-12661.200000	0.000000	0.000000	0.000000	0.000000	-0.437032	-8.993917	1.351802	0.800920	-0.000000	0.000000	0.000000	0.000000	1.480220	0.274680	-0.579880	0.023132	0.978513	-0.087463	-1.000000	-1.000000	-1.000000	-1.000000	-1.000000	-1.000000	-1.000000	146.827586	0.000000	-1.000000	-1.000000	328674.000000	1772311315.859324
-16691.130000	-15682.275000	-19938.915000	-12684.375000	0.000000	0.000000	0.000000	0.000000	0.262780	-11.865968	2.471128	1.545297	-0.000000	0.000000	0.000000	0.000000	1.480220	0.274680	-0.579880	0.023132	0.978513	-0.087463	-1.000000	-1.000000	-1.000000	-1.000000	-1.000000	-1.000000	-1.000000	146.827586	0.000000	-1.000000	-1.000000	328675.000000	1772311315.863254
-16685.730000	-15663.015000	-19936.620000	-12683.115000	0.000000	0.000000	0.000000	0.000000	-1.053199	-11.416829	0.440143	-0.124432	-0.000000	0.000000	0.000000	0.000000	1.480220	0.274680	-0.579880	0.023132	0.978513	-0.087463	-1.000000	-1.000000	-1.000000	-1.000000	-1.000000	-1.000000	-1.000000	146.827586	0.000000	-1.000000	-1.000000	328676.000000	1772311315.863258
-16680.510000	-15638.130000	-19932.165000	-12677.535000	0.000000	0.000000	0.000000	0.000000	-4.049458	-8.642233	-4.157332	-4.080515	-0.000000	0.000000	0.000000	0.000000	1.480220	0.274680	-0.579880	0.023132	0.978513	-0.087463	-1.000000	-1.000000	-1.000000	-1.000000	-1.000000	-1.000000	-1.000000	146.827586	0.000000	-1.000000	-1.000000	328677.000000	1772311315.867345
-16695.720000	-15624.270000	-19949.175000	-12692.430000	0.000000	0.000000	0.000000	0.000000	-5.659475	-3.626912	-7.411716	-6.885001	-0.000000	0.000000	0.000000	0.000000	1.480220	0.274680	-0.579880	0.023132	0.978513	-0.087463	-1.000000	-1.000000	-1.000000	-1.000000	-1.000000	-1.000000	-1.000000	146.827586	0.000000	-1.000000	-1.000000	328678.000000	1772311315.867348
-16690.590000	-15604.380000	-19945.305000	-12688.470000	0.000000	0.000000	0.000000	0.000000	-4.706169	2.251899	-7.253224	-6.556780	-0.000000	0.000000	0.000000	0.000000	1.480220	0.274680	-0.579880	0.023132	0.978513	-0.087463	-1.000000	-1.000000	-1.000000	-1.000000	-1.000000	-1.000000	-1.000000	146.827586	0.000000	-1.000000	-1.000000	328679.000000	1772311315.871371
-16667.865000	-15572.565000	-19921.005000	-12666.150000	0.000000	0.000000	0.000000	0.000000	-1.593571	6.769482	-3.724972	-3.160247	-0.000000	0.000000	0.000000	0.000000	1.480220	0.274680	-0.579880	0.023132	0.978513	-0.087463	-1.000000	-1.000000	-1.000000	-1.000000	-1.000000	-1.000000	-1.000000	146.827586	0.000000	-1.000000	-1.000000	328680.000000	1772311315.871374
-16659.540000	-15562.215000	-19909.170000	-12655.215000	0.000000	0.000000	0.000000	0.000000	3.406035	8.667842	2.739430	2.787947	-0.000000	0.000000	0.000000	0.000000	1.480220	0.274680	-0.579880	0.023132	0.978513	-0.087463	-1.000000	-1.000000	-1.000000	-1.000000	-1.000000	-1.000000	-1.000000	146.827586	0.000000	-1.000000	-1.000000	328681.000000	1772311315.876862
-16690.905000	-15557.400000	-19940.760000	-12684.870000	0.000000	0.000000	0.000000	0.000000	7.853446	7.131445	9.112973	8.461515	-0.000000	0.000000	0.000000	0.000000	1.480220	0.274680	-0.579880	0.023132	0.978513	-0.087463	-1.000000	-1.000000	-1.000000	-1.000000	-1.000000	-1.000000	-1.000000	146.827586	0.000000	-1.000000	-1.000000	328682.000000	1772311315.876865
-16703.910000	-15550.425000	-19957.320000	-12700.845000	0.000000	0.000000	0.000000	0.000000	7.114291	1.894007	9.735932	8.726857	-0.000000	0.000000	0.000000	0.000000	1.632820	0.183120	-0.473060	0.022400	0.978330	-0.086487	-1.000000	-1.000000	-1.000000	-1.000000	-1.000000	-1.000000	-1.000000	146.827586	0.000000	-1.000000	-1.000000	328683.000000	1772311315.879435
-16691.985000	-15547.500000	-19945.755000	-12691.845000	0.000000	0.000000	0.000000	0.000000	0.503977	-5.190324	3.030280	2.250639	-0.000000	0.000000	0.000000	0.000000	1.632820	0.183120	-0.473060	0.022400	0.978330	-0.086487	-1.000000	-1.000000	-1.000000	-1.000000	-1.000000	-1.000000	-1.000000	146.827586	0.000000	-1.000000	-1.000000	328684.000000	1772311315.879437
-16687.890000	-15539.715000	-19943.055000	-12687.975000	0.000000	0.000000	0.000000	0.000000	-6.255463	-10.695610	-5.175067	-5.454970	-0.000000	0.000000	0.000000	0.000000	1.632820	0.183120	-0.473060	0.022400	0.978330	-0.086487	-1.000000	-1.000000	-1.000000	-1.000000	-1.000000	-1.000000	-1.000000	146.827586	0.000000	-1.000000	-1.000000	328685.000000	1772311315.883443
-16684.110000	-15525.270000	-19939.005000	-12682.935000	0.000000	0.000000	0.000000	0.000000	-7.525425	-11.759766	-8.217993	-8.058022	-0.000000	0.000000	0.000000	0.000000	1.632820	0.183120	-0.473060	0.022400	0.978330	-0.086487	-1.000000	-1.000000	-1.000000	-1.000000	-1.000000	-1.000000	-1.000000	146.827586	0.000000	-1.000000	-1.000000	328686.000000	1772311315.883446
-16685.010000	-15510.015000	-19941.165000	-12686.040000	0.000000	0.000000	0.000000	0.000000	-3.310783	-7.574193	-5.085727	-4.600806	-0.000000	0.000000	0.000000	0.000000	1.632820	0.183120	-0.473060	0.022400	0.978330	-0.086487	-1.000000	-1.000000	-1.000000	-1.000000	-1.000000	-1.000000	-1.000000	146.827586	0.000000	-1.000000	-1.000000	328687.000000	1772311315.887402
-16686.585000	-15515.505000	-19942.515000	-12688.335000	0.000000	0.000000	0.000000	0.000000	2.300058	-0.300042	0.500576	1.117786	-0.000000	0.000000	0.000000	0.000000	1.632820	0.183120	-0.473060	0.022400	0.978330	-0.086487	-1.000000	-1.000000	-1.000000	-1.000000	-1.000000	-1.000000	-1.000000	146.827586	0.000000	-1.000000	-1.000000	328688.000000	1772311315.887405
-16694.460000	-15511.140000	-19946.790000	-12693.690000	0.000000	0.000000	0.000000	0.000000	5.293384	5.759593	4.337383	4.773689	-0.000000	0.000000	0.000000	0.000000	1.632820	0.183120	-0.473060	0.022400	0.978330	-0.086487	-1.000000	-1.000000	-1.000000	-1.000000	-1.000000	-1.000000	-1.000000	146.827586	0.000000	-1.000000	-1.000000	328689.000000	1772311315.891403
-16674.840000	-15506.370000	-19925.055000	-12674.430000	0.000000	0.000000	0.000000	0.000000	4.653205	7.642649	5.021924	5.007856	-0.000000	0.000000	0.000000	0.000000	1.632820	0.183120	-0.473060	0.022400	0.978330	-0.086487	-1.000000	-1.000000	-1.000000	-1.000000	-1.000000	-1.000000	-1.000000	146.827586	0.000000	-1.000000	-1.000000	328690.000000	1772311315.891406
-16658.055000	-15516.540000	-19911.195000	-12657.825000	0.000000	0.000000	0.000000	0.000000	2.814136	5.634835	4.362036	3.899111	-0.000000	-0.000000	0.000000	0.000000	1.632820	0.183120	-0.473060	0.022400	0.978330	-0.086487	-1.000000	-1.000000	-1.000000	-1.000000	-1.000000	-1.000000	-1.000000	146.827586	0.000000	-1.000000	-1.000000	328691.000000	1772311315.895785
-16692.390000	-15529.590000	-19945.665000	-12690.000000	0.000000	0.000000	0.000000	0.000000	1.703956	1.410980	3.502994	3.037262	-0.000000	-0.000000	0.000000	0.000000	1.632820	0.183120	-0.473060	0.022400	0.978330	-0.086487	-1.000000	-1.000000	-1.000000	-1.000000	-1.000000	-1.000000	-1.000000	146.827586	0.000000	-1.000000	-1.000000	328692.000000	1772311315.895789
-16699.365000	-15524.370000	-19952.415000	-12693.195000	0.000000	0.000000	0.000000	0.000000	-0.496325	-3.048209	0.427184	0.648714	-0.000000	-0.000000	0.000000	0.000000	2.472120	-0.259420	-0.564620	0.022339	0.976682	-0.085449	-1.000000	-1.000000	-1.000000	-1.000000	-1.000000	-1.000000	-1.000000	146.965517	0.000000	-1.000000	-1.000000	328693.000000	1772311315.899456
-16677.630000	-15527.070000	-19932.255000	-12672.990000	0.000000	0.000000	0.000000	0.000000	-4.608365	-5.176645	-5.046608	-3.816499	-0.000000	-0.000000	0.000000	0.000000	2.472120	-0.259420	-0.564620	0.022339	0.976682	-0.085449	-1.000000	-1.000000	-1.000000	-1.000000	-1.000000	-1.000000	-1.000000	146.965517	0.000000	-1.000000	-1.000000	328694.000000	1772311315.899458
-16666.920000	-15530.490000	-19923.075000	-12665.340000	0.000000	0.000000	0.000000	0.000000	-6.718025	-3.583954	-8.230663	-6.500798	-0.000000	-0.000000	0.000000	0.000000	2.472120	-0.259420	-0.564620	0.022339	0.976682	-0.085449	-1.000000	-1.000000	-1.000000	-1.000000	-1.000000	-1.000000	-1.000000	146.965517	0.000000	-1.000000	-1.000000	328695.000000	1772311315.903463
-16669.440000	-15537.780000	-19924.155000	-12667.995000	0.000000	0.000000	0.000000	0.000000	-3.840987	0.337929	-5.713803	-4.605356	-0.000000	-0.000000	0.000000	0.000000	2.472120	-0.259420	-0.564620	0.022339	0.976682	-0.085449	-1.000000	-1.000000	-1.000000	-1.000000	-1.000000	-1.000000	-1.000000	146.965517	0.000000	-1.000000	-1.000000	328696.000000	1772311315.903466
-16674.120000	-15549.075000	-19926.090000	-12672.450000	0.000000	0.000000	0.000000	0.000000	1.423718	3.753105	0.074824	-0.379077	-0.000000	-0.000000	0.000000	0.000000	2.472120	-0.259420	-0.564620	0.022339	0.976682	-0.085449	-1.000000	-1.000000	-1.000000	-1.000000	-1.000000	-1.000000	-1.000000	146.965517	0.000000	-1.000000	-1.000000	328697.000000	1772311315.908957
-16682.265000	-15513.120000	-19932.480000	-12678.525000	0.000000	0.000000	0.000000	0.000000	4.332938	5.481060	4.255829	2.176812	-0.000000	-0.000000	0.000000	0.000000	2.472120	-0.259420	-0.564620	0.022339	0.976682	-0.085449	-1.000000	-1.000000	-1.000000	-1.000000	-1.000000	-1.000000	-1.000000	146.965517	0.000000	-1.000000	-1.000000	328698.000000	1772311315.908959
-16683.480000	-15488.190000	-19935.225000	-12679.155000	0.000000	0.000000	0.000000	0.000000	2.983813	7.427727	4.280408	1.529963	-0.000000	-0.000000	0.000000	0.000000	2.472120	-0.259420	-0.564620	0.022339	0.976682	-0.085449	-1.000000	-1.000000	-1.000000	-1.000000	-1.000000	-1.000000	-1.000000	146.965517	0.000000	-1.000000	-1.000000	328699.000000	1772311315.911455
-16687.440000	-15486.840000	-19941.210000	-12685.365000	0.000000	0.000000	0.000000	0.000000	-0.762647	10.647908	1.106246	-0.887759	-0.000000	-0.000000	0.000000	0.000000	2.472120	-0.259420	-0.564620	0.022339	0.976682	-0.085449	-1.000000	-1.000000	-1.000000	-1.000000	-1.000000	-1.000000	-1.000000	146.965517	0.000000	-1.000000	-1.000000	328700.000000	1772311315.911458
-16681.500000	-15475.455000	-19935.225000	-12681.090000	0.000000	0.000000	0.000000	0.000000	-3.617290	11.986234	-2.376765	-2.704739	-0.000000	-0.000000	0.000000	0.000000	2.472120	-0.259420	-0.564620	0.022339	0.976682	-0.085449	-1.000000	-1.000000	-1.000000	-1.000000	-1.000000	-1.000000	-1.000000	146.965517	0.000000	-1.000000	-1.000000	328701.000000	1772311315.915276
-16681.590000	-15443.415000	-19935.900000	-12681.675000	0.000000	0.000000	0.000000	0.000000	-3.488497	8.550420	-3.564411	-2.402822	-0.000000	-0.000000	0.000000	0.000000	2.472120	-0.259420	-0.564620	0.022339	0.976682	-0.085449	-1.000000	-1.000000	-1.000000	-1.000000	-1.000000	-1.000000	-1.000000	146.965517	0.000000	-1.000000	-1.000000	328702.000000	1772311315.915279
-16682.670000	-15429.330000	-19940.895000	-12688.830000	0.000000	0.000000	0.000000	0.000000	-0.757438	1.994900	-1.993767	-0.251081	-0.000000	-0.000000	0.000000	0.000000	2.929920	-0.091560	-0.503580	0.022522	0.976743	-0.085449	-1.000000	-1.000000	-1.000000	-1.000000	-1.000000	-1.000000	-1.000000	146.965517	0.000000	-1.000000	-1.000000	328703.000000	1772311315.919549
-16682.580000	-15424.290000	-19940.715000	-12691.395000	0.000000	0.000000	0.000000	0.000000	2.401066	-4.562520	0.623087	1.973462	-0.000000	-0.000000	0.000000	0.000000	2.929920	-0.091560	-0.503580	0.022522	0.976743	-0.085449	-1.000000	-1.000000	-1.000000	-1.000000	-1.000000	-1.000000	-1.000000	146.965517	0.000000	-1.000000	-1.000000	328704.000000	1772311315.919552
-16690.095000	-15401.790000	-19946.070000	-12693.870000	0.000000	0.000000	0.000000	0.000000	3.912356	-9.635860	2.381023	2.825897	-0.000000	-0.000000	0.000000	0.000000	2.929920	-0.091560	-0.503580	0.022522	0.976743	-0.085449	-1.000000	-1.000000	-1.000000	-1.000000	-1.000000	-1.000000	-1.000000	146.965517	0.000000	-1.000000	-1.000000	328705.000000	1772311315.923479
-16688.115000	-15412.815000	-19940.130000	-12683.205000	0.000000	0.000000	0.000000	0.000000	3.104929	-12.629829	2.686928	2.559504	-0.000000	-0.000000	0.000000	0.000000	2.929920	-0.091560	-0.503580	0.022522	0.976743	-0.085449	-1.000000	-1.000000	-1.000000	-1.000000	-1.000000	-1.000000	-1.000000	146.965517	0.000000	-1.000000	-1.000000	328706.000000	1772311315.923481
-16677.630000	-15437.070000	-19927.080000	-12668.670000	0.000000	0.000000	0.000000	0.000000	1.156359	-14.134336	2.421800	2.643767	-0.000000	-0.000000	0.000000	0.000000	2.929920	-0.091560	-0.503580	0.022522	0.976743	-0.085449	-1.000000	-1.000000	-1.000000	-1.000000	-1.000000	-1.000000	-1.000000	146.965517	0.000000	-1.000000	-1.000000	328707.000000	1772311315.929014
-16669.350000	-15441.975000	-19918.215000	-12663.810000	0.000000	0.000000	0.000000	0.000000	0.180132	-15.319079	2.870688	3.886949	-0.000000	-0.000000	0.000000	0.000000	2.929920	-0.091560	-0.503580	0.022522	0.976743	-0.085449	-1.000000	-1.000000	-1.000000	-1.000000	-1.000000	-1.000000	-1.000000	146.965517	0.000000	-1.000000	-1.000000	328708.000000	1772311315.929017
-16670.565000	-15448.725000	-19920.780000	-12664.980000	0.000000	0.000000	0.000000	0.000000	0.877377	-15.012685	3.800894	4.958442	-0.000000	-0.000000	0.000000	0.000000	2.929920	-0.091560	-0.503580	0.022522	0.976743	-0.085449	-1.000000	-1.000000	-1.000000	-1.000000	-1.000000	-1.000000	-1.000000	146.965517	0.000000	-1.000000	-1.000000	328709.000000	1772311315.933427
-16681.005000	-15464.790000	-19934.685000	-12678.435000	0.000000	0.000000	0.000000	0.000000	1.540395	-10.827041	3.128236	3.429409	-0.000000	-0.000000	0.000000	0.000000	2.929920	-0.091560	-0.503580	0.022522	0.976743	-0.085449	-1.000000	-1.000000	-1.000000	-1.000000	-1.000000	-1.000000	-1.000000	146.965517	0.000000	-1.000000	-1.000000	328710.000000	1772311315.933431
-16677.945000	-15465.780000	-19932.930000	-12676.680000	0.000000	0.000000	0.000000	0.000000	0.230749	-2.787965	-0.554990	-1.426765	-0.000000	-0.000000	0.000000	0.000000	2.929920	-0.091560	-0.503580	0.022522	0.976743	-0.085449	-1.000000	-1.000000	-1.000000	-1.000000	-1.000000	-1.000000	-1.000000	146.965517	0.000000	-1.000000	-1.000000	328711.000000	1772311315.935565
-16662.195000	-15484.275000	-19916.505000	-12662.370000	0.000000	0.000000	0.000000	0.000000	-2.281992	6.465040	-5.225292	-6.859646	-0.000000	-0.000000	0.000000	0.000000	2.929920	-0.091560	-0.503580	0.022522	0.976743	-0.085449	-1.000000	-1.000000	-1.000000	-1.000000	-1.000000	-1.000000	-1.000000	146.965517	0.000000	-1.000000	-1.000000	328712.000000	1772311315.935568
-16664.940000	-15501.825000	-19918.305000	-12666.735000	0.000000	0.000000	0.000000	0.000000	-3.357618	13.326167	-7.006210	-8.833879	-0.000000	-0.000000	0.000000	0.000000	3.525060	-0.015260	-0.686700	0.023376	0.976255	-0.086548	-1.000000	-1.000000	-1.000000	-1.000000	-1.000000	-1.000000	-1.000000	146.965517	0.000000	-1.000000	-1.000000	328713.000000	1772311315.939603
-16684.605000	-15508.170000	-19934.505000	-12680.640000	0.000000	0.000000	0.000000	0.000000	-2.584827	15.328737	-5.093909	-6.658385	-0.000000	-0.000000	0.000000	0.000000	3.525060	-0.015260	-0.686700	0.023376	0.976255	-0.086548	-1.000000	-1.000000	-1.000000	-1.000000	-1.000000	-1.000000	-1.000000	146.965517	0.000000	-1.000000	-1.000000	328714.000000	1772311315.939606
-16692.435000	-15494.535000	-19942.020000	-12686.895000	0.000000	0.000000	0.000000	0.000000	-2.316551	13.435478	-2.505945	-3.315044	-0.000000	-0.000000	0.000000	0.000000	3.525060	-0.015260	-0.686700	0.023376	0.976255	-0.086548	-1.000000	-1.000000	-1.000000	-1.000000	-1.000000	-1.000000	-1.000000	146.965517	0.000000	-1.000000	-1.000000	328715.000000	1772311315.943704
-16681.635000	-15485.310000	-19931.220000	-12678.345000	0.000000	0.000000	0.000000	0.000000	-3.318117	11.051648	-1.315406	-0.979450	-0.000000	-0.000000	0.000000	0.000000	3.525060	-0.015260	-0.686700	0.023376	0.976255	-0.086548	-1.000000	-1.000000	-1.000000	-1.000000	-1.000000	-1.000000	-1.000000	146.965517	0.000000	-1.000000	-1.000000	328716.000000	1772311315.943708
-16680.735000	-15473.565000	-19932.210000	-12680.865000	0.000000	0.000000	0.000000	0.000000	-3.229276	10.128308	-0.338238	0.937585	-0.000000	-0.000000	0.000000	0.000000	3.525060	-0.015260	-0.686700	0.023376	0.976255	-0.086548	-1.000000	-1.000000	-1.000000	-1.000000	-1.000000	-1.000000	-1.000000	146.965517	0.000000	-1.000000	-1.000000	328717.000000	1772311315.947682
-16676.550000	-15456.465000	-19931.265000	-12680.055000	0.000000	0.000000	0.000000	0.000000	-0.350674	9.672876	1.757850	3.216304	-0.000000	-0.000000	0.000000	0.000000	3.525060	-0.015260	-0.686700	0.023376	0.976255	-0.086548	-1.000000	-1.000000	-1.000000	-1.000000	-1.000000	-1.000000	-1.000000	146.965517	0.000000	-1.000000	-1.000000	328718.000000	1772311315.947685
-16672.860000	-15448.770000	-19927.530000	-12675.690000	0.000000	0.000000	0.000000	0.000000	3.991073	7.697347	4.239797	5.232997	-0.000000	-0.000000	0.000000	0.000000	3.525060	-0.015260	-0.686700	0.023376	0.976255	-0.086548	-1.000000	-1.000000	-1.000000	-1.000000	-1.000000	-1.000000	-1.000000	146.965517	0.000000	-1.000000	-1.000000	328719.000000	1772311315.951379
-16694.640000	-15459.840000	-19927.395000	-12674.430000	0.000000	0.000000	0.000000	0.000000	6.742764	2.727438	5.638922	6.071231	-0.000000	-0.000000	0.000000	0.000000	3.525060	-0.015260	-0.686700	0.023376	0.976255	-0.086548	-1.000000	-1.000000	-1.000000	-1.000000	-1.000000	-1.000000	-1.000000	146.965517	0.000000	-1.000000	-1.000000	328720.000000	1772311315.951383
-16718.445000	-15464.655000	-19927.620000	-12673.170000	0.000000	0.000000	0.000000	0.000000	5.041464	-5.457770	5.122722	5.317944	-0.000000	-0.000000	0.000000	0.000000	3.525060	-0.015260	-0.686700	0.023376	0.976255	-0.086548	-1.000000	-1.000000	-1.000000	-1.000000	-1.000000	-1.000000	-1.000000	146.965517	0.000000	-1.000000	-1.000000	328721.000000	1772311315.955646
-16695.945000	-15463.440000	-19932.705000	-12676.905000	0.000000	0.000000	0.000000	0.000000	-0.601929	-14.420505	2.717997	3.024642	-0.000000	-0.000000	0.000000	0.000000	3.525060	-0.015260	-0.686700	0.023376	0.976255	-0.086548	-1.000000	-1.000000	-1.000000	-1.000000	-1.000000	-1.000000	-1.000000	146.965517	0.000000	-1.000000	-1.000000	328722.000000	1772311315.955649
-16667.370000	-15472.665000	-19928.025000	-12674.520000	0.000000	0.000000	0.000000	0.000000	-4.562104	-19.846342	-0.630561	-0.188087	-0.000000	-0.000000	0.000000	0.000000	2.563680	0.137340	-0.717220	0.023132	0.977231	-0.087951	-1.000000	-1.000000	-1.000000	-1.000000	-1.000000	-1.000000	-1.000000	146.965517	0.000000	-1.000000	-1.000000	328723.000000	1772311315.959595
-16671.870000	-15479.100000	-19930.770000	-12680.505000	0.000000	0.000000	0.000000	0.000000	-2.018214	-19.123545	-3.344247	-3.202827	-0.000000	-0.000000	0.000000	0.000000	2.563680	0.137340	-0.717220	0.023132	0.977231	-0.087951	-1.000000	-1.000000	-1.000000	-1.000000	-1.000000	-1.000000	-1.000000	146.965517	0.000000	-1.000000	-1.000000	328724.000000	1772311315.959598
-16668.450000	-15468.705000	-19936.440000	-12687.120000	0.000000	0.000000	0.000000	0.000000	4.428734	-12.720217	-4.411918	-5.141482	-0.000000	-0.000000	0.000000	0.000000	2.563680	0.137340	-0.717220	0.023132	0.977231	-0.087951	-1.000000	-1.000000	-1.000000	-1.000000	-1.000000	-1.000000	-1.000000	146.965517	0.000000	-1.000000	-1.000000	328725.000000	1772311315.963698
-16662.915000	-15454.665000	-19930.140000	-12679.605000	0.000000	0.000000	0.000000	0.000000	8.323192	-2.571712	-3.929951	-5.556387	-0.000000	-0.000000	0.000000	0.000000	2.563680	0.137340	-0.717220	0.023132	0.977231	-0.087951	-1.000000	-1.000000	-1.000000	-1.000000	-1.000000	-1.000000	-1.000000	146.965517	0.000000	-1.000000	-1.000000	328726.000000	1772311315.963701
-16648.920000	-15452.955000	-19923.120000	-12671.370000	0.000000	0.000000	0.000000	0.000000	6.868637	8.358303	-2.113767	-3.852783	-0.000000	-0.000000	0.000000	0.000000	2.563680	0.137340	-0.717220	0.023132	0.977231	-0.087951	-1.000000	-1.000000	-1.000000	-1.000000	-1.000000	-1.000000	-1.000000	146.965517	0.000000	-1.000000	-1.000000	328727.000000	1772311315.967649
-16651.350000	-15446.565000	-19922.625000	-12671.685000	0.000000	0.000000	0.000000	0.000000	1.922763	15.952318	0.712781	-0.125931	-0.000000	-0.000000	0.000000	0.000000	2.563680	0.137340	-0.717220	0.023132	0.977231	-0.087951	-1.000000	-1.000000	-1.000000	-1.000000	-1.000000	-1.000000	-1.000000	146.965517	0.000000	-1.000000	-1.000000	328728.000000	1772311315.967652
-16664.265000	-15454.845000	-19916.550000	-12667.140000	0.000000	0.000000	0.000000	0.000000	-3.893624	16.943953	3.348644	3.796054	-0.000000	-0.000000	0.000000	0.000000	2.563680	0.137340	-0.717220	0.023132	0.977231	-0.087951	-1.000000	-1.000000	-1.000000	-1.000000	-1.000000	-1.000000	-1.000000	146.965517	0.000000	-1.000000	-1.000000	328729.000000	1772311315.971690
-16669.890000	-15480.045000	-19912.905000	-12660.480000	0.000000	0.000000	0.000000	0.000000	-9.163298	10.693937	4.487282	5.808945	-0.000000	-0.000000	0.000000	0.000000	2.563680	0.137340	-0.717220	0.023132	0.977231	-0.087951	-1.000000	-1.000000	-1.000000	-1.000000	-1.000000	-1.000000	-1.000000	146.965517	0.000000	-1.000000	-1.000000	328730.000000	1772311315.971693
-16648.155000	-15478.245000	-19899.495000	-12648.195000	0.000000	0.000000	0.000000	0.000000	-11.975758	-0.276144	3.941959	5.475509	-0.000000	-0.000000	0.000000	0.000000	2.563680	0.137340	-0.717220	0.023132	0.977231	-0.087951	-1.000000	-1.000000	-1.000000	-1.000000	-1.000000	-1.000000	-1.000000	146.965517	0.000000	-1.000000	-1.000000	328731.000000	1772311315.975886
-16643.520000	-15477.030000	-19903.995000	-12652.740000	0.000000	0.000000	0.000000	0.000000	-9.740873	-10.241077	2.358325	3.574472	-0.000000	-0.000000	0.000000	0.000000	2.563680	0.137340	-0.717220	0.023132	0.977231	-0.087951	-1.000000	-1.000000	-1.000000	-1.000000	-1.000000	-1.000000	-1.000000	146.965517	0.000000	-1.000000	-1.000000	328732.000000	1772311315.975888
-16664.265000	-15467.850000	-19936.665000	-12686.175000	0.000000	0.000000	0.000000	0.000000	-3.149417	-13.419097	-0.528838	0.004834	-0.000000	-0.000000	0.000000	0.000000	2.044840	-0.091560	-0.946120	0.023498	0.977720	-0.088012	-1.000000	-1.000000	-1.000000	-1.000000	-1.000000	-1.000000	-1.000000	146.965517	0.000000	-1.000000	-1.000000	328733.000000	1772311315.979616
-16668.495000	-15459.480000	-19930.590000	-12679.605000	0.000000	0.000000	0.000000	0.000000	2.876920	-8.453733	-5.346403	-5.605334	-0.000000	-0.000000	0.000000	0.000000	2.044840	-0.091560	-0.946120	0.023498	0.977720	-0.088012	-1.000000	-1.000000	-1.000000	-1.000000	-1.000000	-1.000000	-1.000000	146.965517	0.000000	-1.000000	-1.000000	328734.000000	1772311315.979618
-16663.545000	-15453.990000	-19910.880000	-12660.210000	0.000000	0.000000	0.000000	0.000000	4.843348	0.972013	-9.421707	-10.250686	-0.000000	-0.000000	0.000000	0.000000	2.044840	-0.091560	-0.946120	0.023498	0.977720	-0.088012	-1.000000	-1.000000	-1.000000	-1.000000	-1.000000	-1.000000	-1.000000	146.965517	0.000000	-1.000000	-1.000000	328735.000000	1772311315.983735
-16671.330000	-15472.395000	-19917.945000	-12665.430000	0.000000	0.000000	0.000000	0.000000	3.859792	8.733768	-8.313165	-9.261301	-0.000000	-0.000000	0.000000	0.000000	2.044840	-0.091560	-0.946120	0.023498	0.977720	-0.088012	-1.000000	-1.000000	-1.000000	-1.000000	-1.000000	-1.000000	-1.000000	146.965517	0.000000	-1.000000	-1.000000	328736.000000	1772311315.983738
-16675.290000	-15489.855000	-19921.680000	-12668.490000	0.000000	0.000000	0.000000	0.000000	2.328329	9.737510	-2.196207	-2.790948	-0.000000	-0.000000	0.000000	0.000000	2.044840	-0.091560	-0.946120	0.023498	0.977720	-0.088012	-1.000000	-1.000000	-1.000000	-1.000000	-1.000000	-1.000000	-1.000000	146.965517	0.000000	-1.000000	-1.000000	328737.000000	1772311315.987748
-16674.930000	-15509.835000	-19922.670000	-12669.750000	0.000000	0.000000	0.000000	0.000000	1.357643	3.307184	4.217828	4.211285	-0.000000	-0.000000	0.000000	0.000000	2.044840	-0.091560	-0.946120	0.023498	0.977720	-0.088012	-1.000000	-1.000000	-1.000000	-1.000000	-1.000000	-1.000000	-1.000000	146.965517	0.000000	-1.000000	-1.000000	328738.000000	1772311315.987751
-16679.385000	-15534.720000	-19930.995000	-12680.910000	0.000000	0.000000	0.000000	0.000000	1.187749	-6.372861	7.109111	7.473783	-0.000000	-0.000000	0.000000	0.000000	2.044840	-0.091560	-0.946120	0.023498	0.977720	-0.088012	-1.000000	-1.000000	-1.000000	-1.000000	-1.000000	-1.000000	-1.000000	146.965517	0.000000	-1.000000	-1.000000	328739.000000	1772311315.991634
-16667.010000	-15561.990000	-19920.060000	-12671.145000	0.000000	0.000000	0.000000	0.000000	1.766611	-13.738881	6.118734	6.294048	-0.000000	-0.000000	0.000000	0.000000	2.044840	-0.091560	-0.946120	0.023498	0.977720	-0.088012	-1.000000	-1.000000	-1.000000	-1.000000	-1.000000	-1.000000	-1.000000	146.965517	0.000000	-1.000000	-1.000000	328740.000000	1772311315.991636
-16652.700000	-15562.980000	-19907.865000	-12659.895000	0.000000	0.000000	0.000000	0.000000	3.184358	-14.944236	3.704795	3.272034	-0.000000	-0.000000	0.000000	0.000000	2.044840	-0.091560	-0.946120	0.023498	0.977720	-0.088012	-1.000000	-1.000000	-1.000000	-1.000000	-1.000000	-1.000000	-1.000000	146.965517	0.000000	-1.000000	-1.000000	328741.000000	1772311315.995717
-16646.355000	-15557.850000	-19900.800000	-12652.020000	0.000000	0.000000	0.000000	0.000000	5.200921	-8.495441	2.529437	1.628527	-0.000000	-0.000000	0.000000	0.000000	2.044840	-0.091560	-0.946120	0.023498	0.977720	-0.088012	-1.000000	-1.000000	-1.000000	-1.000000	-1.000000	-1.000000	-1.000000	146.965517	0.000000	-1.000000	-1.000000	328742.000000	1772311315.995721
-16657.965000	-15567.570000	-19915.245000	-12663.630000	0.000000	0.000000	0.000000	0.000000	6.004665	3.643006	2.442790	1.734028	-0.000000	-0.000000	0.000000	0.000000	2.945180	-0.274680	-0.549360	0.022339	0.977842	-0.085022	-1.000000	-1.000000	-1.000000	-1.000000	-1.000000	-1.000000	-1.000000	146.965517	0.000000	-1.000000	-1.000000	328743.000000	1772311315.999675
-16658.280000	-15556.095000	-19915.155000	-12659.490000	0.000000	0.000000	0.000000	0.000000	3.334228	15.841599	1.067546	1.330827	-0.000000	-0.000000	0.000000	0.000000	2.945180	-0.274680	-0.549360	0.022339	0.977842	-0.085022	-1.000000	-1.000000	-1.000000	-1.000000	-1.000000	-1.000000	-1.000000	146.965517	0.000000	-1.000000	-1.000000	328744.000000	1772311315.999677
-16665.705000	-15543.765000	-19918.755000	-12663.945000	0.000000	0.000000	0.000000	0.000000	-2.540055	22.713160	-2.431551	-0.884836	-0.000000	-0.000000	0.000000	0.000000	2.945180	-0.274680	-0.549360	0.022339	0.977842	-0.085022	-1.000000	-1.000000	-1.000000	-1.000000	-1.000000	-1.000000	-1.000000	146.965517	0.000000	-1.000000	-1.000000	328745.000000	1772311316.003868
-16683.930000	-15532.470000	-19932.255000	-12680.010000	0.000000	0.000000	0.000000	0.000000	-8.807037	22.444449	-6.279296	-4.096183	-0.000000	-0.000000	0.000000	0.000000	2.945180	-0.274680	-0.549360	0.022339	0.977842	-0.085022	-1.000000	-1.000000	-1.000000	-1.000000	-1.000000	-1.000000	-1.000000	146.965517	0.000000	-1.000000	-1.000000	328746.000000	1772311316.003871
-16677.180000	-15520.725000	-19924.875000	-12675.195000	0.000000	0.000000	0.000000	0.000000	-12.449687	16.105796	-8.249352	-6.806509	-0.000000	-0.000000	0.000000	0.000000	2.945180	-0.274680	-0.549360	0.022339	0.977842	-0.085022	-1.000000	-1.000000	-1.000000	-1.000000	-1.000000	-1.000000	-1.000000	146.965517	0.000000	-1.000000	-1.000000	328747.000000	1772311316.007788
-16680.330000	-15517.035000	-19928.565000	-12682.620000	0.000000	0.000000	0.000000	0.000000	-11.313828	6.080926	-6.927710	-7.366223	-0.000000	-0.000000	0.000000	0.000000	2.945180	-0.274680	-0.549360	0.022339	0.977842	-0.085022	-1.000000	-1.000000	-1.000000	-1.000000	-1.000000	-1.000000	-1.000000	146.965517	0.000000	-1.000000	-1.000000	328748.000000	1772311316.007791
-16675.515000	-15516.180000	-19921.005000	-12673.260000	0.000000	0.000000	0.000000	0.000000	-5.271901	-4.885531	-2.427827	-4.772212	-0.000000	-0.000000	0.000000	0.000000	2.945180	-0.274680	-0.549360	0.022339	0.977842	-0.085022	-1.000000	-1.000000	-1.000000	-1.000000	-1.000000	-1.000000	-1.000000	146.965517	0.000000	-1.000000	-1.000000	328749.000000	1772311316.011740
-16681.590000	-15517.080000	-19927.980000	-12674.385000	0.000000	0.000000	0.000000	0.000000	2.900467	-14.199725	3.188534	0.266732	-0.000000	-0.000000	0.000000	0.000000	2.945180	-0.274680	-0.549360	0.022339	0.977842	-0.085022	-1.000000	-1.000000	-1.000000	-1.000000	-1.000000	-1.000000	-1.000000	146.965517	0.000000	-1.000000	-1.000000	328750.000000	1772311316.011742
-16676.730000	-15500.385000	-19924.290000	-12676.005000	0.000000	0.000000	0.000000	0.000000	9.268356	-19.339947	7.114182	5.454544	-0.000000	-0.000000	0.000000	0.000000	2.945180	-0.274680	-0.549360	0.022339	0.977842	-0.085022	-1.000000	-1.000000	-1.000000	-1.000000	-1.000000	-1.000000	-1.000000	146.965517	0.000000	-1.000000	-1.000000	328751.000000	1772311316.015803
-16662.105000	-15488.730000	-19911.105000	-12671.325000	0.000000	0.000000	0.000000	0.000000	11.715794	-18.324409	8.014089	8.251690	-0.000000	-0.000000	0.000000	0.000000	2.945180	-0.274680	-0.549360	0.022339	0.977842	-0.085022	-1.000000	-1.000000	-1.000000	-1.000000	-1.000000	-1.000000	-1.000000	146.965517	0.000000	-1.000000	-1.000000	328752.000000	1772311316.015807
-16672.095000	-15486.255000	-19921.590000	-12683.025000	0.000000	0.000000	0.000000	0.000000	10.545742	-11.660364	6.511573	7.522844	-0.000000	-0.000000	0.000000	0.000000	2.914660	-0.274680	-0.289940	0.022034	0.977170	-0.084778	-1.000000	-1.000000	-1.000000	-1.000000	-1.000000	-1.000000	-1.000000	146.965517	0.000000	-1.000000	-1.000000	328753.000000	1772311316.019800
-16675.200000	-15486.075000	-19925.415000	-12679.020000	0.000000	0.000000	0.000000	0.000000	6.441376	-3.119354	3.253909	3.856717	-0.000000	-0.000000	0.000000	0.000000	2.914660	-0.274680	-0.289940	0.022034	0.977170	-0.084778	-1.000000	-1.000000	-1.000000	-1.000000	-1.000000	-1.000000	-1.000000	146.965517	0.000000	-1.000000	-1.000000	328754.000000	1772311316.019802
-16675.965000	-15500.925000	-19926.270000	-12674.565000	0.000000	0.000000	0.000000	0.000000	0.306179	2.708153	-1.225985	-0.646604	-0.000000	-0.000000	0.000000	0.000000	2.914660	-0.274680	-0.289940	0.022034	0.977170	-0.084778	-1.000000	-1.000000	-1.000000	-1.000000	-1.000000	-1.000000	-1.000000	146.965517	0.000000	-1.000000	-1.000000	328755.000000	1772311316.023892
-16676.370000	-15503.535000	-19925.190000	-12675.375000	0.000000	0.000000	0.000000	0.000000	-5.552516	3.584785	-5.186606	-3.477045	-0.000000	-0.000000	0.000000	0.000000	2.914660	-0.274680	-0.289940	0.022034	0.977170	-0.084778	-1.000000	-1.000000	-1.000000	-1.000000	-1.000000	-1.000000	-1.000000	146.965517	0.000000	-1.000000	-1.000000	328756.000000	1772311316.023895
-16684.335000	-15483.375000	-19933.335000	-12688.290000	0.000000	0.000000	0.000000	0.000000	-8.757113	1.408136	-6.801519	-4.033992	-0.000000	-0.000000	0.000000	0.000000	2.914660	-0.274680	-0.289940	0.022034	0.977170	-0.084778	-1.000000	-1.000000	-1.000000	-1.000000	-1.000000	-1.000000	-1.000000	146.965517	0.000000	-1.000000	-1.000000	328757.000000	1772311316.037542
-16684.335000	-15483.375000	-19933.335000	-12688.290000	0.000000	0.000000	0.000000	0.000000	-8.649733	0.445848	-5.859584	-3.669535	-0.000000	-0.000000	0.000000	0.000000	2.914660	-0.274680	-0.289940	0.022034	0.977170	-0.084778	-1.000000	-1.000000	-1.000000	-1.000000	-1.000000	-1.000000	-1.000000	146.965517	0.000000	-1.000000	-1.000000	328758.000000	1772311316.037546
-16684.335000	-15483.375000	-19933.335000	-12688.290000	0.000000	0.000000	0.000000	0.000000	-5.923864	2.380297	-3.268012	-3.195634	-0.000000	-0.000000	0.000000	0.000000	2.914660	-0.274680	-0.289940	0.022034	0.977170	-0.084778	-1.000000	-1.000000	-1.000000	-1.000000	-1.000000	-1.000000	-1.000000	146.965517	0.000000	-1.000000	-1.000000	328759.000000	1772311316.037548
-16684.335000	-15483.375000	-19933.335000	-12688.290000	0.000000	0.000000	0.000000	0.000000	-1.750120	4.953039	-0.019544	-2.110371	-0.000000	-0.000000	0.000000	0.000000	2.914660	-0.274680	-0.289940	0.022034	0.977170	-0.084778	-1.000000	-1.000000	-1.000000	-1.000000	-1.000000	-1.000000	-1.000000	146.965517	0.000000	-1.000000	-1.000000	328762.000000	1772311316.047853
-16684.335000	-15483.375000	-19933.335000	-12688.290000	0.000000	0.000000	0.000000	0.000000	2.397356	5.540453	2.884013	-0.128121	-0.000000	-0.000000	0.000000	0.000000	2.914660	-0.274680	-0.289940	0.022034	0.977170	-0.084778	-1.000000	-1.000000	-1.000000	-1.000000	-1.000000	-1.000000	-1.000000	146.965517	0.000000	-1.000000	-1.000000	328763.000000	1772311316.047856
-16684.335000	-15483.375000	-19933.335000	-12688.290000	0.000000	0.000000	0.000000	0.000000	5.123600	3.661231	4.539704	2.078205	-0.000000	-0.000000	0.000000	0.000000	2.914660	-0.274680	-0.289940	0.022034	0.977170	-0.084778	-1.000000	-1.000000	-1.000000	-1.000000	-1.000000	-1.000000	-1.000000	146.965517	0.000000	-1.000000	-1.000000	328764.000000	1772311316.047858
-16684.335000	-15483.375000	-19933.335000	-12688.290000	0.000000	0.000000	0.000000	0.000000	5.737273	0.577868	4.558438	3.517725	-0.000000	-0.000000	0.000000	0.000000	2.914660	-0.274680	-0.289940	0.022034	0.977170	-0.084778	-1.000000	-1.000000	-1.000000	-1.000000	-1.000000	-1.000000	-1.000000	146.965517	0.000000	-1.000000	-1.000000	328765.000000	1772311316.047860
-16684.335000	-15483.375000	-19933.335000	-12688.290000	0.000000	0.000000	0.000000	0.000000	4.453733	-2.056714	3.205444	3.620764	-0.000000	-0.000000	0.000000	0.000000	2.914660	-0.274680	-0.289940	0.022034	0.977170	-0.084778	-1.000000	-1.000000	-1.000000	-1.000000	-1.000000	-1.000000	-1.000000	146.965517	0.000000	-1.000000	-1.000000	328766.000000	1772311316.047861
-16684.335000	-15483.375000	-19933.335000	-12688.290000	0.000000	0.000000	0.000000	0.000000	2.124242	-3.227601	1.189591	2.504900	-0.000000	-0.000000	0.000000	0.000000	2.914660	-0.274680	-0.289940	0.022034	0.977170	-0.084778	-1.000000	-1.000000	-1.000000	-1.000000	-1.000000	-1.000000	-1.000000	146.965517	0.000000	-1.000000	-1.000000	328767.000000	1772311316.047863
-16684.335000	-15483.375000	-19933.335000	-12688.290000	0.000000	0.000000	0.000000	0.000000	-0.247042	-2.853255	-0.706215	0.780392	-0.000000	-0.000000	0.000000	0.000000	2.914660	-0.274680	-0.289940	0.022034	0.977170	-0.084778	-1.000000	-1.000000	-1.000000	-1.000000	-1.000000	-1.000000	-1.000000	146.965517	0.000000	-1.000000	-1.000000	328768.000000	1772311316.047865
-16695.585000	-15487.380000	-19937.295000	-12689.505000	0.000000	0.000000	0.000000	0.000000	-2.112426	-1.587860	-2.003542	-0.857445	-0.000000	-0.000000	0.000000	0.000000	4.471180	-0.045780	-0.259420	0.022522	0.976682	-0.084167	-1.000000	-1.000000	-1.000000	-1.000000	-1.000000	-1.000000	-1.000000	146.965517	0.000000	-1.000000	-1.000000	328771.000000	1772311316.055769
-16689.600000	-15489.900000	-19933.245000	-12685.140000	0.000000	0.000000	0.000000	0.000000	-3.379244	-0.366320	-2.558378	-1.863063	-0.000000	-0.000000	0.000000	0.000000	4.471180	-0.045780	-0.259420	0.022522	0.976682	-0.084167	-1.000000	-1.000000	-1.000000	-1.000000	-1.000000	-1.000000	-1.000000	146.965517	0.000000	-1.000000	-1.000000	328772.000000	1772311316.055772
-16681.815000	-15507.630000	-19922.850000	-12673.620000	0.000000	0.000000	0.000000	0.000000	-3.446734	-0.021531	-2.069945	-1.712352	-0.000000	-0.000000	0.000000	0.000000	4.471180	-0.045780	-0.259420	0.022522	0.976682	-0.084167	-1.000000	-1.000000	-1.000000	-1.000000	-1.000000	-1.000000	-1.000000	146.965517	0.000000	-1.000000	-1.000000	328773.000000	1772311316.059963
-16682.220000	-15512.130000	-19918.890000	-12670.605000	0.000000	0.000000	0.000000	0.000000	-1.636787	-0.912660	-0.275947	-0.222310	-0.000000	-0.000000	0.000000	0.000000	4.471180	-0.045780	-0.259420	0.022522	0.976682	-0.084167	-1.000000	-1.000000	-1.000000	-1.000000	-1.000000	-1.000000	-1.000000	146.965517	0.000000	-1.000000	-1.000000	328774.000000	1772311316.059965
-16723.080000	-15499.620000	-19943.595000	-12694.455000	0.000000	0.000000	0.000000	0.000000	0.416345	-1.884594	1.531319	1.186456	-0.000000	0.000000	0.000000	0.000000	4.471180	-0.045780	-0.259420	0.022522	0.976682	-0.084167	-1.000000	-1.000000	-1.000000	-1.000000	-1.000000	-1.000000	-1.000000	146.965517	0.000000	-1.000000	-1.000000	328775.000000	1772311316.063927
-16713.000000	-15493.725000	-19949.175000	-12698.055000	0.000000	0.000000	0.000000	0.000000	-0.198529	-0.644610	0.834860	0.101702	-0.000000	0.000000	0.000000	0.000000	4.471180	-0.045780	-0.259420	0.022522	0.976682	-0.084167	-1.000000	-1.000000	-1.000000	-1.000000	-1.000000	-1.000000	-1.000000	146.965517	0.000000	-1.000000	-1.000000	328776.000000	1772311316.063930
-16662.870000	-15479.730000	-19921.140000	-12672.270000	0.000000	0.000000	0.000000	0.000000	-1.840778	3.413555	-2.006279	-2.896678	-0.000000	0.000000	0.000000	0.000000	4.471180	-0.045780	-0.259420	0.022522	0.976682	-0.084167	-1.000000	-1.000000	-1.000000	-1.000000	-1.000000	-1.000000	-1.000000	146.965517	0.000000	-1.000000	-1.000000	328777.000000	1772311316.067883
-16671.015000	-15457.500000	-19928.790000	-12681.405000	0.000000	0.000000	0.000000	0.000000	0.638106	8.354527	-3.086926	-3.949572	-0.000000	0.000000	0.000000	0.000000	4.471180	-0.045780	-0.259420	0.022522	0.976682	-0.084167	-1.000000	-1.000000	-1.000000	-1.000000	-1.000000	-1.000000	-1.000000	146.965517	0.000000	-1.000000	-1.000000	328778.000000	1772311316.067886
-16681.230000	-15453.765000	-19942.965000	-12695.895000	0.000000	0.000000	0.000000	0.000000	6.494321	11.419500	-1.048053	-1.888292	-0.000000	0.000000	0.000000	0.000000	5.341000	-0.274680	-0.213640	0.023010	0.976011	-0.084595	-1.000000	-1.000000	-1.000000	-1.000000	-1.000000	-1.000000	-1.000000	146.965517	0.000000	-1.000000	-1.000000	328779.000000	1772311316.071979
-16666.245000	-15454.890000	-19928.880000	-12683.520000	0.000000	0.000000	0.000000	0.000000	9.307297	10.096910	1.342697	0.554818	-0.000000	0.000000	0.000000	0.000000	5.341000	-0.274680	-0.213640	0.023010	0.976011	-0.084595	-1.000000	-1.000000	-1.000000	-1.000000	-1.000000	-1.000000	-1.000000	146.965517	0.000000	-1.000000	-1.000000	328780.000000	1772311316.071982
-16671.825000	-15445.755000	-19924.380000	-12677.040000	0.000000	0.000000	0.000000	0.000000	6.218486	3.716221	2.459874	1.945700	-0.000000	0.000000	0.000000	0.000000	5.341000	-0.274680	-0.213640	0.023010	0.976011	-0.084595	-1.000000	-1.000000	-1.000000	-1.000000	-1.000000	-1.000000	-1.000000	146.965517	0.000000	-1.000000	-1.000000	328781.000000	1772311316.075934
-16692.660000	-15441.210000	-19924.470000	-12672.720000	0.000000	0.000000	0.000000	0.000000	-0.709826	-4.961986	2.899822	3.074365	-0.000000	0.000000	0.000000	0.000000	5.341000	-0.274680	-0.213640	0.023010	0.976011	-0.084595	-1.000000	-1.000000	-1.000000	-1.000000	-1.000000	-1.000000	-1.000000	146.965517	0.000000	-1.000000	-1.000000	328782.000000	1772311316.075937
-16690.905000	-15447.915000	-19919.160000	-12670.785000	0.000000	0.000000	0.000000	0.000000	-8.337374	-11.806344	2.824156	4.007880	-0.000000	0.000000	0.000000	0.000000	5.341000	-0.274680	-0.213640	0.023010	0.976011	-0.084595	-1.000000	-1.000000	-1.000000	-1.000000	-1.000000	-1.000000	-1.000000	146.965517	0.000000	-1.000000	-1.000000	328783.000000	1772311316.079988
-16659.630000	-15443.775000	-19902.465000	-12656.880000	0.000000	0.000000	0.000000	0.000000	-12.488638	-14.510197	2.211757	4.006199	-0.000000	0.000000	0.000000	0.000000	5.341000	-0.274680	-0.213640	0.023010	0.976011	-0.084595	-1.000000	-1.000000	-1.000000	-1.000000	-1.000000	-1.000000	-1.000000	146.965517	0.000000	-1.000000	-1.000000	328784.000000	1772311316.079990
-16623.720000	-15440.130000	-19876.680000	-12632.985000	0.000000	0.000000	0.000000	0.000000	-8.805909	-12.757143	2.048546	3.348168	-0.000000	0.000000	0.000000	0.000000	5.341000	-0.274680	-0.213640	0.023010	0.976011	-0.084595	-1.000000	-1.000000	-1.000000	-1.000000	-1.000000	-1.000000	-1.000000	146.965517	0.000000	-1.000000	-1.000000	328785.000000	1772311316.084046
-16625.295000	-15442.740000	-19889.505000	-12645.495000	0.000000	0.000000	0.000000	0.000000	2.011610	-7.519209	2.659563	2.627342	-0.000000	0.000000	0.000000	0.000000	5.341000	-0.274680	-0.213640	0.023010	0.976011	-0.084595	-1.000000	-1.000000	-1.000000	-1.000000	-1.000000	-1.000000	-1.000000	146.965517	0.000000	-1.000000	-1.000000	328786.000000	1772311316.084049
-16687.980000	-15434.685000	-19943.640000	-12693.600000	0.000000	0.000000	0.000000	0.000000	11.128661	-0.919828	0.973640	-0.102021	-0.000000	0.000000	0.000000	0.000000	5.341000	-0.274680	-0.213640	0.023010	0.976011	-0.084595	-1.000000	-1.000000	-1.000000	-1.000000	-1.000000	-1.000000	-1.000000	146.965517	0.000000	-1.000000	-1.000000	328787.000000	1772311316.087885
-16685.820000	-15437.205000	-19937.115000	-12687.255000	0.000000	0.000000	0.000000	0.000000	8.891958	4.753007	-6.139279	-7.045580	-0.000000	0.000000	0.000000	0.000000	5.341000	-0.274680	-0.213640	0.023010	0.976011	-0.084595	-1.000000	-1.000000	-1.000000	-1.000000	-1.000000	-1.000000	-1.000000	146.965517	0.000000	-1.000000	-1.000000	328788.000000	1772311316.087888
