Channel1	Channel2	Channel3	Channel4	Channel5	Channel6	Channel7	Channel8	FilteredChannel1	FilteredChannel2	FilteredChannel3	FilteredChannel4	FilteredChannel5	FilteredChannel6	FilteredChannel7	FilteredChannel8	GyroX	GyroY	GyroZ	AccX	AccY	AccZ	PPG1	PPG2	rawPPG1	rawPPG2	rawPPG3	Hr	Hrv	Battery	Trigger	PhysicalTrigger	AutoTrigger	NumMeasurements	Timestamp
-16861.230000	-18629.595000	-20854.080000	-12969.495000	0.000000	0.000000	0.000000	0.000000	-4.806883	13.786517	-3.904802	-3.395379	-0.000000	-0.000000	0.000000	0.000000	2.182180	0.442540	-0.625660	-0.007812	0.980771	0.044861	-1.000000	-1.000000	-1.000000	-1.000000	-1.000000	-1.000000	-1.000000	146.482759	0.000000	-1.000000	-1.000000	371237.000000	1772311401.230435
-16865.235000	-18576.180000	-20860.380000	-12975.120000	0.000000	0.000000	0.000000	0.000000	-10.038365	20.763194	-6.785525	-6.426940	-0.000000	-0.000000	0.000000	0.000000	2.182180	0.442540	-0.625660	-0.007812	0.980771	0.044861	-1.000000	-1.000000	-1.000000	-1.000000	-1.000000	-1.000000	-1.000000	146.482759	0.000000	-1.000000	-1.000000	371238.000000	1772311401.230438
-16861.995000	-18529.155000	-20858.085000	-12971.520000	0.000000	0.000000	0.000000	0.000000	-10.378157	20.959591	-7.535578	-7.382850	-0.000000	-0.000000	0.000000	0.000000	2.182180	0.442540	-0.625660	-0.007812	0.980771	0.044861	-1.000000	-1.000000	-1.000000	-1.000000	-1.000000	-1.000000	-1.000000	146.482759	0.000000	-1.000000	-1.000000	371239.000000	1772311401.234410
-16852.185000	-18512.595000	-20848.050000	-12962.655000	0.000000	0.000000	0.000000	0.000000	-5.940110	21.276546	-5.544600	-5.606382	-0.000000	-0.000000	0.000000	0.000000	2.182180	0.442540	-0.625660	-0.007812	0.980771	0.044861	-1.000000	-1.000000	-1.000000	-1.000000	-1.000000	-1.000000	-1.000000	146.482759	0.000000	-1.000000	-1.000000	371240.000000	1772311401.234413
-16850.340000	-18493.605000	-20846.790000	-12962.880000	0.000000	0.000000	0.000000	0.000000	1.035207	21.243544	-1.031952	-1.377755	-0.000000	-0.000000	0.000000	0.000000	2.182180	0.442540	-0.625660	-0.007812	0.980771	0.044861	-1.000000	-1.000000	-1.000000	-1.000000	-1.000000	-1.000000	-1.000000	146.482759	0.000000	-1.000000	-1.000000	371241.000000	1772311401.242014
-16855.650000	-18511.965000	-20852.010000	-12967.155000	0.000000	0.000000	0.000000	0.000000	6.984311	15.385083	3.916641	3.202849	-0.000000	-0.000000	0.000000	0.000000	2.182180	0.442540	-0.625660	-0.007812	0.980771	0.044861	-1.000000	-1.000000	-1.000000	-1.000000	-1.000000	-1.000000	-1.000000	146.482759	0.000000	-1.000000	-1.000000	371242.000000	1772311401.242017
-16847.730000	-18532.620000	-20843.550000	-12961.395000	0.000000	0.000000	0.000000	0.000000	8.913915	0.971003	6.530104	5.550381	-0.000000	-0.000000	0.000000	0.000000	2.182180	0.442540	-0.625660	-0.007812	0.980771	0.044861	-1.000000	-1.000000	-1.000000	-1.000000	-1.000000	-1.000000	-1.000000	146.482759	0.000000	-1.000000	-1.000000	371243.000000	1772311401.242553
-16849.575000	-18552.330000	-20843.280000	-12961.845000	0.000000	0.000000	0.000000	0.000000	6.626819	-18.278896	5.953360	4.963443	-0.000000	-0.000000	0.000000	0.000000	2.182180	0.442540	-0.625660	-0.007812	0.980771	0.044861	-1.000000	-1.000000	-1.000000	-1.000000	-1.000000	-1.000000	-1.000000	146.482759	0.000000	-1.000000	-1.000000	371244.000000	1772311401.242555
-16858.980000	-18577.710000	-20852.730000	-12970.620000	0.000000	0.000000	0.000000	0.000000	1.995375	-33.796038	3.133951	2.415466	-0.000000	-0.000000	0.000000	0.000000	2.182180	0.442540	-0.625660	-0.007812	0.980771	0.044861	-1.000000	-1.000000	-1.000000	-1.000000	-1.000000	-1.000000	-1.000000	146.482759	0.000000	-1.000000	-1.000000	371245.000000	1772311401.246427
-16862.625000	-18577.170000	-20857.410000	-12975.255000	0.000000	0.000000	0.000000	0.000000	-3.074623	-37.618463	-0.853771	-1.000319	-0.000000	-0.000000	0.000000	0.000000	2.182180	0.442540	-0.625660	-0.007812	0.980771	0.044861	-1.000000	-1.000000	-1.000000	-1.000000	-1.000000	-1.000000	-1.000000	146.482759	0.000000	-1.000000	-1.000000	371246.000000	1772311401.246430
-16847.595000	-18625.050000	-20842.335000	-12959.865000	0.000000	0.000000	0.000000	0.000000	-6.519404	-27.752355	-4.376162	-3.768045	-0.000000	-0.000000	0.000000	0.000000	3.860780	0.152600	-0.534100	-0.008118	0.979734	0.046142	-1.000000	-1.000000	-1.000000	-1.000000	-1.000000	-1.000000	-1.000000	146.482759	0.000000	-1.000000	-1.000000	371247.000000	1772311401.250449
-16835.535000	-18652.365000	-20831.265000	-12949.650000	0.000000	0.000000	0.000000	0.000000	-6.077160	-9.969100	-4.955306	-3.740480	-0.000000	-0.000000	0.000000	0.000000	3.860780	0.152600	-0.534100	-0.008118	0.979734	0.046142	-1.000000	-1.000000	-1.000000	-1.000000	-1.000000	-1.000000	-1.000000	146.482759	0.000000	-1.000000	-1.000000	371248.000000	1772311401.250452
-16836.615000	-18647.640000	-20833.200000	-12952.035000	0.000000	0.000000	0.000000	0.000000	-1.706562	7.607382	-1.902643	-0.553654	-0.000000	-0.000000	0.000000	0.000000	3.860780	0.152600	-0.534100	-0.008118	0.979734	0.046142	-1.000000	-1.000000	-1.000000	-1.000000	-1.000000	-1.000000	-1.000000	146.482759	0.000000	-1.000000	-1.000000	371249.000000	1772311401.254442
-16832.340000	-18653.445000	-20829.555000	-12946.545000	0.000000	0.000000	0.000000	0.000000	3.342576	21.134033	2.152077	3.140356	-0.000000	-0.000000	0.000000	0.000000	3.860780	0.152600	-0.534100	-0.008118	0.979734	0.046142	-1.000000	-1.000000	-1.000000	-1.000000	-1.000000	-1.000000	-1.000000	146.482759	0.000000	-1.000000	-1.000000	371250.000000	1772311401.254445
-16826.085000	-18661.995000	-20821.950000	-12937.860000	0.000000	0.000000	0.000000	0.000000	5.626977	29.512176	4.137000	4.602954	-0.000000	-0.000000	0.000000	0.000000	3.860780	0.152600	-0.534100	-0.008118	0.979734	0.046142	-1.000000	-1.000000	-1.000000	-1.000000	-1.000000	-1.000000	-1.000000	146.482759	0.000000	-1.000000	-1.000000	371251.000000	1772311401.258534
-16819.245000	-18691.920000	-20813.715000	-12930.480000	0.000000	0.000000	0.000000	0.000000	4.502300	30.655177	3.492047	3.574845	-0.000000	-0.000000	0.000000	0.000000	3.860780	0.152600	-0.534100	-0.008118	0.979734	0.046142	-1.000000	-1.000000	-1.000000	-1.000000	-1.000000	-1.000000	-1.000000	146.482759	0.000000	-1.000000	-1.000000	371252.000000	1772311401.258537
-16845.615000	-18695.520000	-20840.310000	-12956.040000	0.000000	0.000000	0.000000	0.000000	1.000431	23.233547	0.969305	0.793494	-0.000000	-0.000000	0.000000	0.000000	3.860780	0.152600	-0.534100	-0.008118	0.979734	0.046142	-1.000000	-1.000000	-1.000000	-1.000000	-1.000000	-1.000000	-1.000000	146.482759	0.000000	-1.000000	-1.000000	371253.000000	1772311401.262500
-16858.530000	-18658.935000	-20853.720000	-12969.090000	0.000000	0.000000	0.000000	0.000000	-4.234273	10.990433	-3.383905	-3.782746	-0.000000	-0.000000	0.000000	0.000000	3.860780	0.152600	-0.534100	-0.008118	0.979734	0.046142	-1.000000	-1.000000	-1.000000	-1.000000	-1.000000	-1.000000	-1.000000	146.482759	0.000000	-1.000000	-1.000000	371254.000000	1772311401.262503
-16842.690000	-18644.805000	-20839.275000	-12957.030000	0.000000	0.000000	0.000000	0.000000	-9.303721	1.553783	-8.206397	-8.807569	-0.000000	-0.000000	0.000000	0.000000	3.860780	0.152600	-0.534100	-0.008118	0.979734	0.046142	-1.000000	-1.000000	-1.000000	-1.000000	-1.000000	-1.000000	-1.000000	146.482759	0.000000	-1.000000	-1.000000	371255.000000	1772311401.266523
-16844.220000	-18636.300000	-20840.400000	-12958.380000	0.000000	0.000000	0.000000	0.000000	-10.194586	-1.387129	-9.555011	-10.375704	-0.000000	-0.000000	0.000000	0.000000	3.860780	0.152600	-0.534100	-0.008118	0.979734	0.046142	-1.000000	-1.000000	-1.000000	-1.000000	-1.000000	-1.000000	-1.000000	146.482759	0.000000	-1.000000	-1.000000	371256.000000	1772311401.266527
-16844.085000	-18637.380000	-20842.830000	-12961.170000	0.000000	0.000000	0.000000	0.000000	-5.227957	-1.311974	-5.374124	-6.363595	-0.000000	-0.000000	0.000000	0.000000	4.715340	0.000000	-0.534100	-0.008545	0.980832	0.044495	-1.000000	-1.000000	-1.000000	-1.000000	-1.000000	-1.000000	-1.000000	146.482759	0.000000	-1.000000	-1.000000	371257.000000	1772311401.270501
-16839.585000	-18651.240000	-20837.385000	-12955.320000	0.000000	0.000000	0.000000	0.000000	2.568097	-3.626921	1.774799	0.889021	-0.000000	-0.000000	0.000000	0.000000	4.715340	0.000000	-0.534100	-0.008545	0.980832	0.044495	-1.000000	-1.000000	-1.000000	-1.000000	-1.000000	-1.000000	-1.000000	146.482759	0.000000	-1.000000	-1.000000	371258.000000	1772311401.270504
-16846.785000	-18674.730000	-20843.820000	-12961.530000	0.000000	0.000000	0.000000	0.000000	8.670051	-10.419956	7.719230	7.319617	-0.000000	-0.000000	0.000000	0.000000	4.715340	0.000000	-0.534100	-0.008545	0.980832	0.044495	-1.000000	-1.000000	-1.000000	-1.000000	-1.000000	-1.000000	-1.000000	146.482759	0.000000	-1.000000	-1.000000	371259.000000	1772311401.274570
-16850.745000	-18690.795000	-20846.790000	-12966.030000	0.000000	0.000000	0.000000	0.000000	10.156931	-19.246926	9.662024	9.937904	-0.000000	-0.000000	0.000000	0.000000	4.715340	0.000000	-0.534100	-0.008545	0.980832	0.044495	-1.000000	-1.000000	-1.000000	-1.000000	-1.000000	-1.000000	-1.000000	146.482759	0.000000	-1.000000	-1.000000	371260.000000	1772311401.274574
-16850.115000	-18707.040000	-20846.520000	-12963.870000	0.000000	0.000000	0.000000	0.000000	6.988930	-24.866762	7.294233	8.092626	-0.000000	-0.000000	0.000000	0.000000	4.715340	0.000000	-0.534100	-0.008545	0.980832	0.044495	-1.000000	-1.000000	-1.000000	-1.000000	-1.000000	-1.000000	-1.000000	146.482759	0.000000	-1.000000	-1.000000	371261.000000	1772311401.278576
-16826.490000	-18744.030000	-20827.665000	-12943.575000	0.000000	0.000000	0.000000	0.000000	2.203190	-23.395210	3.043837	4.082808	-0.000000	-0.000000	0.000000	0.000000	4.715340	0.000000	-0.534100	-0.008545	0.980832	0.044495	-1.000000	-1.000000	-1.000000	-1.000000	-1.000000	-1.000000	-1.000000	146.482759	0.000000	-1.000000	-1.000000	371262.000000	1772311401.278580
-16821.315000	-18752.940000	-20817.270000	-12935.205000	0.000000	0.000000	0.000000	0.000000	-0.372554	-15.160469	0.336558	1.374390	-0.000000	-0.000000	0.000000	0.000000	4.715340	0.000000	-0.534100	-0.008545	0.980832	0.044495	-1.000000	-1.000000	-1.000000	-1.000000	-1.000000	-1.000000	-1.000000	146.482759	0.000000	-1.000000	-1.000000	371263.000000	1772311401.284732
-16848.990000	-18784.980000	-20834.145000	-12949.290000	0.000000	0.000000	0.000000	0.000000	-0.452004	-3.302283	0.005925	0.772248	-0.000000	-0.000000	0.000000	0.000000	4.715340	0.000000	-0.534100	-0.008545	0.980832	0.044495	-1.000000	-1.000000	-1.000000	-1.000000	-1.000000	-1.000000	-1.000000	146.482759	0.000000	-1.000000	-1.000000	371264.000000	1772311401.284735
-16850.385000	-18771.120000	-20842.695000	-12957.705000	0.000000	0.000000	0.000000	0.000000	-1.493096	8.814027	-0.670259	-0.357293	-0.000000	-0.000000	0.000000	0.000000	4.715340	0.000000	-0.534100	-0.008545	0.980832	0.044495	-1.000000	-1.000000	-1.000000	-1.000000	-1.000000	-1.000000	-1.000000	146.482759	0.000000	-1.000000	-1.000000	371265.000000	1772311401.286603
-16840.215000	-18726.435000	-20836.260000	-12953.835000	0.000000	0.000000	0.000000	0.000000	-4.697572	19.859428	-3.569760	-3.728937	-0.000000	-0.000000	0.000000	0.000000	4.715340	0.000000	-0.534100	-0.008545	0.980832	0.044495	-1.000000	-1.000000	-1.000000	-1.000000	-1.000000	-1.000000	-1.000000	146.482759	0.000000	-1.000000	-1.000000	371266.000000	1772311401.286605
-16840.395000	-18698.040000	-20835.765000	-12955.500000	0.000000	0.000000	0.000000	0.000000	-6.851886	29.931581	-6.616982	-7.312518	-0.000000	-0.000000	0.000000	0.000000	3.830260	0.183120	-0.061040	-0.008179	0.983457	0.041077	-1.000000	-1.000000	-1.000000	-1.000000	-1.000000	-1.000000	-1.000000	146.482759	0.000000	-1.000000	-1.000000	371267.000000	1772311401.290585
-16846.245000	-18675.990000	-20839.320000	-12957.705000	0.000000	0.000000	0.000000	0.000000	-5.499164	36.230362	-6.921247	-8.169262	-0.000000	-0.000000	0.000000	0.000000	3.830260	0.183120	-0.061040	-0.008179	0.983457	0.041077	-1.000000	-1.000000	-1.000000	-1.000000	-1.000000	-1.000000	-1.000000	146.482759	0.000000	-1.000000	-1.000000	371268.000000	1772311401.290588
-16853.400000	-18691.470000	-20846.610000	-12962.880000	0.000000	0.000000	0.000000	0.000000	-1.995458	32.749441	-4.388905	-5.764022	-0.000000	-0.000000	0.000000	0.000000	3.830260	0.183120	-0.061040	-0.008179	0.983457	0.041077	-1.000000	-1.000000	-1.000000	-1.000000	-1.000000	-1.000000	-1.000000	146.482759	0.000000	-1.000000	-1.000000	371269.000000	1772311401.294547
-16854.120000	-18699.030000	-20847.240000	-12965.490000	0.000000	0.000000	0.000000	0.000000	1.014909	16.052106	-0.986254	-1.755899	-0.000000	-0.000000	0.000000	0.000000	3.830260	0.183120	-0.061040	-0.008179	0.983457	0.041077	-1.000000	-1.000000	-1.000000	-1.000000	-1.000000	-1.000000	-1.000000	146.482759	0.000000	-1.000000	-1.000000	371270.000000	1772311401.294550
-16838.685000	-18685.440000	-20831.625000	-12950.055000	0.000000	0.000000	0.000000	0.000000	2.757249	-9.046024	2.034908	2.223647	-0.000000	-0.000000	0.000000	0.000000	3.830260	0.183120	-0.061040	-0.008179	0.983457	0.041077	-1.000000	-1.000000	-1.000000	-1.000000	-1.000000	-1.000000	-1.000000	146.482759	0.000000	-1.000000	-1.000000	371271.000000	1772311401.298770
-16842.330000	-18681.570000	-20835.270000	-12952.080000	0.000000	0.000000	0.000000	0.000000	4.143357	-30.748113	4.723083	5.606821	-0.000000	-0.000000	0.000000	0.000000	3.830260	0.183120	-0.061040	-0.008179	0.983457	0.041077	-1.000000	-1.000000	-1.000000	-1.000000	-1.000000	-1.000000	-1.000000	146.482759	0.000000	-1.000000	-1.000000	371272.000000	1772311401.298773
-16841.880000	-18650.070000	-20840.625000	-12960.405000	0.000000	0.000000	0.000000	0.000000	5.184922	-38.678987	6.397948	7.461830	-0.000000	-0.000000	0.000000	0.000000	3.830260	0.183120	-0.061040	-0.008179	0.983457	0.041077	-1.000000	-1.000000	-1.000000	-1.000000	-1.000000	-1.000000	-1.000000	146.482759	0.000000	-1.000000	-1.000000	371273.000000	1772311401.302620
-16843.725000	-18635.715000	-20844.990000	-12966.390000	0.000000	0.000000	0.000000	0.000000	4.663356	-30.509945	5.500360	6.214006	-0.000000	-0.000000	0.000000	0.000000	3.830260	0.183120	-0.061040	-0.008179	0.983457	0.041077	-1.000000	-1.000000	-1.000000	-1.000000	-1.000000	-1.000000	-1.000000	146.482759	0.000000	-1.000000	-1.000000	371274.000000	1772311401.302623
-16845.705000	-18624.780000	-20849.625000	-12968.910000	0.000000	0.000000	0.000000	0.000000	2.162505	-12.466740	1.920164	1.955036	-0.000000	-0.000000	0.000000	0.000000	3.830260	0.183120	-0.061040	-0.008179	0.983457	0.041077	-1.000000	-1.000000	-1.000000	-1.000000	-1.000000	-1.000000	-1.000000	146.482759	0.000000	-1.000000	-1.000000	371275.000000	1772311401.306593
-16835.580000	-18607.545000	-20845.395000	-12962.025000	0.000000	0.000000	0.000000	0.000000	-1.069861	5.260600	-2.307569	-2.706548	-0.000000	-0.000000	0.000000	0.000000	3.830260	0.183120	-0.061040	-0.008179	0.983457	0.041077	-1.000000	-1.000000	-1.000000	-1.000000	-1.000000	-1.000000	-1.000000	146.482759	0.000000	-1.000000	-1.000000	371276.000000	1772311401.306596
-16843.545000	-18622.350000	-20843.190000	-12956.940000	0.000000	0.000000	0.000000	0.000000	-3.223809	14.812593	-4.584255	-4.700216	-0.000000	-0.000000	0.000000	0.000000	1.632820	0.244160	-0.412020	-0.007629	0.985288	0.038086	-1.000000	-1.000000	-1.000000	-1.000000	-1.000000	-1.000000	-1.000000	146.482759	0.000000	-1.000000	-1.000000	371277.000000	1772311401.310631
-16855.200000	-18643.455000	-20843.145000	-12958.830000	0.000000	0.000000	0.000000	0.000000	-3.948650	13.275914	-3.811403	-3.176851	-0.000000	-0.000000	0.000000	0.000000	1.632820	0.244160	-0.412020	-0.007629	0.985288	0.038086	-1.000000	-1.000000	-1.000000	-1.000000	-1.000000	-1.000000	-1.000000	146.482759	0.000000	-1.000000	-1.000000	371278.000000	1772311401.310634
-16850.790000	-18640.620000	-20843.955000	-12961.125000	0.000000	0.000000	0.000000	0.000000	-4.138914	3.260677	-1.140142	-0.124408	-0.000000	-0.000000	0.000000	0.000000	1.632820	0.244160	-0.412020	-0.007629	0.985288	0.038086	-1.000000	-1.000000	-1.000000	-1.000000	-1.000000	-1.000000	-1.000000	146.482759	0.000000	-1.000000	-1.000000	371279.000000	1772311401.314609
-16854.120000	-18602.235000	-20848.095000	-12964.095000	0.000000	0.000000	0.000000	0.000000	-3.763626	-6.934580	1.278005	1.783590	-0.000000	-0.000000	0.000000	0.000000	1.632820	0.244160	-0.412020	-0.007629	0.985288	0.038086	-1.000000	-1.000000	-1.000000	-1.000000	-1.000000	-1.000000	-1.000000	146.482759	0.000000	-1.000000	-1.000000	371280.000000	1772311401.314611
-16850.025000	-18585.180000	-20845.215000	-12959.280000	0.000000	0.000000	0.000000	0.000000	-2.092646	-8.508094	2.084041	1.606605	-0.000000	-0.000000	0.000000	0.000000	1.632820	0.244160	-0.412020	-0.007629	0.985288	0.038086	-1.000000	-1.000000	-1.000000	-1.000000	-1.000000	-1.000000	-1.000000	146.482759	0.000000	-1.000000	-1.000000	371281.000000	1772311401.318609
-16834.050000	-18564.345000	-20832.660000	-12947.445000	0.000000	0.000000	0.000000	0.000000	1.005278	-0.275243	1.711615	0.586286	-0.000000	-0.000000	0.000000	0.000000	1.632820	0.244160	-0.412020	-0.007629	0.985288	0.038086	-1.000000	-1.000000	-1.000000	-1.000000	-1.000000	-1.000000	-1.000000	146.482759	0.000000	-1.000000	-1.000000	371282.000000	1772311401.318612
-16823.070000	-18554.130000	-20822.895000	-12940.920000	0.000000	0.000000	0.000000	0.000000	4.994553	10.667501	1.696344	0.503420	-0.000000	-0.000000	0.000000	0.000000	1.632820	0.244160	-0.412020	-0.007629	0.985288	0.038086	-1.000000	-1.000000	-1.000000	-1.000000	-1.000000	-1.000000	-1.000000	146.482759	0.000000	-1.000000	-1.000000	371283.000000	1772311401.322630
-16842.870000	-18572.850000	-20841.795000	-12957.030000	0.000000	0.000000	0.000000	0.000000	7.890753	15.555494	2.183693	1.216220	-0.000000	-0.000000	0.000000	0.000000	1.632820	0.244160	-0.412020	-0.007629	0.985288	0.038086	-1.000000	-1.000000	-1.000000	-1.000000	-1.000000	-1.000000	-1.000000	146.482759	0.000000	-1.000000	-1.000000	371284.000000	1772311401.322632
-16865.865000	-18576.315000	-20862.540000	-12975.120000	0.000000	0.000000	0.000000	0.000000	6.287878	10.073889	0.883597	0.358916	-0.000000	-0.000000	0.000000	0.000000	1.632820	0.244160	-0.412020	-0.007629	0.985288	0.038086	-1.000000	-1.000000	-1.000000	-1.000000	-1.000000	-1.000000	-1.000000	146.482759	0.000000	-1.000000	-1.000000	371285.000000	1772311401.326762
-16865.370000	-18573.795000	-20859.210000	-12972.465000	0.000000	0.000000	0.000000	0.000000	-0.705938	-2.562884	-3.421337	-3.193860	-0.000000	-0.000000	0.000000	0.000000	1.632820	0.244160	-0.412020	-0.007629	0.985288	0.038086	-1.000000	-1.000000	-1.000000	-1.000000	-1.000000	-1.000000	-1.000000	146.482759	0.000000	-1.000000	-1.000000	371286.000000	1772311401.326765
-16847.325000	-18609.660000	-20843.955000	-12957.300000	0.000000	0.000000	0.000000	0.000000	-8.253153	-14.636037	-7.440909	-6.477911	-0.000000	-0.000000	0.000000	0.000000	-0.030520	0.244160	-0.473060	-0.007751	0.985105	0.037353	-1.000000	-1.000000	-1.000000	-1.000000	-1.000000	-1.000000	-1.000000	146.482759	0.000000	-1.000000	-1.000000	371287.000000	1772311401.330797
-16836.390000	-18634.500000	-20835.675000	-12947.985000	0.000000	0.000000	0.000000	0.000000	-9.713750	-21.028869	-6.480491	-5.292993	-0.000000	-0.000000	0.000000	0.000000	-0.030520	0.244160	-0.473060	-0.007751	0.985105	0.037353	-1.000000	-1.000000	-1.000000	-1.000000	-1.000000	-1.000000	-1.000000	146.482759	0.000000	-1.000000	-1.000000	371288.000000	1772311401.330799
-16836.480000	-18631.755000	-20836.800000	-12951.180000	0.000000	0.000000	0.000000	0.000000	-3.755382	-20.403903	-0.301592	0.494343	-0.000000	-0.000000	0.000000	0.000000	-0.030520	0.244160	-0.473060	-0.007751	0.985105	0.037353	-1.000000	-1.000000	-1.000000	-1.000000	-1.000000	-1.000000	-1.000000	146.482759	0.000000	-1.000000	-1.000000	371289.000000	1772311401.336205
-16842.915000	-18609.795000	-20844.765000	-12960.270000	0.000000	0.000000	0.000000	0.000000	4.390171	-11.915319	6.310437	6.317074	-0.000000	-0.000000	0.000000	0.000000	-0.030520	0.244160	-0.473060	-0.007751	0.985105	0.037353	-1.000000	-1.000000	-1.000000	-1.000000	-1.000000	-1.000000	-1.000000	146.482759	0.000000	-1.000000	-1.000000	371290.000000	1772311401.336209
-16852.815000	-18601.335000	-20855.610000	-12969.450000	0.000000	0.000000	0.000000	0.000000	8.298520	3.516750	8.265843	7.479551	-0.000000	-0.000000	0.000000	0.000000	-0.030520	0.244160	-0.473060	-0.007751	0.985105	0.037353	-1.000000	-1.000000	-1.000000	-1.000000	-1.000000	-1.000000	-1.000000	146.482759	0.000000	-1.000000	-1.000000	371291.000000	1772311401.338765
-16856.415000	-18599.445000	-20855.115000	-12969.675000	0.000000	0.000000	0.000000	0.000000	5.744933	19.981746	4.552721	3.446711	-0.000000	-0.000000	0.000000	0.000000	-0.030520	0.244160	-0.473060	-0.007751	0.985105	0.037353	-1.000000	-1.000000	-1.000000	-1.000000	-1.000000	-1.000000	-1.000000	146.482759	0.000000	-1.000000	-1.000000	371292.000000	1772311401.338768
-16860.870000	-18575.280000	-20858.805000	-12971.115000	0.000000	0.000000	0.000000	0.000000	-0.479111	29.486518	-1.481539	-2.235365	-0.000000	-0.000000	0.000000	0.000000	-0.030520	0.244160	-0.473060	-0.007751	0.985105	0.037353	-1.000000	-1.000000	-1.000000	-1.000000	-1.000000	-1.000000	-1.000000	146.482759	0.000000	-1.000000	-1.000000	371293.000000	1772311401.342768
-16849.665000	-18528.165000	-20851.065000	-12964.905000	0.000000	0.000000	0.000000	0.000000	-5.499000	28.981243	-5.421640	-5.409953	-0.000000	-0.000000	0.000000	0.000000	-0.030520	0.244160	-0.473060	-0.007751	0.985105	0.037353	-1.000000	-1.000000	-1.000000	-1.000000	-1.000000	-1.000000	-1.000000	146.482759	0.000000	-1.000000	-1.000000	371294.000000	1772311401.342770
-16849.080000	-18534.915000	-20851.020000	-12965.355000	0.000000	0.000000	0.000000	0.000000	-5.956085	21.045235	-5.068129	-4.406396	-0.000000	-0.000000	0.000000	0.000000	-0.030520	0.244160	-0.473060	-0.007751	0.985105	0.037353	-1.000000	-1.000000	-1.000000	-1.000000	-1.000000	-1.000000	-1.000000	146.482759	0.000000	-1.000000	-1.000000	371295.000000	1772311401.346711
-16843.095000	-18560.205000	-20842.830000	-12955.770000	0.000000	0.000000	0.000000	0.000000	-2.118097	7.765787	-1.319413	-0.498115	-0.000000	-0.000000	0.000000	0.000000	-0.030520	0.244160	-0.473060	-0.007751	0.985105	0.037353	-1.000000	-1.000000	-1.000000	-1.000000	-1.000000	-1.000000	-1.000000	146.482759	0.000000	-1.000000	-1.000000	371296.000000	1772311401.346714
-16841.295000	-18596.295000	-20838.195000	-12951.090000	0.000000	0.000000	0.000000	0.000000	2.918837	-10.358921	3.184788	3.769695	-0.000000	-0.000000	0.000000	0.000000	0.091560	0.320460	-0.763000	-0.007996	0.984556	0.039429	-1.000000	-1.000000	-1.000000	-1.000000	-1.000000	-1.000000	-1.000000	146.482759	0.000000	-1.000000	-1.000000	371297.000000	1772311401.350880
-16844.085000	-18576.630000	-20840.940000	-12954.465000	0.000000	0.000000	0.000000	0.000000	5.878036	-28.616893	5.863282	6.102602	-0.000000	-0.000000	0.000000	0.000000	0.091560	0.320460	-0.763000	-0.007996	0.984556	0.039429	-1.000000	-1.000000	-1.000000	-1.000000	-1.000000	-1.000000	-1.000000	146.482759	0.000000	-1.000000	-1.000000	371298.000000	1772311401.350883
-16836.390000	-18552.330000	-20836.575000	-12952.035000	0.000000	0.000000	0.000000	0.000000	5.356660	-36.829072	5.321607	5.202735	-0.000000	-0.000000	0.000000	0.000000	0.091560	0.320460	-0.763000	-0.007996	0.984556	0.039429	-1.000000	-1.000000	-1.000000	-1.000000	-1.000000	-1.000000	-1.000000	146.482759	0.000000	-1.000000	-1.000000	371299.000000	1772311401.354764
-16835.850000	-18533.790000	-20836.125000	-12954.915000	0.000000	0.000000	0.000000	0.000000	2.384864	-27.975039	2.113330	1.562025	-0.000000	-0.000000	0.000000	0.000000	0.091560	0.320460	-0.763000	-0.007996	0.984556	0.039429	-1.000000	-1.000000	-1.000000	-1.000000	-1.000000	-1.000000	-1.000000	146.482759	0.000000	-1.000000	-1.000000	371300.000000	1772311401.354767
-16848.855000	-18530.685000	-20847.870000	-12963.690000	0.000000	0.000000	0.000000	0.000000	-1.222264	-6.505446	-2.013454	-2.968989	-0.000000	-0.000000	0.000000	0.000000	0.091560	0.320460	-0.763000	-0.007996	0.984556	0.039429	-1.000000	-1.000000	-1.000000	-1.000000	-1.000000	-1.000000	-1.000000	146.482759	0.000000	-1.000000	-1.000000	371301.000000	1772311401.358737
-16851.015000	-18547.335000	-20852.370000	-12965.805000	0.000000	0.000000	0.000000	0.000000	-4.535877	14.409967	-5.676044	-6.554133	-0.000000	-0.000000	0.000000	0.000000	0.091560	0.320460	-0.763000	-0.007996	0.984556	0.039429	-1.000000	-1.000000	-1.000000	-1.000000	-1.000000	-1.000000	-1.000000	146.482759	0.000000	-1.000000	-1.000000	371302.000000	1772311401.358740
-16842.690000	-18541.980000	-20850.300000	-12963.285000	0.000000	0.000000	0.000000	0.000000	-6.532967	23.416575	-7.686907	-7.728569	-0.000000	-0.000000	0.000000	0.000000	0.091560	0.320460	-0.763000	-0.007996	0.984556	0.039429	-1.000000	-1.000000	-1.000000	-1.000000	-1.000000	-1.000000	-1.000000	146.482759	0.000000	-1.000000	-1.000000	371303.000000	1772311401.367049
-16841.655000	-18526.320000	-20846.070000	-12960.630000	0.000000	0.000000	0.000000	0.000000	-5.685812	19.187477	-6.724563	-5.678415	-0.000000	-0.000000	0.000000	0.000000	0.091560	0.320460	-0.763000	-0.007996	0.984556	0.039429	-1.000000	-1.000000	-1.000000	-1.000000	-1.000000	-1.000000	-1.000000	146.482759	0.000000	-1.000000	-1.000000	371304.000000	1772311401.367052
-16851.600000	-18524.970000	-20843.955000	-12957.345000	0.000000	0.000000	0.000000	0.000000	-2.203815	8.833347	-2.644763	-1.104035	-0.000000	-0.000000	0.000000	0.000000	0.091560	0.320460	-0.763000	-0.007996	0.984556	0.039429	-1.000000	-1.000000	-1.000000	-1.000000	-1.000000	-1.000000	-1.000000	146.482759	0.000000	-1.000000	-1.000000	371305.000000	1772311401.367057
-16841.160000	-18575.190000	-20837.700000	-12946.635000	0.000000	0.000000	0.000000	0.000000	1.619224	-1.340423	2.776279	4.015673	-0.000000	-0.000000	0.000000	0.000000	0.091560	0.320460	-0.763000	-0.007996	0.984556	0.039429	-1.000000	-1.000000	-1.000000	-1.000000	-1.000000	-1.000000	-1.000000	146.482759	0.000000	-1.000000	-1.000000	371306.000000	1772311401.367059
-16836.255000	-18616.230000	-20835.855000	-12943.665000	0.000000	0.000000	0.000000	0.000000	4.187158	-10.698764	7.008484	7.673143	-0.000000	-0.000000	0.000000	0.000000	1.373400	0.427280	-0.335720	-0.008606	0.982602	0.042724	-1.000000	-1.000000	-1.000000	-1.000000	-1.000000	-1.000000	-1.000000	146.482759	0.000000	-1.000000	-1.000000	371307.000000	1772311401.372927
-16836.120000	-18635.040000	-20834.685000	-12950.865000	0.000000	0.000000	0.000000	0.000000	5.356505	-19.112731	8.243683	8.304080	-0.000000	-0.000000	0.000000	0.000000	1.373400	0.427280	-0.335720	-0.008606	0.982602	0.042724	-1.000000	-1.000000	-1.000000	-1.000000	-1.000000	-1.000000	-1.000000	146.482759	0.000000	-1.000000	-1.000000	371308.000000	1772311401.372930
-16839.990000	-18652.365000	-20835.945000	-12952.080000	0.000000	0.000000	0.000000	0.000000	4.884846	-22.308519	6.115693	5.195299	-0.000000	-0.000000	0.000000	0.000000	1.373400	0.427280	-0.335720	-0.008606	0.982602	0.042724	-1.000000	-1.000000	-1.000000	-1.000000	-1.000000	-1.000000	-1.000000	146.482759	0.000000	-1.000000	-1.000000	371309.000000	1772311401.374887
-16835.940000	-18647.370000	-20833.065000	-12948.615000	0.000000	0.000000	0.000000	0.000000	2.605077	-15.780101	1.817543	-0.285488	-0.000000	-0.000000	0.000000	0.000000	1.373400	0.427280	-0.335720	-0.008606	0.982602	0.042724	-1.000000	-1.000000	-1.000000	-1.000000	-1.000000	-1.000000	-1.000000	146.482759	0.000000	-1.000000	-1.000000	371310.000000	1772311401.374890
-16833.375000	-18643.230000	-20833.065000	-12948.255000	0.000000	0.000000	0.000000	0.000000	-0.449634	-0.135641	-2.528063	-5.054691	-0.000000	-0.000000	0.000000	0.000000	1.373400	0.427280	-0.335720	-0.008606	0.982602	0.042724	-1.000000	-1.000000	-1.000000	-1.000000	-1.000000	-1.000000	-1.000000	146.482759	0.000000	-1.000000	-1.000000	371311.000000	1772311401.378891
-16831.665000	-18651.015000	-20837.880000	-12952.395000	0.000000	0.000000	0.000000	0.000000	-2.661065	18.143846	-5.242550	-6.889933	-0.000000	-0.000000	0.000000	0.000000	1.373400	0.427280	-0.335720	-0.008606	0.982602	0.042724	-1.000000	-1.000000	-1.000000	-1.000000	-1.000000	-1.000000	-1.000000	146.482759	0.000000	-1.000000	-1.000000	371312.000000	1772311401.378894
-16827.480000	-18633.915000	-20841.615000	-12956.400000	0.000000	0.000000	0.000000	0.000000	-3.213108	30.492142	-5.989195	-5.925513	-0.000000	-0.000000	0.000000	0.000000	1.373400	0.427280	-0.335720	-0.008606	0.982602	0.042724	-1.000000	-1.000000	-1.000000	-1.000000	-1.000000	-1.000000	-1.000000	146.482759	0.000000	-1.000000	-1.000000	371313.000000	1772311401.382993
-16834.320000	-18587.925000	-20851.920000	-12965.220000	0.000000	0.000000	0.000000	0.000000	-2.509760	32.831263	-5.376895	-3.716302	-0.000000	-0.000000	0.000000	0.000000	1.373400	0.427280	-0.335720	-0.008606	0.982602	0.042724	-1.000000	-1.000000	-1.000000	-1.000000	-1.000000	-1.000000	-1.000000	146.482759	0.000000	-1.000000	-1.000000	371314.000000	1772311401.382998
-16833.960000	-18548.505000	-20853.540000	-12965.625000	0.000000	0.000000	0.000000	0.000000	-1.660754	27.693005	-4.067039	-1.601737	-0.000000	-0.000000	0.000000	0.000000	1.373400	0.427280	-0.335720	-0.008606	0.982602	0.042724	-1.000000	-1.000000	-1.000000	-1.000000	-1.000000	-1.000000	-1.000000	146.482759	0.000000	-1.000000	-1.000000	371315.000000	1772311401.386908
-16836.345000	-18537.300000	-20848.050000	-12959.730000	0.000000	0.000000	0.000000	0.000000	-1.341406	18.685950	-2.041262	0.294433	-0.000000	-0.000000	0.000000	0.000000	1.373400	0.427280	-0.335720	-0.008606	0.982602	0.042724	-1.000000	-1.000000	-1.000000	-1.000000	-1.000000	-1.000000	-1.000000	146.482759	0.000000	-1.000000	-1.000000	371316.000000	1772311401.386911
-16846.605000	-18523.485000	-20848.320000	-12961.170000	0.000000	0.000000	0.000000	0.000000	-1.433965	6.301306	1.045846	2.497973	-0.000000	-0.000000	0.000000	0.000000	3.555580	0.122080	-0.671440	-0.008667	0.980710	0.045715	-1.000000	-1.000000	-1.000000	-1.000000	-1.000000	-1.000000	-1.000000	146.482759	0.000000	-1.000000	-1.000000	371317.000000	1772311401.391321
-16846.740000	-18509.805000	-20835.945000	-12951.495000	0.000000	0.000000	0.000000	0.000000	-1.634927	-9.010715	4.729850	4.826047	-0.000000	-0.000000	0.000000	0.000000	3.555580	0.122080	-0.671440	-0.008667	0.980710	0.045715	-1.000000	-1.000000	-1.000000	-1.000000	-1.000000	-1.000000	-1.000000	146.482759	0.000000	-1.000000	-1.000000	371318.000000	1772311401.391324
-16850.745000	-18517.590000	-20828.565000	-12944.295000	0.000000	0.000000	0.000000	0.000000	-1.452431	-23.797509	7.812488	6.484985	-0.000000	-0.000000	0.000000	0.000000	3.555580	0.122080	-0.671440	-0.008667	0.980710	0.045715	-1.000000	-1.000000	-1.000000	-1.000000	-1.000000	-1.000000	-1.000000	146.482759	0.000000	-1.000000	-1.000000	371319.000000	1772311401.394971
-16861.410000	-18529.650000	-20853.045000	-12968.280000	0.000000	0.000000	0.000000	0.000000	-0.566991	-33.834565	8.502127	6.273578	-0.000000	-0.000000	0.000000	0.000000	3.555580	0.122080	-0.671440	-0.008667	0.980710	0.045715	-1.000000	-1.000000	-1.000000	-1.000000	-1.000000	-1.000000	-1.000000	146.482759	0.000000	-1.000000	-1.000000	371320.000000	1772311401.394974
-16853.355000	-18505.170000	-20856.330000	-12968.865000	0.000000	0.000000	0.000000	0.000000	0.758146	-35.955753	4.910995	2.825473	-0.000000	-0.000000	0.000000	0.000000	3.555580	0.122080	-0.671440	-0.008667	0.980710	0.045715	-1.000000	-1.000000	-1.000000	-1.000000	-1.000000	-1.000000	-1.000000	146.482759	0.000000	-1.000000	-1.000000	371321.000000	1772311401.398865
-16865.100000	-18482.220000	-20866.770000	-12976.380000	0.000000	0.000000	0.000000	0.000000	2.213518	-27.824511	-2.165882	-3.024605	-0.000000	-0.000000	0.000000	0.000000	3.555580	0.122080	-0.671440	-0.008667	0.980710	0.045715	-1.000000	-1.000000	-1.000000	-1.000000	-1.000000	-1.000000	-1.000000	146.482759	0.000000	-1.000000	-1.000000	371322.000000	1772311401.398868
-16852.815000	-18475.650000	-20855.970000	-12970.080000	0.000000	0.000000	0.000000	0.000000	3.503356	-10.696944	-8.451720	-7.690060	-0.000000	-0.000000	0.000000	0.000000	3.555580	0.122080	-0.671440	-0.008667	0.980710	0.045715	-1.000000	-1.000000	-1.000000	-1.000000	-1.000000	-1.000000	-1.000000	146.482759	0.000000	-1.000000	-1.000000	371323.000000	1772311401.402917
-16848.675000	-18493.020000	-20855.205000	-12970.620000	0.000000	0.000000	0.000000	0.000000	4.491524	7.913869	-9.675417	-8.043112	-0.000000	-0.000000	0.000000	0.000000	3.555580	0.122080	-0.671440	-0.008667	0.980710	0.045715	-1.000000	-1.000000	-1.000000	-1.000000	-1.000000	-1.000000	-1.000000	146.482759	0.000000	-1.000000	-1.000000	371324.000000	1772311401.402920
-16853.670000	-18506.835000	-20858.400000	-12972.060000	0.000000	0.000000	0.000000	0.000000	4.970959	18.488656	-5.341089	-4.111337	-0.000000	-0.000000	0.000000	0.000000	3.555580	0.122080	-0.671440	-0.008667	0.980710	0.045715	-1.000000	-1.000000	-1.000000	-1.000000	-1.000000	-1.000000	-1.000000	146.482759	0.000000	-1.000000	-1.000000	371325.000000	1772311401.406943
-16842.915000	-18503.910000	-20843.055000	-12957.165000	0.000000	0.000000	0.000000	0.000000	4.210189	17.449950	1.363370	1.558723	-0.000000	-0.000000	0.000000	0.000000	3.555580	0.122080	-0.671440	-0.008667	0.980710	0.045715	-1.000000	-1.000000	-1.000000	-1.000000	-1.000000	-1.000000	-1.000000	146.482759	0.000000	-1.000000	-1.000000	371326.000000	1772311401.406946
-16828.470000	-18515.340000	-20829.600000	-12946.140000	0.000000	0.000000	0.000000	0.000000	2.366550	9.317890	7.145791	6.541261	-0.000000	-0.000000	0.000000	0.000000	4.883200	0.061040	-0.625660	-0.008484	0.981382	0.045776	-1.000000	-1.000000	-1.000000	-1.000000	-1.000000	-1.000000	-1.000000	146.482759	0.000000	-1.000000	-1.000000	371327.000000	1772311401.417282
-16839.135000	-18532.215000	-20841.480000	-12958.695000	0.000000	0.000000	0.000000	0.000000	0.430811	0.880756	9.957917	9.039796	-0.000000	-0.000000	0.000000	0.000000	4.883200	0.061040	-0.625660	-0.008484	0.981382	0.045776	-1.000000	-1.000000	-1.000000	-1.000000	-1.000000	-1.000000	-1.000000	146.482759	0.000000	-1.000000	-1.000000	371328.000000	1772311401.417285
-16842.870000	-18574.515000	-20845.710000	-12960.585000	0.000000	0.000000	0.000000	0.000000	-1.824658	-4.712813	8.088601	7.289415	-0.000000	-0.000000	0.000000	0.000000	4.883200	0.061040	-0.625660	-0.008484	0.981382	0.045776	-1.000000	-1.000000	-1.000000	-1.000000	-1.000000	-1.000000	-1.000000	146.482759	0.000000	-1.000000	-1.000000	371329.000000	1772311401.417289
-16845.750000	-18553.815000	-20849.760000	-12962.970000	0.000000	0.000000	0.000000	0.000000	-4.924047	-7.073750	1.717450	1.496783	-0.000000	-0.000000	0.000000	0.000000	4.883200	0.061040	-0.625660	-0.008484	0.981382	0.045776	-1.000000	-1.000000	-1.000000	-1.000000	-1.000000	-1.000000	-1.000000	146.482759	0.000000	-1.000000	-1.000000	371330.000000	1772311401.417291
-16839.765000	-18547.920000	-20842.515000	-12955.005000	0.000000	0.000000	0.000000	0.000000	-7.556356	-4.671721	-5.664386	-4.990177	-0.000000	-0.000000	0.000000	0.000000	4.883200	0.061040	-0.625660	-0.008484	0.981382	0.045776	-1.000000	-1.000000	-1.000000	-1.000000	-1.000000	-1.000000	-1.000000	146.482759	0.000000	-1.000000	-1.000000	371331.000000	1772311401.418918
-16831.800000	-18580.635000	-20831.670000	-12944.880000	0.000000	0.000000	0.000000	0.000000	-7.454197	2.602329	-9.477618	-8.105820	-0.000000	-0.000000	0.000000	0.000000	4.883200	0.061040	-0.625660	-0.008484	0.981382	0.045776	-1.000000	-1.000000	-1.000000	-1.000000	-1.000000	-1.000000	-1.000000	146.482759	0.000000	-1.000000	-1.000000	371332.000000	1772311401.418922
-16837.065000	-18590.895000	-20829.195000	-12937.545000	0.000000	0.000000	0.000000	0.000000	-4.032693	9.564217	-7.669985	-6.223363	-0.000000	-0.000000	0.000000	0.000000	4.883200	0.061040	-0.625660	-0.008484	0.981382	0.045776	-1.000000	-1.000000	-1.000000	-1.000000	-1.000000	-1.000000	-1.000000	146.482759	0.000000	-1.000000	-1.000000	371333.000000	1772311401.423064
-16848.180000	-18614.565000	-20826.900000	-12924.720000	0.000000	0.000000	0.000000	0.000000	0.391871	10.777950	-2.243184	-1.049425	-0.000000	-0.000000	0.000000	0.000000	4.883200	0.061040	-0.625660	-0.008484	0.981382	0.045776	-1.000000	-1.000000	-1.000000	-1.000000	-1.000000	-1.000000	-1.000000	146.482759	0.000000	-1.000000	-1.000000	371334.000000	1772311401.423080
-16859.025000	-18601.605000	-20828.655000	-12928.005000	0.000000	0.000000	0.000000	0.000000	2.592578	6.603155	2.761920	3.927709	-0.000000	-0.000000	0.000000	0.000000	4.883200	0.061040	-0.625660	-0.008484	0.981382	0.045776	-1.000000	-1.000000	-1.000000	-1.000000	-1.000000	-1.000000	-1.000000	146.482759	0.000000	-1.000000	-1.000000	371335.000000	1772311401.427043
-16861.365000	-18575.145000	-20837.295000	-12934.530000	0.000000	0.000000	0.000000	0.000000	1.672014	2.389983	4.400186	5.471736	-0.000000	-0.000000	0.000000	0.000000	4.883200	0.061040	-0.625660	-0.008484	0.981382	0.045776	-1.000000	-1.000000	-1.000000	-1.000000	-1.000000	-1.000000	-1.000000	146.482759	0.000000	-1.000000	-1.000000	371336.000000	1772311401.427047
-16848.720000	-18583.380000	-20842.830000	-12946.770000	0.000000	0.000000	0.000000	0.000000	-0.070156	2.568002	2.254965	2.330954	-0.000000	-0.000000	0.000000	0.000000	4.455920	-0.244160	-0.473060	-0.008362	0.982786	0.043823	-1.000000	-1.000000	-1.000000	-1.000000	-1.000000	-1.000000	-1.000000	146.482759	0.000000	-1.000000	-1.000000	371337.000000	1772311401.431078
-16838.280000	-18603.945000	-20841.660000	-12961.485000	0.000000	0.000000	0.000000	0.000000	0.515555	5.019875	-1.635481	-3.876435	-0.000000	-0.000000	0.000000	0.000000	4.455920	-0.244160	-0.473060	-0.008362	0.982786	0.043823	-1.000000	-1.000000	-1.000000	-1.000000	-1.000000	-1.000000	-1.000000	146.482759	0.000000	-1.000000	-1.000000	371338.000000	1772311401.431081
-16820.865000	-18600.030000	-20839.635000	-12959.955000	0.000000	0.000000	0.000000	0.000000	4.239144	4.196738	-4.148874	-9.444903	-0.000000	-0.000000	0.000000	0.000000	4.455920	-0.244160	-0.473060	-0.008362	0.982786	0.043823	-1.000000	-1.000000	-1.000000	-1.000000	-1.000000	-1.000000	-1.000000	146.482759	0.000000	-1.000000	-1.000000	371339.000000	1772311401.435052
-16797.600000	-18564.435000	-20844.135000	-12974.760000	0.000000	0.000000	0.000000	0.000000	9.061650	-0.358017	-3.540146	-10.804149	-0.000000	-0.000000	0.000000	0.000000	4.455920	-0.244160	-0.473060	-0.008362	0.982786	0.043823	-1.000000	-1.000000	-1.000000	-1.000000	-1.000000	-1.000000	-1.000000	146.482759	0.000000	-1.000000	-1.000000	371340.000000	1772311401.435055
-16788.285000	-18538.335000	-20848.455000	-12974.985000	0.000000	0.000000	0.000000	0.000000	11.937371	-3.303902	-0.744601	-7.076194	-0.000000	-0.000000	0.000000	0.000000	4.455920	-0.244160	-0.473060	-0.008362	0.982786	0.043823	-1.000000	-1.000000	-1.000000	-1.000000	-1.000000	-1.000000	-1.000000	146.482759	0.000000	-1.000000	-1.000000	371341.000000	1772311401.438996
-16787.340000	-18545.220000	-20844.360000	-12964.815000	0.000000	0.000000	0.000000	0.000000	10.241644	-1.713439	2.118609	-0.002441	-0.000000	-0.000000	0.000000	0.000000	4.455920	-0.244160	-0.473060	-0.008362	0.982786	0.043823	-1.000000	-1.000000	-1.000000	-1.000000	-1.000000	-1.000000	-1.000000	146.482759	0.000000	-1.000000	-1.000000	371342.000000	1772311401.438999
-16798.095000	-18601.965000	-20832.435000	-12953.520000	0.000000	0.000000	0.000000	0.000000	2.992678	-0.325668	4.082868	8.045178	-0.000000	-0.000000	0.000000	0.000000	4.455920	-0.244160	-0.473060	-0.008362	0.982786	0.043823	-1.000000	-1.000000	-1.000000	-1.000000	-1.000000	-1.000000	-1.000000	146.482759	0.000000	-1.000000	-1.000000	371343.000000	1772311401.446340
-16847.685000	-18667.395000	-20828.115000	-12945.420000	0.000000	0.000000	0.000000	0.000000	-8.599473	-6.576162	5.402324	14.493038	-0.000000	-0.000000	0.000000	0.000000	4.455920	-0.244160	-0.473060	-0.008362	0.982786	0.043823	-1.000000	-1.000000	-1.000000	-1.000000	-1.000000	-1.000000	-1.000000	146.482759	0.000000	-1.000000	-1.000000	371344.000000	1772311401.446342
-16901.460000	-18674.145000	-20833.515000	-12945.645000	0.000000	0.000000	0.000000	0.000000	-21.913892	-20.132687	5.740386	16.573323	-0.000000	-0.000000	0.000000	0.000000	4.455920	-0.244160	-0.473060	-0.008362	0.982786	0.043823	-1.000000	-1.000000	-1.000000	-1.000000	-1.000000	-1.000000	-1.000000	146.482759	0.000000	-1.000000	-1.000000	371345.000000	1772311401.447126
-16911.360000	-18664.065000	-20839.320000	-12951.090000	0.000000	0.000000	0.000000	0.000000	-32.015196	-29.499125	3.860261	12.625414	-0.000000	-0.000000	0.000000	0.000000	4.455920	-0.244160	-0.473060	-0.008362	0.982786	0.043823	-1.000000	-1.000000	-1.000000	-1.000000	-1.000000	-1.000000	-1.000000	146.482759	0.000000	-1.000000	-1.000000	371346.000000	1772311401.447128
-16845.840000	-18630.675000	-20833.155000	-12947.940000	0.000000	0.000000	0.000000	0.000000	-30.241448	-22.369251	-0.261091	3.743663	-0.000000	-0.000000	0.000000	0.000000	2.563680	0.061040	-0.320460	-0.008118	0.985837	0.039307	-1.000000	-1.000000	-1.000000	-1.000000	-1.000000	-1.000000	-1.000000	146.482759	0.000000	-1.000000	-1.000000	371347.000000	1772311401.451073
-16801.740000	-18573.255000	-20819.115000	-12924.000000	0.000000	0.000000	0.000000	0.000000	-9.919753	2.321280	-4.151807	-5.688310	-0.000000	-0.000000	0.000000	0.000000	2.563680	0.061040	-0.320460	-0.008118	0.985837	0.039307	-1.000000	-1.000000	-1.000000	-1.000000	-1.000000	-1.000000	-1.000000	146.482759	0.000000	-1.000000	-1.000000	371348.000000	1772311401.451075
-16802.955000	-18547.695000	-20814.840000	-12907.530000	0.000000	0.000000	0.000000	0.000000	22.454210	33.092161	-4.997767	-10.361056	-0.000000	-0.000000	0.000000	0.000000	2.563680	0.061040	-0.320460	-0.008118	0.985837	0.039307	-1.000000	-1.000000	-1.000000	-1.000000	-1.000000	-1.000000	-1.000000	146.482759	0.000000	-1.000000	-1.000000	371349.000000	1772311401.455082
-16805.655000	-18576.360000	-20819.115000	-12902.625000	0.000000	0.000000	0.000000	0.000000	47.380530	52.157115	-2.872274	-8.603457	-0.000000	-0.000000	0.000000	0.000000	2.563680	0.061040	-0.320460	-0.008118	0.985837	0.039307	-1.000000	-1.000000	-1.000000	-1.000000	-1.000000	-1.000000	-1.000000	146.482759	0.000000	-1.000000	-1.000000	371350.000000	1772311401.455087
-16820.865000	-18611.550000	-20823.390000	-12910.995000	0.000000	0.000000	0.000000	0.000000	48.528264	45.568868	-0.574666	-4.032282	-0.000000	-0.000000	0.000000	0.000000	2.563680	0.061040	-0.320460	-0.008118	0.985837	0.039307	-1.000000	-1.000000	-1.000000	-1.000000	-1.000000	-1.000000	-1.000000	146.482759	0.000000	-1.000000	-1.000000	371351.000000	1772311401.459075
-16871.940000	-18616.995000	-20820.645000	-12919.905000	0.000000	0.000000	0.000000	0.000000	25.081713	14.590038	-0.245675	-1.790311	-0.000000	-0.000000	0.000000	0.000000	2.563680	0.061040	-0.320460	-0.008118	0.985837	0.039307	-1.000000	-1.000000	-1.000000	-1.000000	-1.000000	-1.000000	-1.000000	146.482759	0.000000	-1.000000	-1.000000	371352.000000	1772311401.459078
-16921.305000	-18599.895000	-20814.345000	-12900.690000	0.000000	0.000000	0.000000	0.000000	-10.890845	-22.659348	-1.264997	-3.250900	-0.000000	-0.000000	0.000000	0.000000	2.563680	0.061040	-0.320460	-0.008118	0.985837	0.039307	-1.000000	-1.000000	-1.000000	-1.000000	-1.000000	-1.000000	-1.000000	146.482759	0.000000	-1.000000	-1.000000	371353.000000	1772311401.463034
-16916.040000	-18585.810000	-20834.820000	-12921.435000	0.000000	0.000000	0.000000	0.000000	-41.841085	-44.500627	-2.067528	-5.505159	-0.000000	-0.000000	0.000000	0.000000	2.563680	0.061040	-0.320460	-0.008118	0.985837	0.039307	-1.000000	-1.000000	-1.000000	-1.000000	-1.000000	-1.000000	-1.000000	146.482759	0.000000	-1.000000	-1.000000	371354.000000	1772311401.463037
-16878.645000	-18567.315000	-20843.820000	-12940.380000	0.000000	0.000000	0.000000	0.000000	-51.252703	-41.484850	-2.664402	-6.358030	-0.000000	-0.000000	0.000000	0.000000	2.563680	0.061040	-0.320460	-0.008118	0.985837	0.039307	-1.000000	-1.000000	-1.000000	-1.000000	-1.000000	-1.000000	-1.000000	146.482759	0.000000	-1.000000	-1.000000	371355.000000	1772311401.467073
-16850.610000	-18595.980000	-20847.240000	-12964.815000	0.000000	0.000000	0.000000	0.000000	-32.859441	-20.845603	-3.447113	-6.481210	-0.000000	-0.000000	0.000000	0.000000	2.563680	0.061040	-0.320460	-0.008118	0.985837	0.039307	-1.000000	-1.000000	-1.000000	-1.000000	-1.000000	-1.000000	-1.000000	146.482759	0.000000	-1.000000	-1.000000	371356.000000	1772311401.467076
-16839.090000	-18580.005000	-20852.595000	-12992.760000	0.000000	0.000000	0.000000	0.000000	2.864834	1.770703	-3.367962	-6.609131	-0.000000	-0.000000	0.000000	0.000000	0.900340	0.717220	0.015260	-0.007812	0.986326	0.038269	-1.000000	-1.000000	-1.000000	-1.000000	-1.000000	-1.000000	-1.000000	146.482759	0.000000	-1.000000	-1.000000	371357.000000	1772311401.471036
-16847.865000	-18567.135000	-20866.410000	-13023.810000	0.000000	0.000000	0.000000	0.000000	34.692365	15.475201	-1.551765	-6.221554	-0.000000	-0.000000	0.000000	0.000000	0.900340	0.717220	0.015260	-0.007812	0.986326	0.038269	-1.000000	-1.000000	-1.000000	-1.000000	-1.000000	-1.000000	-1.000000	146.482759	0.000000	-1.000000	-1.000000	371358.000000	1772311401.471039
-16855.290000	-18567.675000	-20861.370000	-12997.890000	0.000000	0.000000	0.000000	0.000000	45.376168	18.986857	1.359869	-3.498751	-0.000000	-0.000000	0.000000	0.000000	0.900340	0.717220	0.015260	-0.007812	0.986326	0.038269	-1.000000	-1.000000	-1.000000	-1.000000	-1.000000	-1.000000	-1.000000	146.482759	0.000000	-1.000000	-1.000000	371359.000000	1772311401.475240
-16846.740000	-18576.990000	-20851.470000	-12977.505000	0.000000	0.000000	0.000000	0.000000	32.495104	15.146343	4.643996	4.338112	-0.000000	-0.000000	0.000000	0.000000	0.900340	0.717220	0.015260	-0.007812	0.986326	0.038269	-1.000000	-1.000000	-1.000000	-1.000000	-1.000000	-1.000000	-1.000000	146.482759	0.000000	-1.000000	-1.000000	371360.000000	1772311401.475243
-16848.270000	-18592.695000	-20846.025000	-12970.260000	0.000000	0.000000	0.000000	0.000000	7.381747	6.696555	7.998587	16.790298	-0.000000	-0.000000	0.000000	0.000000	0.900340	0.717220	0.015260	-0.007812	0.986326	0.038269	-1.000000	-1.000000	-1.000000	-1.000000	-1.000000	-1.000000	-1.000000	146.482759	0.000000	-1.000000	-1.000000	371361.000000	1772311401.479116
-16858.755000	-18602.145000	-20847.150000	-12970.575000	0.000000	0.000000	0.000000	0.000000	-15.487945	-3.273517	10.162624	27.152947	-0.000000	-0.000000	0.000000	0.000000	0.900340	0.717220	0.015260	-0.007812	0.986326	0.038269	-1.000000	-1.000000	-1.000000	-1.000000	-1.000000	-1.000000	-1.000000	146.482759	0.000000	-1.000000	-1.000000	371362.000000	1772311401.479119
-16860.240000	-18593.820000	-20849.715000	-12976.965000	0.000000	0.000000	0.000000	0.000000	-27.574033	-10.594436	9.153388	27.608158	-0.000000	-0.000000	0.000000	0.000000	0.900340	0.717220	0.015260	-0.007812	0.986326	0.038269	-1.000000	-1.000000	-1.000000	-1.000000	-1.000000	-1.000000	-1.000000	146.482759	0.000000	-1.000000	-1.000000	371363.000000	1772311401.483116
-16848.630000	-18586.440000	-20842.110000	-12969.135000	0.000000	0.000000	0.000000	0.000000	-27.204437	-11.430661	4.559479	16.469081	-0.000000	-0.000000	0.000000	0.000000	0.900340	0.717220	0.015260	-0.007812	0.986326	0.038269	-1.000000	-1.000000	-1.000000	-1.000000	-1.000000	-1.000000	-1.000000	146.482759	0.000000	-1.000000	-1.000000	371364.000000	1772311401.483119
-16830.045000	-18563.355000	-20816.955000	-12944.520000	0.000000	0.000000	0.000000	0.000000	-16.804848	-5.047522	-1.049321	-0.086175	-0.000000	-0.000000	0.000000	0.000000	0.900340	0.717220	0.015260	-0.007812	0.986326	0.038269	-1.000000	-1.000000	-1.000000	-1.000000	-1.000000	-1.000000	-1.000000	146.482759	0.000000	-1.000000	-1.000000	371365.000000	1772311401.489626
-16817.850000	-18566.190000	-20795.130000	-12916.800000	0.000000	0.000000	0.000000	0.000000	-1.451875	5.004469	-3.854326	-12.695396	-0.000000	-0.000000	0.000000	0.000000	0.900340	0.717220	0.015260	-0.007812	0.986326	0.038269	-1.000000	-1.000000	-1.000000	-1.000000	-1.000000	-1.000000	-1.000000	146.482759	0.000000	-1.000000	-1.000000	371366.000000	1772311401.489629
-16804.620000	-18594.405000	-20787.795000	-12904.155000	0.000000	0.000000	0.000000	0.000000	12.262385	12.018058	-2.695875	-16.087568	-0.000000	-0.000000	0.000000	0.000000	2.701020	1.175020	-0.564620	-0.006653	0.981138	0.042786	-1.000000	-1.000000	-1.000000	-1.000000	-1.000000	-1.000000	-1.000000	146.482759	0.000000	-1.000000	-1.000000	371367.000000	1772311401.491139
-16822.125000	-18608.760000	-20812.815000	-12930.210000	0.000000	0.000000	0.000000	0.000000	18.466234	10.297925	-0.971619	-12.952261	-0.000000	-0.000000	0.000000	0.000000	2.701020	1.175020	-0.564620	-0.006653	0.981138	0.042786	-1.000000	-1.000000	-1.000000	-1.000000	-1.000000	-1.000000	-1.000000	146.482759	0.000000	-1.000000	-1.000000	371368.000000	1772311401.491142
-16859.160000	-18571.815000	-20857.860000	-12978.855000	0.000000	0.000000	0.000000	0.000000	13.969557	1.525794	-3.927574	-11.067217	-0.000000	-0.000000	0.000000	0.000000	2.701020	1.175020	-0.564620	-0.006653	0.981138	0.042786	-1.000000	-1.000000	-1.000000	-1.000000	-1.000000	-1.000000	-1.000000	146.482759	0.000000	-1.000000	-1.000000	371369.000000	1772311401.495273
-16890.030000	-18545.625000	-20875.545000	-13013.730000	0.000000	0.000000	0.000000	0.000000	0.129414	-5.310265	-12.816499	-15.422509	-0.000000	-0.000000	0.000000	0.000000	2.701020	1.175020	-0.564620	-0.006653	0.981138	0.042786	-1.000000	-1.000000	-1.000000	-1.000000	-1.000000	-1.000000	-1.000000	146.482759	0.000000	-1.000000	-1.000000	371370.000000	1772311401.495276
-16906.320000	-18547.155000	-20859.030000	-12988.440000	0.000000	0.000000	0.000000	0.000000	-15.921435	-4.023467	-21.164558	-21.713310	-0.000000	-0.000000	0.000000	0.000000	2.701020	1.175020	-0.564620	-0.006653	0.981138	0.042786	-1.000000	-1.000000	-1.000000	-1.000000	-1.000000	-1.000000	-1.000000	146.482759	0.000000	-1.000000	-1.000000	371371.000000	1772311401.499181
-16884.540000	-18588.825000	-20820.915000	-12946.140000	0.000000	0.000000	0.000000	0.000000	-23.944924	1.172803	-19.021433	-18.957269	-0.000000	-0.000000	0.000000	0.000000	2.701020	1.175020	-0.564620	-0.006653	0.981138	0.042786	-1.000000	-1.000000	-1.000000	-1.000000	-1.000000	-1.000000	-1.000000	146.482759	0.000000	-1.000000	-1.000000	371372.000000	1772311401.499184
-16861.005000	-18609.120000	-20829.645000	-12943.530000	0.000000	0.000000	0.000000	0.000000	-17.041757	1.352989	-3.433571	-1.796195	-0.000000	-0.000000	0.000000	0.000000	2.701020	1.175020	-0.564620	-0.006653	0.981138	0.042786	-1.000000	-1.000000	-1.000000	-1.000000	-1.000000	-1.000000	-1.000000	146.482759	0.000000	-1.000000	-1.000000	371373.000000	1772311401.503094
-16888.095000	-18588.330000	-20875.005000	-12967.695000	0.000000	0.000000	0.000000	0.000000	1.684965	-5.201044	15.718207	20.729248	-0.000000	-0.000000	0.000000	0.000000	2.701020	1.175020	-0.564620	-0.006653	0.981138	0.042786	-1.000000	-1.000000	-1.000000	-1.000000	-1.000000	-1.000000	-1.000000	146.482759	0.000000	-1.000000	-1.000000	371374.000000	1772311401.503097
-16864.380000	-18613.620000	-20830.050000	-12963.060000	0.000000	0.000000	0.000000	0.000000	20.155933	-11.333928	25.055716	33.092638	-0.000000	-0.000000	0.000000	0.000000	2.701020	1.175020	-0.564620	-0.006653	0.981138	0.042786	-1.000000	-1.000000	-1.000000	-1.000000	-1.000000	-1.000000	-1.000000	146.482759	0.000000	-1.000000	-1.000000	371375.000000	1772311401.507344
-16825.410000	-18661.320000	-20772.720000	-12921.210000	0.000000	0.000000	0.000000	0.000000	28.857899	-11.942923	23.059839	29.384323	-0.000000	-0.000000	0.000000	0.000000	2.701020	1.175020	-0.564620	-0.006653	0.981138	0.042786	-1.000000	-1.000000	-1.000000	-1.000000	-1.000000	-1.000000	-1.000000	146.482759	0.000000	-1.000000	-1.000000	371376.000000	1772311401.507347
-16823.745000	-18708.660000	-20734.290000	-12906.990000	0.000000	0.000000	0.000000	0.000000	27.182591	-9.607480	18.405306	16.751295	-0.000000	-0.000000	0.000000	0.000000	1.892240	2.411080	0.000000	-0.007629	0.983640	0.040710	-1.000000	-1.000000	-1.000000	-1.000000	-1.000000	-1.000000	-1.000000	146.482759	0.000000	-1.000000	-1.000000	371377.000000	1772311401.511543
-16847.550000	-18752.670000	-20767.905000	-12924.495000	0.000000	0.000000	0.000000	0.000000	17.283036	-8.144023	14.546646	3.764469	-0.000000	-0.000000	0.000000	0.000000	1.892240	2.411080	0.000000	-0.007629	0.983640	0.040710	-1.000000	-1.000000	-1.000000	-1.000000	-1.000000	-1.000000	-1.000000	146.482759	0.000000	-1.000000	-1.000000	371378.000000	1772311401.511545
-16812.225000	-18778.140000	-20815.470000	-12920.040000	0.000000	0.000000	0.000000	0.000000	1.542563	-6.937052	5.242580	-7.266009	-0.000000	-0.000000	0.000000	0.000000	1.892240	2.411080	0.000000	-0.007629	0.983640	0.040710	-1.000000	-1.000000	-1.000000	-1.000000	-1.000000	-1.000000	-1.000000	146.482759	0.000000	-1.000000	-1.000000	371379.000000	1772311401.515259
-16801.920000	-18748.845000	-20800.215000	-12922.695000	0.000000	0.000000	0.000000	0.000000	-13.592817	-1.693665	-13.016153	-16.065651	-0.000000	-0.000000	0.000000	0.000000	1.892240	2.411080	0.000000	-0.007629	0.983640	0.040710	-1.000000	-1.000000	-1.000000	-1.000000	-1.000000	-1.000000	-1.000000	146.482759	0.000000	-1.000000	-1.000000	371380.000000	1772311401.515262
-16866.765000	-18713.115000	-20851.380000	-12962.970000	0.000000	0.000000	0.000000	0.000000	-22.339418	11.403557	-32.167539	-21.350710	-0.000000	-0.000000	0.000000	0.000000	1.892240	2.411080	0.000000	-0.007629	0.983640	0.040710	-1.000000	-1.000000	-1.000000	-1.000000	-1.000000	-1.000000	-1.000000	146.482759	0.000000	-1.000000	-1.000000	371381.000000	1772311401.519318
-16883.055000	-18698.490000	-20868.165000	-12962.970000	0.000000	0.000000	0.000000	0.000000	-25.992174	29.754632	-41.149490	-22.580970	-0.000000	-0.000000	0.000000	0.000000	1.892240	2.411080	0.000000	-0.007629	0.983640	0.040710	-1.000000	-1.000000	-1.000000	-1.000000	-1.000000	-1.000000	-1.000000	146.482759	0.000000	-1.000000	-1.000000	371382.000000	1772311401.519321
-16844.670000	-18665.820000	-20851.380000	-12936.645000	0.000000	0.000000	0.000000	0.000000	-25.708409	43.392957	-34.988726	-18.470535	-0.000000	-0.000000	0.000000	0.000000	1.892240	2.411080	0.000000	-0.007629	0.983640	0.040710	-1.000000	-1.000000	-1.000000	-1.000000	-1.000000	-1.000000	-1.000000	146.482759	0.000000	-1.000000	-1.000000	371383.000000	1772311401.524811
-16844.265000	-18616.275000	-20832.615000	-12920.985000	0.000000	0.000000	0.000000	0.000000	-17.339270	43.531390	-14.540603	-6.968705	-0.000000	-0.000000	0.000000	0.000000	1.892240	2.411080	0.000000	-0.007629	0.983640	0.040710	-1.000000	-1.000000	-1.000000	-1.000000	-1.000000	-1.000000	-1.000000	146.482759	0.000000	-1.000000	-1.000000	371384.000000	1772311401.524815
-16844.625000	-18618.210000	-20836.665000	-12951.855000	0.000000	0.000000	0.000000	0.000000	-0.603679	29.196431	12.984018	8.725918	-0.000000	-0.000000	0.000000	0.000000	1.892240	2.411080	0.000000	-0.007629	0.983640	0.040710	-1.000000	-1.000000	-1.000000	-1.000000	-1.000000	-1.000000	-1.000000	146.482759	0.000000	-1.000000	-1.000000	371385.000000	1772311401.527237
-16823.700000	-18623.565000	-20834.370000	-12959.415000	0.000000	0.000000	0.000000	0.000000	16.783658	4.571821	35.112759	19.419321	-0.000000	-0.000000	0.000000	0.000000	1.892240	2.411080	0.000000	-0.007629	0.983640	0.040710	-1.000000	-1.000000	-1.000000	-1.000000	-1.000000	-1.000000	-1.000000	146.482759	0.000000	-1.000000	-1.000000	371386.000000	1772311401.527240
-16866.720000	-18637.425000	-20822.265000	-12945.240000	0.000000	0.000000	0.000000	0.000000	26.024008	-23.726898	42.161172	19.398796	-0.000000	-0.000000	0.000000	0.000000	0.610400	2.838360	1.434440	-0.008850	0.986265	0.038147	-1.000000	-1.000000	-1.000000	-1.000000	-1.000000	-1.000000	-1.000000	146.482759	0.000000	-1.000000	-1.000000	371387.000000	1772311401.531322
-16924.680000	-18642.330000	-20832.795000	-12956.220000	0.000000	0.000000	0.000000	0.000000	21.582887	-46.604368	33.320823	11.841106	-0.000000	-0.000000	0.000000	0.000000	0.610400	2.838360	1.434440	-0.008850	0.986265	0.038147	-1.000000	-1.000000	-1.000000	-1.000000	-1.000000	-1.000000	-1.000000	146.482759	0.000000	-1.000000	-1.000000	371388.000000	1772311401.531325
-16874.415000	-18657.630000	-20825.775000	-12952.665000	0.000000	0.000000	0.000000	0.000000	5.649685	-55.640262	14.743455	3.038650	-0.000000	-0.000000	0.000000	0.000000	0.610400	2.838360	1.434440	-0.008850	0.986265	0.038147	-1.000000	-1.000000	-1.000000	-1.000000	-1.000000	-1.000000	-1.000000	146.482759	0.000000	-1.000000	-1.000000	371389.000000	1772311401.535367
-16790.580000	-18698.895000	-20801.700000	-12941.145000	0.000000	0.000000	0.000000	0.000000	-7.732802	-48.580750	-4.516580	-2.922794	-0.000000	-0.000000	0.000000	0.000000	0.610400	2.838360	1.434440	-0.008850	0.986265	0.038147	-1.000000	-1.000000	-1.000000	-1.000000	-1.000000	-1.000000	-1.000000	146.482759	0.000000	-1.000000	-1.000000	371390.000000	1772311401.535413
-16744.140000	-18721.755000	-20776.410000	-12898.620000	0.000000	0.000000	0.000000	0.000000	-4.401026	-30.598145	-16.083541	-3.801902	-0.000000	-0.000000	0.000000	0.000000	0.610400	2.838360	1.434440	-0.008850	0.986265	0.038147	-1.000000	-1.000000	-1.000000	-1.000000	-1.000000	-1.000000	-1.000000	146.482759	0.000000	-1.000000	-1.000000	371391.000000	1772311401.540565
-16751.520000	-18701.595000	-20793.240000	-12864.735000	0.000000	0.000000	0.000000	0.000000	12.063198	-8.470443	-17.448808	0.945979	-0.000000	-0.000000	0.000000	0.000000	0.610400	2.838360	1.434440	-0.008850	0.986265	0.038147	-1.000000	-1.000000	-1.000000	-1.000000	-1.000000	-1.000000	-1.000000	146.482759	0.000000	-1.000000	-1.000000	371392.000000	1772311401.540576
-16755.795000	-18699.300000	-20823.795000	-12882.915000	0.000000	0.000000	0.000000	0.000000	23.164621	13.990533	-14.023053	7.622322	-0.000000	-0.000000	0.000000	0.000000	0.610400	2.838360	1.434440	-0.008850	0.986265	0.038147	-1.000000	-1.000000	-1.000000	-1.000000	-1.000000	-1.000000	-1.000000	146.482759	0.000000	-1.000000	-1.000000	371393.000000	1772311401.549807
-16821.135000	-18706.995000	-20851.605000	-12951.045000	0.000000	0.000000	0.000000	0.000000	14.666631	32.788290	-13.046449	7.629907	-0.000000	-0.000000	0.000000	0.000000	0.610400	2.838360	1.434440	-0.008850	0.986265	0.038147	-1.000000	-1.000000	-1.000000	-1.000000	-1.000000	-1.000000	-1.000000	146.482759	0.000000	-1.000000	-1.000000	371394.000000	1772311401.549813
-16913.430000	-18712.935000	-20858.355000	-12980.025000	0.000000	0.000000	0.000000	0.000000	-12.905952	41.802342	-15.557945	-4.993668	-0.000000	-0.000000	0.000000	0.000000	0.610400	2.838360	1.434440	-0.008850	0.986265	0.038147	-1.000000	-1.000000	-1.000000	-1.000000	-1.000000	-1.000000	-1.000000	146.482759	0.000000	-1.000000	-1.000000	371395.000000	1772311401.549819
-16906.680000	-18720.540000	-20854.890000	-12946.455000	0.000000	0.000000	0.000000	0.000000	-45.265934	37.499364	-15.995264	-23.269529	-0.000000	-0.000000	0.000000	0.000000	0.610400	2.838360	1.434440	-0.008850	0.986265	0.038147	-1.000000	-1.000000	-1.000000	-1.000000	-1.000000	-1.000000	-1.000000	146.482759	0.000000	-1.000000	-1.000000	371396.000000	1772311401.549821
-16906.995000	-18720.495000	-20822.535000	-12879.540000	0.000000	0.000000	0.000000	0.000000	-60.641924	22.642831	-8.558038	-29.863418	-0.000000	-0.000000	0.000000	0.000000	-5.798800	3.753960	1.785420	-0.006409	0.987729	0.031128	-1.000000	-1.000000	-1.000000	-1.000000	-1.000000	-1.000000	-1.000000	146.482759	0.000000	-1.000000	-1.000000	371397.000000	1772311401.556659
-16901.865000	-18710.325000	-20806.155000	-12824.910000	0.000000	0.000000	0.000000	0.000000	-45.391259	4.680145	6.918940	-13.932147	-0.000000	-0.000000	0.000000	0.000000	-5.798800	3.753960	1.785420	-0.006409	0.987729	0.031128	-1.000000	-1.000000	-1.000000	-1.000000	-1.000000	-1.000000	-1.000000	146.482759	0.000000	-1.000000	-1.000000	371398.000000	1772311401.556663
-16806.240000	-18670.230000	-20768.400000	-12800.565000	0.000000	0.000000	0.000000	0.000000	-4.857580	-8.202820	24.055897	16.514273	-0.000000	-0.000000	0.000000	0.000000	-5.798800	3.753960	1.785420	-0.006409	0.987729	0.031128	-1.000000	-1.000000	-1.000000	-1.000000	-1.000000	-1.000000	-1.000000	146.482759	0.000000	-1.000000	-1.000000	371399.000000	1772311401.556668
-16834.905000	-18669.015000	-20790.270000	-12825.405000	0.000000	0.000000	0.000000	0.000000	41.838644	-11.644434	33.632291	40.003942	-0.000000	-0.000000	0.000000	0.000000	-5.798800	3.753960	1.785420	-0.006409	0.987729	0.031128	-1.000000	-1.000000	-1.000000	-1.000000	-1.000000	-1.000000	-1.000000	146.482759	0.000000	-1.000000	-1.000000	371400.000000	1772311401.556670
-16925.940000	-18709.785000	-20896.560000	-12976.695000	0.000000	0.000000	0.000000	0.000000	69.244159	-9.167272	26.989806	36.466936	-0.000000	-0.000000	0.000000	0.000000	-5.798800	3.753960	1.785420	-0.006409	0.987729	0.031128	-1.000000	-1.000000	-1.000000	-1.000000	-1.000000	-1.000000	-1.000000	146.482759	0.000000	-1.000000	-1.000000	371401.000000	1772311401.559424
-16886.745000	-18722.025000	-20949.615000	-13053.825000	0.000000	0.000000	0.000000	0.000000	60.228836	-8.934861	1.290706	1.115984	-0.000000	-0.000000	0.000000	0.000000	-5.798800	3.753960	1.785420	-0.006409	0.987729	0.031128	-1.000000	-1.000000	-1.000000	-1.000000	-1.000000	-1.000000	-1.000000	146.482759	0.000000	-1.000000	-1.000000	371402.000000	1772311401.559427
-16733.295000	-18731.070000	-20932.020000	-13082.670000	0.000000	0.000000	0.000000	0.000000	26.914995	-13.680089	-31.290926	-46.629820	-0.000000	-0.000000	0.000000	0.000000	-5.798800	3.753960	1.785420	-0.006409	0.987729	0.031128	-1.000000	-1.000000	-1.000000	-1.000000	-1.000000	-1.000000	-1.000000	146.482759	0.000000	-1.000000	-1.000000	371403.000000	1772311401.563453
-16690.365000	-18734.535000	-20834.685000	-13013.280000	0.000000	0.000000	0.000000	0.000000	0.637959	-18.029967	-46.037064	-71.837763	-0.000000	-0.000000	0.000000	0.000000	-5.798800	3.753960	1.785420	-0.006409	0.987729	0.031128	-1.000000	-1.000000	-1.000000	-1.000000	-1.000000	-1.000000	-1.000000	146.482759	0.000000	-1.000000	-1.000000	371404.000000	1772311401.563456
-16845.660000	-18731.925000	-20747.925000	-12952.665000	0.000000	0.000000	0.000000	0.000000	-7.833388	-15.835408	-26.153224	-50.999296	-0.000000	-0.000000	0.000000	0.000000	-5.798800	3.753960	1.785420	-0.006409	0.987729	0.031128	-1.000000	-1.000000	-1.000000	-1.000000	-1.000000	-1.000000	-1.000000	146.482759	0.000000	-1.000000	-1.000000	371405.000000	1772311401.567320
-17007.255000	-18723.915000	-20739.915000	-12925.395000	0.000000	0.000000	0.000000	0.000000	-19.434669	-6.031382	18.491129	7.033508	-0.000000	-0.000000	0.000000	0.000000	-5.798800	3.753960	1.785420	-0.006409	0.987729	0.031128	-1.000000	-1.000000	-1.000000	-1.000000	-1.000000	-1.000000	-1.000000	146.482759	0.000000	-1.000000	-1.000000	371406.000000	1772311401.567323
-16901.280000	-18687.150000	-20751.930000	-12940.740000	0.000000	0.000000	0.000000	0.000000	-46.907024	7.875748	55.908701	66.131436	-0.000000	-0.000000	0.000000	0.000000	-10.285240	3.494540	0.274680	-0.005249	0.986081	0.031494	-1.000000	-1.000000	-1.000000	-1.000000	-1.000000	-1.000000	-1.000000	146.482759	0.000000	-1.000000	-1.000000	371407.000000	1772311401.571343
-16825.140000	-18652.455000	-20758.320000	-12962.970000	0.000000	0.000000	0.000000	0.000000	-65.615755	21.129945	58.871863	90.029551	-0.000000	-0.000000	0.000000	0.000000	-10.285240	3.494540	0.274680	-0.005249	0.986081	0.031494	-1.000000	-1.000000	-1.000000	-1.000000	-1.000000	-1.000000	-1.000000	146.482759	0.000000	-1.000000	-1.000000	371408.000000	1772311401.571346
-16945.740000	-18643.230000	-20689.245000	-12953.115000	0.000000	0.000000	0.000000	0.000000	-48.665284	28.921851	28.008473	68.036530	-0.000000	-0.000000	0.000000	0.000000	-10.285240	3.494540	0.274680	-0.005249	0.986081	0.031494	-1.000000	-1.000000	-1.000000	-1.000000	-1.000000	-1.000000	-1.000000	146.482759	0.000000	-1.000000	-1.000000	371409.000000	1772311401.577864
-16975.755000	-18652.815000	-20597.805000	-12921.030000	0.000000	0.000000	0.000000	0.000000	-8.162591	26.426891	-10.986603	19.091307	-0.000000	-0.000000	0.000000	0.000000	-10.285240	3.494540	0.274680	-0.005249	0.986081	0.031494	-1.000000	-1.000000	-1.000000	-1.000000	-1.000000	-1.000000	-1.000000	146.482759	0.000000	-1.000000	-1.000000	371410.000000	1772311401.577868
-16884.360000	-18672.120000	-20783.385000	-12963.375000	0.000000	0.000000	0.000000	0.000000	27.012482	11.840650	-36.087281	-27.370123	-0.000000	-0.000000	0.000000	0.000000	-10.285240	3.494540	0.274680	-0.005249	0.986081	0.031494	-1.000000	-1.000000	-1.000000	-1.000000	-1.000000	-1.000000	-1.000000	146.482759	0.000000	-1.000000	-1.000000	371411.000000	1772311401.579329
-16954.470000	-18703.440000	-20971.080000	-12973.905000	0.000000	0.000000	0.000000	0.000000	45.640029	-10.428257	-52.449479	-53.754598	-0.000000	-0.000000	0.000000	0.000000	-10.285240	3.494540	0.274680	-0.005249	0.986081	0.031494	-1.000000	-1.000000	-1.000000	-1.000000	-1.000000	-1.000000	-1.000000	146.482759	0.000000	-1.000000	-1.000000	371412.000000	1772311401.579332
-17002.755000	-18724.005000	-20889.225000	-12924.405000	0.000000	0.000000	0.000000	0.000000	46.569926	-31.126125	-69.855052	-56.785976	-0.000000	-0.000000	0.000000	0.000000	-10.285240	3.494540	0.274680	-0.005249	0.986081	0.031494	-1.000000	-1.000000	-1.000000	-1.000000	-1.000000	-1.000000	-1.000000	146.482759	0.000000	-1.000000	-1.000000	371413.000000	1772311401.583462
-16967.655000	-18729.000000	-20880.990000	-12947.130000	0.000000	0.000000	0.000000	0.000000	30.633267	-40.675341	-71.583129	-39.917004	-0.000000	-0.000000	0.000000	0.000000	-10.285240	3.494540	0.274680	-0.005249	0.986081	0.031494	-1.000000	-1.000000	-1.000000	-1.000000	-1.000000	-1.000000	-1.000000	146.482759	0.000000	-1.000000	-1.000000	371414.000000	1772311401.583465
-16936.650000	-18756.720000	-20882.970000	-12919.320000	0.000000	0.000000	0.000000	0.000000	9.078239	-34.501813	-37.744690	-12.823323	-0.000000	-0.000000	0.000000	0.000000	-10.285240	3.494540	0.274680	-0.005249	0.986081	0.031494	-1.000000	-1.000000	-1.000000	-1.000000	-1.000000	-1.000000	-1.000000	146.482759	0.000000	-1.000000	-1.000000	371415.000000	1772311401.587346
-16802.100000	-18762.210000	-20856.060000	-12932.280000	0.000000	0.000000	0.000000	0.000000	-1.534393	-16.160079	20.995651	11.551693	-0.000000	-0.000000	0.000000	0.000000	-10.285240	3.494540	0.274680	-0.005249	0.986081	0.031494	-1.000000	-1.000000	-1.000000	-1.000000	-1.000000	-1.000000	-1.000000	146.482759	0.000000	-1.000000	-1.000000	371416.000000	1772311401.587348
-16746.030000	-18819.900000	-20811.330000	-12932.910000	0.000000	0.000000	0.000000	0.000000	5.886688	4.899712	74.682041	24.254282	-0.000000	-0.000000	0.000000	0.000000	-4.379620	2.975700	0.763000	-0.007263	0.983640	0.048889	-1.000000	-1.000000	-1.000000	-1.000000	-1.000000	-1.000000	-1.000000	146.482759	0.000000	-1.000000	-1.000000	371417.000000	1772311401.591433
-16969.770000	-18869.670000	-20768.670000	-12926.385000	0.000000	0.000000	0.000000	0.000000	16.845822	18.498057	100.306456	23.580937	-0.000000	-0.000000	0.000000	0.000000	-4.379620	2.975700	0.763000	-0.007263	0.983640	0.048889	-1.000000	-1.000000	-1.000000	-1.000000	-1.000000	-1.000000	-1.000000	146.482759	0.000000	-1.000000	-1.000000	371418.000000	1772311401.591437
-17166.645000	-18862.020000	-20703.645000	-12916.575000	0.000000	0.000000	0.000000	0.000000	1.110357	20.643682	91.957200	14.567453	-0.000000	-0.000000	0.000000	0.000000	-4.379620	2.975700	0.763000	-0.007263	0.983640	0.048889	-1.000000	-1.000000	-1.000000	-1.000000	-1.000000	-1.000000	-1.000000	146.482759	0.000000	-1.000000	-1.000000	371419.000000	1772311401.595403
-17146.260000	-18858.870000	-20609.865000	-12892.905000	0.000000	0.000000	0.000000	0.000000	-47.985377	17.138774	59.150752	4.825164	-0.000000	-0.000000	0.000000	0.000000	-4.379620	2.975700	0.763000	-0.007263	0.983640	0.048889	-1.000000	-1.000000	-1.000000	-1.000000	-1.000000	-1.000000	-1.000000	146.482759	0.000000	-1.000000	-1.000000	371420.000000	1772311401.595407
-17049.555000	-18852.165000	-20558.025000	-12901.185000	0.000000	0.000000	0.000000	0.000000	-89.888129	16.028352	18.388885	-0.923135	-0.000000	-0.000000	0.000000	0.000000	-4.379620	2.975700	0.763000	-0.007263	0.983640	0.048889	-1.000000	-1.000000	-1.000000	-1.000000	-1.000000	-1.000000	-1.000000	146.482759	0.000000	-1.000000	-1.000000	371421.000000	1772311401.599469
-16949.430000	-18852.615000	-20617.650000	-12926.385000	0.000000	0.000000	0.000000	0.000000	-76.544692	18.469041	-19.716540	-3.631058	-0.000000	-0.000000	0.000000	0.000000	-4.379620	2.975700	0.763000	-0.007263	0.983640	0.048889	-1.000000	-1.000000	-1.000000	-1.000000	-1.000000	-1.000000	-1.000000	146.482759	0.000000	-1.000000	-1.000000	371422.000000	1772311401.599472
-16977.105000	-18886.545000	-20827.305000	-12960.990000	0.000000	0.000000	0.000000	0.000000	-7.030767	19.032977	-57.463139	-7.415506	-0.000000	-0.000000	0.000000	0.000000	-4.379620	2.975700	0.763000	-0.007263	0.983640	0.048889	-1.000000	-1.000000	-1.000000	-1.000000	-1.000000	-1.000000	-1.000000	146.482759	0.000000	-1.000000	-1.000000	371423.000000	1772311401.604291
-17021.745000	-18914.220000	-20965.950000	-12981.195000	0.000000	0.000000	0.000000	0.000000	69.872661	11.843081	-99.137533	-13.566384	-0.000000	-0.000000	0.000000	0.000000	-4.379620	2.975700	0.763000	-0.007263	0.983640	0.048889	-1.000000	-1.000000	-1.000000	-1.000000	-1.000000	-1.000000	-1.000000	146.482759	0.000000	-1.000000	-1.000000	371424.000000	1772311401.604294
-17021.745000	-18927.360000	-20907.720000	-12961.215000	0.000000	0.000000	0.000000	0.000000	102.745761	-2.905170	-129.138238	-17.597823	-0.000000	-0.000000	0.000000	0.000000	-4.379620	2.975700	0.763000	-0.007263	0.983640	0.048889	-1.000000	-1.000000	-1.000000	-1.000000	-1.000000	-1.000000	-1.000000	146.482759	0.000000	-1.000000	-1.000000	371425.000000	1772311401.607546
-17014.815000	-18896.175000	-20952.720000	-13000.590000	0.000000	0.000000	0.000000	0.000000	79.717887	-17.037923	-116.179094	-13.944260	-0.000000	-0.000000	0.000000	0.000000	-4.379620	2.975700	0.763000	-0.007263	0.983640	0.048889	-1.000000	-1.000000	-1.000000	-1.000000	-1.000000	-1.000000	-1.000000	146.482759	0.000000	-1.000000	-1.000000	371426.000000	1772311401.607549
-16867.395000	-18870.570000	-20905.695000	-13001.400000	0.000000	0.000000	0.000000	0.000000	28.892151	-20.490051	-50.058049	-3.380168	-0.000000	-0.000000	0.000000	0.000000	12.330080	-3.097780	7.996240	-0.024658	0.980893	0.074890	-1.000000	-1.000000	-1.000000	-1.000000	-1.000000	-1.000000	-1.000000	146.482759	0.000000	-1.000000	-1.000000	371427.000000	1772311401.611542
-16901.190000	-18847.755000	-20789.145000	-12922.560000	0.000000	0.000000	0.000000	0.000000	-12.718325	-10.637640	44.173265	9.769801	-0.000000	-0.000000	0.000000	0.000000	12.330080	-3.097780	7.996240	-0.024658	0.980893	0.074890	-1.000000	-1.000000	-1.000000	-1.000000	-1.000000	-1.000000	-1.000000	146.482759	0.000000	-1.000000	-1.000000	371428.000000	1772311401.611545
-16989.975000	-18847.665000	-20826.720000	-12923.685000	0.000000	0.000000	0.000000	0.000000	-32.806125	4.784366	126.058975	23.333040	-0.000000	-0.000000	0.000000	0.000000	12.330080	-3.097780	7.996240	-0.024658	0.980893	0.074890	-1.000000	-1.000000	-1.000000	-1.000000	-1.000000	-1.000000	-1.000000	146.482759	0.000000	-1.000000	-1.000000	371429.000000	1772311401.615513
-16884.810000	-18863.460000	-20823.885000	-12920.175000	0.000000	0.000000	0.000000	0.000000	-41.487980	14.014748	158.748891	32.526762	-0.000000	-0.000000	0.000000	0.000000	12.330080	-3.097780	7.996240	-0.024658	0.980893	0.074890	-1.000000	-1.000000	-1.000000	-1.000000	-1.000000	-1.000000	-1.000000	146.482759	0.000000	-1.000000	-1.000000	371430.000000	1772311401.615516
-16796.655000	-18840.240000	-20796.885000	-12885.390000	0.000000	0.000000	0.000000	0.000000	-40.834726	10.974383	128.611457	30.299414	-0.000000	-0.000000	0.000000	0.000000	12.330080	-3.097780	7.996240	-0.024658	0.980893	0.074890	-1.000000	-1.000000	-1.000000	-1.000000	-1.000000	-1.000000	-1.000000	146.482759	0.000000	-1.000000	-1.000000	371431.000000	1772311401.619521
-16754.265000	-18819.585000	-20753.370000	-12863.880000	0.000000	0.000000	0.000000	0.000000	-24.164777	0.108872	56.808054	16.763047	-0.000000	-0.000000	0.000000	0.000000	12.330080	-3.097780	7.996240	-0.024658	0.980893	0.074890	-1.000000	-1.000000	-1.000000	-1.000000	-1.000000	-1.000000	-1.000000	146.482759	0.000000	-1.000000	-1.000000	371432.000000	1772311401.619523
-16874.055000	-18834.390000	-20815.200000	-12934.440000	0.000000	0.000000	0.000000	0.000000	-0.426015	-9.727124	-19.671085	-2.427252	-0.000000	-0.000000	0.000000	0.000000	12.330080	-3.097780	7.996240	-0.024658	0.980893	0.074890	-1.000000	-1.000000	-1.000000	-1.000000	-1.000000	-1.000000	-1.000000	146.482759	0.000000	-1.000000	-1.000000	371433.000000	1772311401.623467
-17033.940000	-18837.270000	-20955.375000	-13003.155000	0.000000	0.000000	0.000000	0.000000	5.711662	-14.520203	-77.221427	-24.251759	-0.000000	-0.000000	0.000000	0.000000	12.330080	-3.097780	7.996240	-0.024658	0.980893	0.074890	-1.000000	-1.000000	-1.000000	-1.000000	-1.000000	-1.000000	-1.000000	146.482759	0.000000	-1.000000	-1.000000	371434.000000	1772311401.623469
-17178.705000	-18840.735000	-21026.565000	-13035.645000	0.000000	0.000000	0.000000	0.000000	-19.064629	-15.090248	-110.477416	-45.060927	-0.000000	-0.000000	0.000000	0.000000	12.330080	-3.097780	7.996240	-0.024658	0.980893	0.074890	-1.000000	-1.000000	-1.000000	-1.000000	-1.000000	-1.000000	-1.000000	146.482759	0.000000	-1.000000	-1.000000	371435.000000	1772311401.631197
-17097.615000	-18825.165000	-20922.120000	-12989.565000	0.000000	0.000000	0.000000	0.000000	-54.925206	-12.224867	-113.725244	-53.699751	-0.000000	-0.000000	0.000000	0.000000	12.330080	-3.097780	7.996240	-0.024658	0.980893	0.074890	-1.000000	-1.000000	-1.000000	-1.000000	-1.000000	-1.000000	-1.000000	146.482759	0.000000	-1.000000	-1.000000	371436.000000	1772311401.631200
-16952.310000	-18817.380000	-20844.225000	-12940.920000	0.000000	0.000000	0.000000	0.000000	-59.362473	-5.867712	-75.827437	-37.933809	-0.000000	-0.000000	0.000000	0.000000	45.993640	-23.973460	24.965360	-0.058533	0.949766	0.126403	-1.000000	-1.000000	-1.000000	-1.000000	-1.000000	-1.000000	-1.000000	146.482759	0.000000	-1.000000	-1.000000	371437.000000	1772311401.631630
-17077.050000	-18810.090000	-20893.590000	-12978.090000	0.000000	0.000000	0.000000	0.000000	-12.358163	2.625119	-4.279593	-0.574147	-0.000000	-0.000000	0.000000	0.000000	45.993640	-23.973460	24.965360	-0.058533	0.949766	0.126403	-1.000000	-1.000000	-1.000000	-1.000000	-1.000000	-1.000000	-1.000000	146.482759	0.000000	-1.000000	-1.000000	371438.000000	1772311401.631634
-17035.155000	-18800.955000	-20881.890000	-12979.530000	0.000000	0.000000	0.000000	0.000000	55.104092	9.967455	64.393227	36.900974	-0.000000	-0.000000	0.000000	0.000000	45.993640	-23.973460	24.965360	-0.058533	0.949766	0.126403	-1.000000	-1.000000	-1.000000	-1.000000	-1.000000	-1.000000	-1.000000	146.482759	0.000000	-1.000000	-1.000000	371439.000000	1772311401.635750
-16879.545000	-18806.580000	-20849.985000	-12945.420000	0.000000	0.000000	0.000000	0.000000	98.997066	12.981463	95.189977	53.766750	-0.000000	-0.000000	0.000000	0.000000	45.993640	-23.973460	24.965360	-0.058533	0.949766	0.126403	-1.000000	-1.000000	-1.000000	-1.000000	-1.000000	-1.000000	-1.000000	146.482759	0.000000	-1.000000	-1.000000	371440.000000	1772311401.635753
-16823.790000	-18796.905000	-20801.565000	-12966.660000	0.000000	0.000000	0.000000	0.000000	106.346036	10.598569	83.218381	46.686013	-0.000000	-0.000000	0.000000	0.000000	45.993640	-23.973460	24.965360	-0.058533	0.949766	0.126403	-1.000000	-1.000000	-1.000000	-1.000000	-1.000000	-1.000000	-1.000000	146.482759	0.000000	-1.000000	-1.000000	371441.000000	1772311401.639690
-16748.280000	-18776.340000	-20812.455000	-12967.965000	0.000000	0.000000	0.000000	0.000000	84.851020	4.968483	46.220144	24.368907	-0.000000	-0.000000	0.000000	0.000000	45.993640	-23.973460	24.965360	-0.058533	0.949766	0.126403	-1.000000	-1.000000	-1.000000	-1.000000	-1.000000	-1.000000	-1.000000	146.482759	0.000000	-1.000000	-1.000000	371442.000000	1772311401.639693
-16910.820000	-18758.745000	-20798.055000	-12970.845000	0.000000	0.000000	0.000000	0.000000	39.584638	0.216425	3.854782	-1.960767	-0.000000	-0.000000	0.000000	0.000000	45.993640	-23.973460	24.965360	-0.058533	0.949766	0.126403	-1.000000	-1.000000	-1.000000	-1.000000	-1.000000	-1.000000	-1.000000	146.482759	0.000000	-1.000000	-1.000000	371443.000000	1772311401.644812
-17080.155000	-18743.355000	-20767.590000	-12998.700000	0.000000	0.000000	0.000000	0.000000	-28.361716	-1.259208	-29.965169	-22.527098	-0.000000	-0.000000	0.000000	0.000000	45.993640	-23.973460	24.965360	-0.058533	0.949766	0.126403	-1.000000	-1.000000	-1.000000	-1.000000	-1.000000	-1.000000	-1.000000	146.482759	0.000000	-1.000000	-1.000000	371444.000000	1772311401.644815
-17027.595000	-18728.415000	-20711.655000	-12966.795000	0.000000	0.000000	0.000000	0.000000	-103.169934	-0.413606	-45.877378	-31.585752	-0.000000	-0.000000	0.000000	0.000000	45.993640	-23.973460	24.965360	-0.058533	0.949766	0.126403	-1.000000	-1.000000	-1.000000	-1.000000	-1.000000	-1.000000	-1.000000	146.482759	0.000000	-1.000000	-1.000000	371445.000000	1772311401.651027
-16985.340000	-18702.630000	-20789.370000	-12964.005000	0.000000	0.000000	0.000000	0.000000	-144.328545	0.599500	-43.214106	-27.427149	-0.000000	-0.000000	0.000000	0.000000	45.993640	-23.973460	24.965360	-0.058533	0.949766	0.126403	-1.000000	-1.000000	-1.000000	-1.000000	-1.000000	-1.000000	-1.000000	146.482759	0.000000	-1.000000	-1.000000	371446.000000	1772311401.651030
-16965.810000	-18639.180000	-20873.340000	-12963.420000	0.000000	0.000000	0.000000	0.000000	-119.759345	1.544496	-34.021303	-13.310093	-0.000000	-0.000000	0.000000	0.000000	36.471400	-13.291460	16.801260	0.004150	1.008786	0.051758	-1.000000	-1.000000	-1.000000	-1.000000	-1.000000	-1.000000	-1.000000	146.482759	0.000000	-1.000000	-1.000000	371447.000000	1772311401.651477
-16916.355000	-18538.740000	-20805.120000	-12928.590000	0.000000	0.000000	0.000000	0.000000	-41.073712	5.083540	-29.046089	3.115180	-0.000000	-0.000000	0.000000	0.000000	36.471400	-13.291460	16.801260	0.004150	1.008786	0.051758	-1.000000	-1.000000	-1.000000	-1.000000	-1.000000	-1.000000	-1.000000	146.482759	0.000000	-1.000000	-1.000000	371448.000000	1772311401.651479
-16939.215000	-18513.270000	-20732.400000	-12941.415000	0.000000	0.000000	0.000000	0.000000	47.241843	12.124365	-21.274065	14.903308	-0.000000	-0.000000	0.000000	0.000000	36.471400	-13.291460	16.801260	0.004150	1.008786	0.051758	-1.000000	-1.000000	-1.000000	-1.000000	-1.000000	-1.000000	-1.000000	146.482759	0.000000	-1.000000	-1.000000	371449.000000	1772311401.655734
-16987.275000	-18529.155000	-20741.445000	-12981.105000	0.000000	0.000000	0.000000	0.000000	100.472460	15.570866	0.225036	17.270984	-0.000000	-0.000000	0.000000	0.000000	36.471400	-13.291460	16.801260	0.004150	1.008786	0.051758	-1.000000	-1.000000	-1.000000	-1.000000	-1.000000	-1.000000	-1.000000	146.482759	0.000000	-1.000000	-1.000000	371450.000000	1772311401.655736
-17048.115000	-18539.280000	-20858.040000	-13088.205000	0.000000	0.000000	0.000000	0.000000	97.823743	5.596333	25.858714	6.761957	-0.000000	-0.000000	0.000000	0.000000	36.471400	-13.291460	16.801260	0.004150	1.008786	0.051758	-1.000000	-1.000000	-1.000000	-1.000000	-1.000000	-1.000000	-1.000000	146.482759	0.000000	-1.000000	-1.000000	371451.000000	1772311401.659573
-17071.740000	-18535.005000	-20884.050000	-13078.935000	0.000000	0.000000	0.000000	0.000000	50.908857	-16.933714	33.435281	-13.636054	-0.000000	-0.000000	0.000000	0.000000	36.471400	-13.291460	16.801260	0.004150	1.008786	0.051758	-1.000000	-1.000000	-1.000000	-1.000000	-1.000000	-1.000000	-1.000000	146.482759	0.000000	-1.000000	-1.000000	371452.000000	1772311401.659575
-16999.335000	-18549.990000	-20857.680000	-13025.115000	0.000000	0.000000	0.000000	0.000000	-5.553544	-38.939024	18.212193	-28.906776	-0.000000	-0.000000	0.000000	0.000000	36.471400	-13.291460	16.801260	0.004150	1.008786	0.051758	-1.000000	-1.000000	-1.000000	-1.000000	-1.000000	-1.000000	-1.000000	146.482759	0.000000	-1.000000	-1.000000	371453.000000	1772311401.663691
-17026.740000	-18553.095000	-20909.205000	-13034.025000	0.000000	0.000000	0.000000	0.000000	-37.735984	-47.155335	-2.293983	-22.987718	-0.000000	-0.000000	0.000000	0.000000	36.471400	-13.291460	16.801260	0.004150	1.008786	0.051758	-1.000000	-1.000000	-1.000000	-1.000000	-1.000000	-1.000000	-1.000000	146.482759	0.000000	-1.000000	-1.000000	371454.000000	1772311401.663693
-17055.090000	-18562.905000	-20907.450000	-13024.305000	0.000000	0.000000	0.000000	0.000000	-37.068002	-37.494323	-12.016904	2.070447	-0.000000	-0.000000	0.000000	0.000000	36.471400	-13.291460	16.801260	0.004150	1.008786	0.051758	-1.000000	-1.000000	-1.000000	-1.000000	-1.000000	-1.000000	-1.000000	146.482759	0.000000	-1.000000	-1.000000	371455.000000	1772311401.667635
-17065.890000	-18559.845000	-20884.995000	-13031.595000	0.000000	0.000000	0.000000	0.000000	-19.379165	-15.090818	-7.901974	28.113400	-0.000000	-0.000000	0.000000	0.000000	36.471400	-13.291460	16.801260	0.004150	1.008786	0.051758	-1.000000	-1.000000	-1.000000	-1.000000	-1.000000	-1.000000	-1.000000	146.482759	0.000000	-1.000000	-1.000000	371456.000000	1772311401.667638
-17035.605000	-18569.475000	-20878.065000	-12996.765000	0.000000	0.000000	0.000000	0.000000	-1.856863	10.311892	5.670088	39.611756	-0.000000	-0.000000	0.000000	0.000000	18.327260	-2.380560	35.204820	0.048279	1.098935	-0.010071	-1.000000	-1.000000	-1.000000	-1.000000	-1.000000	-1.000000	-1.000000	146.482759	0.000000	-1.000000	-1.000000	371457.000000	1772311401.671674
-16981.920000	-18566.865000	-20897.460000	-12982.725000	0.000000	0.000000	0.000000	0.000000	10.538812	29.406694	19.817754	34.086993	-0.000000	-0.000000	0.000000	0.000000	18.327260	-2.380560	35.204820	0.048279	1.098935	-0.010071	-1.000000	-1.000000	-1.000000	-1.000000	-1.000000	-1.000000	-1.000000	146.482759	0.000000	-1.000000	-1.000000	371458.000000	1772311401.671677
-16919.055000	-18575.955000	-20904.750000	-12984.795000	0.000000	0.000000	0.000000	0.000000	20.276385	36.982505	24.641737	17.934266	-0.000000	-0.000000	0.000000	0.000000	18.327260	-2.380560	35.204820	0.048279	1.098935	-0.010071	-1.000000	-1.000000	-1.000000	-1.000000	-1.000000	-1.000000	-1.000000	146.482759	0.000000	-1.000000	-1.000000	371459.000000	1772311401.675761
-16911.405000	-18577.980000	-20870.550000	-12972.780000	0.000000	0.000000	0.000000	0.000000	27.180124	32.987056	17.483965	-1.405578	-0.000000	-0.000000	0.000000	0.000000	18.327260	-2.380560	35.204820	0.048279	1.098935	-0.010071	-1.000000	-1.000000	-1.000000	-1.000000	-1.000000	-1.000000	-1.000000	146.482759	0.000000	-1.000000	-1.000000	371460.000000	1772311401.675764
-16902.315000	-18567.720000	-20745.765000	-12917.295000	0.000000	0.000000	0.000000	0.000000	25.365386	21.562045	7.115618	-16.801521	-0.000000	-0.000000	0.000000	0.000000	18.327260	-2.380560	35.204820	0.048279	1.098935	-0.010071	-1.000000	-1.000000	-1.000000	-1.000000	-1.000000	-1.000000	-1.000000	146.482759	0.000000	-1.000000	-1.000000	371461.000000	1772311401.680184
-16950.465000	-18590.445000	-20749.365000	-13017.015000	0.000000	0.000000	0.000000	0.000000	9.718464	8.301199	4.311091	-24.189097	-0.000000	-0.000000	0.000000	0.000000	18.327260	-2.380560	35.204820	0.048279	1.098935	-0.010071	-1.000000	-1.000000	-1.000000	-1.000000	-1.000000	-1.000000	-1.000000	146.482759	0.000000	-1.000000	-1.000000	371462.000000	1772311401.680187
-17161.560000	-18607.860000	-20948.220000	-13131.135000	0.000000	0.000000	0.000000	0.000000	-20.323484	-3.421088	3.105224	-29.217503	-0.000000	-0.000000	0.000000	0.000000	18.327260	-2.380560	35.204820	0.048279	1.098935	-0.010071	-1.000000	-1.000000	-1.000000	-1.000000	-1.000000	-1.000000	-1.000000	146.482759	0.000000	-1.000000	-1.000000	371463.000000	1772311401.683693
-16987.815000	-18599.850000	-20878.650000	-13034.880000	0.000000	0.000000	0.000000	0.000000	-55.020051	-12.032640	-12.793835	-36.402599	-0.000000	-0.000000	0.000000	0.000000	18.327260	-2.380560	35.204820	0.048279	1.098935	-0.010071	-1.000000	-1.000000	-1.000000	-1.000000	-1.000000	-1.000000	-1.000000	146.482759	0.000000	-1.000000	-1.000000	371464.000000	1772311401.683696
-16855.155000	-18618.615000	-20765.295000	-13003.245000	0.000000	0.000000	0.000000	0.000000	-65.546766	-15.534698	-36.061932	-33.783711	-0.000000	-0.000000	0.000000	0.000000	18.327260	-2.380560	35.204820	0.048279	1.098935	-0.010071	-1.000000	-1.000000	-1.000000	-1.000000	-1.000000	-1.000000	-1.000000	146.482759	0.000000	-1.000000	-1.000000	371465.000000	1772311401.687635
-16781.895000	-18664.695000	-20736.945000	-12978.225000	0.000000	0.000000	0.000000	0.000000	-29.285146	-14.115367	-38.876747	-9.650677	-0.000000	-0.000000	0.000000	0.000000	18.327260	-2.380560	35.204820	0.048279	1.098935	-0.010071	-1.000000	-1.000000	-1.000000	-1.000000	-1.000000	-1.000000	-1.000000	146.482759	0.000000	-1.000000	-1.000000	371466.000000	1772311401.687637
-16724.880000	-18712.530000	-20739.060000	-12994.155000	0.000000	0.000000	0.000000	0.000000	34.907397	-11.729138	-14.221524	25.405755	-0.000000	-0.000000	0.000000	0.000000	-11.368700	-0.961380	42.071820	0.006897	1.140805	-0.026733	-1.000000	-1.000000	-1.000000	-1.000000	-1.000000	-1.000000	-1.000000	146.482759	0.000000	-1.000000	-1.000000	371467.000000	1772311401.694341
-16903.170000	-18741.420000	-20772.180000	-12970.845000	0.000000	0.000000	0.000000	0.000000	78.699060	-11.118237	15.315592	48.851967	-0.000000	-0.000000	0.000000	0.000000	-11.368700	-0.961380	42.071820	0.006897	1.140805	-0.026733	-1.000000	-1.000000	-1.000000	-1.000000	-1.000000	-1.000000	-1.000000	146.482759	0.000000	-1.000000	-1.000000	371468.000000	1772311401.694344
-17168.220000	-18757.080000	-20828.835000	-12964.140000	0.000000	0.000000	0.000000	0.000000	61.554942	-9.926166	25.149383	48.507636	-0.000000	-0.000000	0.000000	0.000000	-11.368700	-0.961380	42.071820	0.006897	1.140805	-0.026733	-1.000000	-1.000000	-1.000000	-1.000000	-1.000000	-1.000000	-1.000000	146.482759	0.000000	-1.000000	-1.000000	371469.000000	1772311401.707210
-17021.700000	-18741.510000	-20803.905000	-13004.640000	0.000000	0.000000	0.000000	0.000000	-11.821697	-3.497398	10.912093	27.809371	-0.000000	-0.000000	0.000000	0.000000	-11.368700	-0.961380	42.071820	0.006897	1.140805	-0.026733	-1.000000	-1.000000	-1.000000	-1.000000	-1.000000	-1.000000	-1.000000	146.482759	0.000000	-1.000000	-1.000000	371470.000000	1772311401.707218
-16746.525000	-18702.045000	-20693.160000	-13010.490000	0.000000	0.000000	0.000000	0.000000	-77.134080	10.202922	-9.060058	-2.247034	-0.000000	-0.000000	0.000000	0.000000	-11.368700	-0.961380	42.071820	0.006897	1.140805	-0.026733	-1.000000	-1.000000	-1.000000	-1.000000	-1.000000	-1.000000	-1.000000	146.482759	0.000000	-1.000000	-1.000000	371471.000000	1772311401.707223
-16940.115000	-18685.755000	-20727.180000	-13012.740000	0.000000	0.000000	0.000000	0.000000	-72.863987	27.545803	-13.209701	-28.507802	-0.000000	-0.000000	0.000000	0.000000	-11.368700	-0.961380	42.071820	0.006897	1.140805	-0.026733	-1.000000	-1.000000	-1.000000	-1.000000	-1.000000	-1.000000	-1.000000	146.482759	0.000000	-1.000000	-1.000000	371472.000000	1772311401.707225
-17149.905000	-18688.095000	-20919.285000	-13104.315000	0.000000	0.000000	0.000000	0.000000	-18.360860	39.253157	-4.562156	-41.406620	-0.000000	-0.000000	0.000000	0.000000	-11.368700	-0.961380	42.071820	0.006897	1.140805	-0.026733	-1.000000	-1.000000	-1.000000	-1.000000	-1.000000	-1.000000	-1.000000	146.482759	0.000000	-1.000000	-1.000000	371473.000000	1772311401.710694
-17080.200000	-18677.880000	-20902.095000	-13136.265000	0.000000	0.000000	0.000000	0.000000	21.625378	36.398049	-4.536579	-41.057047	-0.000000	-0.000000	0.000000	0.000000	-11.368700	-0.961380	42.071820	0.006897	1.140805	-0.026733	-1.000000	-1.000000	-1.000000	-1.000000	-1.000000	-1.000000	-1.000000	146.482759	0.000000	-1.000000	-1.000000	371474.000000	1772311401.710698
-17019.360000	-18647.550000	-20868.480000	-13068.045000	0.000000	0.000000	0.000000	0.000000	26.956569	18.978089	-15.693726	-29.994475	-0.000000	-0.000000	0.000000	0.000000	-11.368700	-0.961380	42.071820	0.006897	1.140805	-0.026733	-1.000000	-1.000000	-1.000000	-1.000000	-1.000000	-1.000000	-1.000000	146.482759	0.000000	-1.000000	-1.000000	371475.000000	1772311401.710703
-17013.420000	-18613.395000	-20909.025000	-13083.705000	0.000000	0.000000	0.000000	0.000000	23.492440	-3.284793	-18.855514	-7.155999	-0.000000	-0.000000	0.000000	0.000000	-11.368700	-0.961380	42.071820	0.006897	1.140805	-0.026733	-1.000000	-1.000000	-1.000000	-1.000000	-1.000000	-1.000000	-1.000000	146.482759	0.000000	-1.000000	-1.000000	371476.000000	1772311401.710705
-17025.615000	-18618.345000	-20924.415000	-13080.690000	0.000000	0.000000	0.000000	0.000000	28.105119	-19.956884	-5.326574	21.951164	-0.000000	-0.000000	0.000000	0.000000	-33.968760	-1.815940	35.189560	-0.009460	1.090451	-0.002380	-1.000000	-1.000000	-1.000000	-1.000000	-1.000000	-1.000000	-1.000000	146.482759	0.000000	-1.000000	-1.000000	371477.000000	1772311401.711752
-16913.790000	-18625.995000	-20802.240000	-13035.015000	0.000000	0.000000	0.000000	0.000000	35.545540	-28.035884	17.295728	43.852560	-0.000000	-0.000000	0.000000	0.000000	-33.968760	-1.815940	35.189560	-0.009460	1.090451	-0.002380	-1.000000	-1.000000	-1.000000	-1.000000	-1.000000	-1.000000	-1.000000	146.482759	0.000000	-1.000000	-1.000000	371478.000000	1772311401.711755
-16929.315000	-18640.440000	-20864.340000	-13077.630000	0.000000	0.000000	0.000000	0.000000	37.589642	-30.291663	39.258061	48.968691	-0.000000	-0.000000	0.000000	0.000000	-33.968760	-1.815940	35.189560	-0.009460	1.090451	-0.002380	-1.000000	-1.000000	-1.000000	-1.000000	-1.000000	-1.000000	-1.000000	146.482759	0.000000	-1.000000	-1.000000	371479.000000	1772311401.715788
-16930.080000	-18629.550000	-20867.490000	-13089.330000	0.000000	0.000000	0.000000	0.000000	28.648800	-28.651600	48.598311	35.211700	-0.000000	-0.000000	0.000000	0.000000	-33.968760	-1.815940	35.189560	-0.009460	1.090451	-0.002380	-1.000000	-1.000000	-1.000000	-1.000000	-1.000000	-1.000000	-1.000000	146.482759	0.000000	-1.000000	-1.000000	371480.000000	1772311401.715792
-16877.835000	-18609.705000	-20871.540000	-13090.455000	0.000000	0.000000	0.000000	0.000000	7.126850	-21.807401	36.135966	8.224505	-0.000000	-0.000000	0.000000	0.000000	-33.968760	-1.815940	35.189560	-0.009460	1.090451	-0.002380	-1.000000	-1.000000	-1.000000	-1.000000	-1.000000	-1.000000	-1.000000	146.482759	0.000000	-1.000000	-1.000000	371481.000000	1772311401.719847
-16845.345000	-18597.780000	-20896.515000	-13010.445000	0.000000	0.000000	0.000000	0.000000	-18.147970	-8.759206	7.321183	-17.384882	-0.000000	-0.000000	0.000000	0.000000	-33.968760	-1.815940	35.189560	-0.009460	1.090451	-0.002380	-1.000000	-1.000000	-1.000000	-1.000000	-1.000000	-1.000000	-1.000000	146.482759	0.000000	-1.000000	-1.000000	371482.000000	1772311401.719850
-16887.420000	-18563.895000	-20899.665000	-12926.295000	0.000000	0.000000	0.000000	0.000000	-35.726066	7.537699	-22.621941	-25.524038	-0.000000	-0.000000	0.000000	0.000000	-33.968760	-1.815940	35.189560	-0.009460	1.090451	-0.002380	-1.000000	-1.000000	-1.000000	-1.000000	-1.000000	-1.000000	-1.000000	146.482759	0.000000	-1.000000	-1.000000	371483.000000	1772311401.723761
-16888.005000	-18563.490000	-20860.830000	-12933.180000	0.000000	0.000000	0.000000	0.000000	-43.141721	21.129941	-39.509563	-13.214679	-0.000000	-0.000000	0.000000	0.000000	-33.968760	-1.815940	35.189560	-0.009460	1.090451	-0.002380	-1.000000	-1.000000	-1.000000	-1.000000	-1.000000	-1.000000	-1.000000	146.482759	0.000000	-1.000000	-1.000000	371484.000000	1772311401.723764
-16823.700000	-18556.065000	-20849.355000	-12981.240000	0.000000	0.000000	0.000000	0.000000	-41.265499	26.186622	-36.203511	3.331483	-0.000000	-0.000000	0.000000	0.000000	-33.968760	-1.815940	35.189560	-0.009460	1.090451	-0.002380	-1.000000	-1.000000	-1.000000	-1.000000	-1.000000	-1.000000	-1.000000	146.482759	0.000000	-1.000000	-1.000000	371485.000000	1772311401.727894
-16820.820000	-18537.210000	-20976.480000	-13060.125000	0.000000	0.000000	0.000000	0.000000	-28.155127	20.777568	-19.549990	3.338609	-0.000000	-0.000000	0.000000	0.000000	-33.968760	-1.815940	35.189560	-0.009460	1.090451	-0.002380	-1.000000	-1.000000	-1.000000	-1.000000	-1.000000	-1.000000	-1.000000	146.482759	0.000000	-1.000000	-1.000000	371486.000000	1772311401.727897
-16930.890000	-18476.055000	-20993.850000	-13122.810000	0.000000	0.000000	0.000000	0.000000	-8.776284	9.776414	-6.825011	-17.901206	-0.000000	-0.000000	0.000000	0.000000	-41.675060	-3.479280	14.359660	0.014770	0.947813	0.028015	-1.000000	-1.000000	-1.000000	-1.000000	-1.000000	-1.000000	-1.000000	146.482759	0.000000	-1.000000	-1.000000	371487.000000	1772311401.731846
-16993.260000	-18430.155000	-20966.715000	-13134.195000	0.000000	0.000000	0.000000	0.000000	2.174539	1.607562	-4.952302	-44.473492	-0.000000	-0.000000	0.000000	0.000000	-41.675060	-3.479280	14.359660	0.014770	0.947813	0.028015	-1.000000	-1.000000	-1.000000	-1.000000	-1.000000	-1.000000	-1.000000	146.482759	0.000000	-1.000000	-1.000000	371488.000000	1772311401.731849
-16987.590000	-18419.355000	-20979.540000	-13088.385000	0.000000	0.000000	0.000000	0.000000	-1.245571	-0.267982	-3.789279	-52.435589	-0.000000	-0.000000	0.000000	0.000000	-41.675060	-3.479280	14.359660	0.014770	0.947813	0.028015	-1.000000	-1.000000	-1.000000	-1.000000	-1.000000	-1.000000	-1.000000	146.482759	0.000000	-1.000000	-1.000000	371489.000000	1772311401.735854
-16900.740000	-18397.980000	-20970.675000	-13092.075000	0.000000	0.000000	0.000000	0.000000	-5.166899	-0.364023	5.301633	-29.438996	-0.000000	-0.000000	0.000000	0.000000	-41.675060	-3.479280	14.359660	0.014770	0.947813	0.028015	-1.000000	-1.000000	-1.000000	-1.000000	-1.000000	-1.000000	-1.000000	146.482759	0.000000	-1.000000	-1.000000	371490.000000	1772311401.735857
-16955.460000	-18380.205000	-20920.680000	-13048.785000	0.000000	0.000000	0.000000	0.000000	5.830297	-3.968672	19.811066	14.227233	-0.000000	-0.000000	0.000000	0.000000	-41.675060	-3.479280	14.359660	0.014770	0.947813	0.028015	-1.000000	-1.000000	-1.000000	-1.000000	-1.000000	-1.000000	-1.000000	146.482759	0.000000	-1.000000	-1.000000	371491.000000	1772311401.739780
-16977.825000	-18385.380000	-20907.045000	-13029.210000	0.000000	0.000000	0.000000	0.000000	26.289363	-11.190015	32.758200	54.972807	-0.000000	-0.000000	0.000000	0.000000	-41.675060	-3.479280	14.359660	0.014770	0.947813	0.028015	-1.000000	-1.000000	-1.000000	-1.000000	-1.000000	-1.000000	-1.000000	146.482759	0.000000	-1.000000	-1.000000	371492.000000	1772311401.739783
-16735.455000	-18392.760000	-20905.380000	-13042.440000	0.000000	0.000000	0.000000	0.000000	42.279395	-18.904507	36.844468	72.747025	-0.000000	-0.000000	0.000000	0.000000	-41.675060	-3.479280	14.359660	0.014770	0.947813	0.028015	-1.000000	-1.000000	-1.000000	-1.000000	-1.000000	-1.000000	-1.000000	146.482759	0.000000	-1.000000	-1.000000	371493.000000	1772311401.746569
-16638.390000	-18404.550000	-20897.505000	-13055.850000	0.000000	0.000000	0.000000	0.000000	54.355017	-23.761723	27.270950	59.918447	-0.000000	-0.000000	0.000000	0.000000	-41.675060	-3.479280	14.359660	0.014770	0.947813	0.028015	-1.000000	-1.000000	-1.000000	-1.000000	-1.000000	-1.000000	-1.000000	146.482759	0.000000	-1.000000	-1.000000	371494.000000	1772311401.746572
-16966.440000	-18418.950000	-20927.700000	-13076.370000	0.000000	0.000000	0.000000	0.000000	56.682792	-23.268454	5.981408	23.665959	-0.000000	-0.000000	0.000000	0.000000	-41.675060	-3.479280	14.359660	0.014770	0.947813	0.028015	-1.000000	-1.000000	-1.000000	-1.000000	-1.000000	-1.000000	-1.000000	146.482759	0.000000	-1.000000	-1.000000	371495.000000	1772311401.747889
-16889.265000	-18446.265000	-20925.270000	-13069.800000	0.000000	0.000000	0.000000	0.000000	25.197608	-17.048251	-18.923264	-17.877173	-0.000000	-0.000000	0.000000	0.000000	-41.675060	-3.479280	14.359660	0.014770	0.947813	0.028015	-1.000000	-1.000000	-1.000000	-1.000000	-1.000000	-1.000000	-1.000000	146.482759	0.000000	-1.000000	-1.000000	371496.000000	1772311401.747893
-16909.200000	-18462.015000	-20916.315000	-13034.070000	0.000000	0.000000	0.000000	0.000000	-36.229531	-7.162334	-36.805570	-45.107171	-0.000000	-0.000000	0.000000	0.000000	-12.070660	-0.213640	11.582340	0.050781	0.848142	0.048340	-1.000000	-1.000000	-1.000000	-1.000000	-1.000000	-1.000000	-1.000000	146.482759	0.000000	-1.000000	-1.000000	371497.000000	1772311401.751838
-17098.605000	-18475.785000	-20949.840000	-13029.030000	0.000000	0.000000	0.000000	0.000000	-88.590434	3.657404	-40.253688	-47.446466	-0.000000	-0.000000	0.000000	0.000000	-12.070660	-0.213640	11.582340	0.050781	0.848142	0.048340	-1.000000	-1.000000	-1.000000	-1.000000	-1.000000	-1.000000	-1.000000	146.482759	0.000000	-1.000000	-1.000000	371498.000000	1772311401.751841
-16944.255000	-18518.580000	-20903.040000	-13049.910000	0.000000	0.000000	0.000000	0.000000	-102.830131	12.807533	-29.595771	-29.879671	-0.000000	-0.000000	0.000000	0.000000	-12.070660	-0.213640	11.582340	0.050781	0.848142	0.048340	-1.000000	-1.000000	-1.000000	-1.000000	-1.000000	-1.000000	-1.000000	146.482759	0.000000	-1.000000	-1.000000	371499.000000	1772311401.757811
-16872.255000	-18532.125000	-20894.445000	-13042.890000	0.000000	0.000000	0.000000	0.000000	-69.483994	17.679335	-9.880855	-7.607204	-0.000000	-0.000000	0.000000	0.000000	-12.070660	-0.213640	11.582340	0.050781	0.848142	0.048340	-1.000000	-1.000000	-1.000000	-1.000000	-1.000000	-1.000000	-1.000000	146.482759	0.000000	-1.000000	-1.000000	371500.000000	1772311401.757814
-16836.705000	-18528.705000	-20878.065000	-12996.540000	0.000000	0.000000	0.000000	0.000000	1.654707	18.137895	11.761259	8.323043	-0.000000	-0.000000	0.000000	0.000000	-12.070660	-0.213640	11.582340	0.050781	0.848142	0.048340	-1.000000	-1.000000	-1.000000	-1.000000	-1.000000	-1.000000	-1.000000	146.482759	0.000000	-1.000000	-1.000000	371501.000000	1772311401.759865
-16816.455000	-18519.030000	-20901.195000	-12994.965000	0.000000	0.000000	0.000000	0.000000	74.282909	17.374328	26.149148	16.676232	-0.000000	-0.000000	0.000000	0.000000	-12.070660	-0.213640	11.582340	0.050781	0.848142	0.048340	-1.000000	-1.000000	-1.000000	-1.000000	-1.000000	-1.000000	-1.000000	146.482759	0.000000	-1.000000	-1.000000	371502.000000	1772311401.759868
-16824.825000	-18496.620000	-20919.780000	-13010.535000	0.000000	0.000000	0.000000	0.000000	108.371078	18.013349	26.330409	18.443628	-0.000000	-0.000000	0.000000	0.000000	-12.070660	-0.213640	11.582340	0.050781	0.848142	0.048340	-1.000000	-1.000000	-1.000000	-1.000000	-1.000000	-1.000000	-1.000000	146.482759	0.000000	-1.000000	-1.000000	371503.000000	1772311401.764017
-16860.060000	-18527.805000	-20922.165000	-13027.545000	0.000000	0.000000	0.000000	0.000000	88.888657	18.486963	13.273296	12.485498	-0.000000	-0.000000	0.000000	0.000000	-12.070660	-0.213640	11.582340	0.050781	0.848142	0.048340	-1.000000	-1.000000	-1.000000	-1.000000	-1.000000	-1.000000	-1.000000	146.482759	0.000000	-1.000000	-1.000000	371504.000000	1772311401.764020
-16817.040000	-18553.320000	-20895.615000	-13026.915000	0.000000	0.000000	0.000000	0.000000	31.768117	13.661963	-3.390876	0.359290	-0.000000	-0.000000	0.000000	0.000000	-12.070660	-0.213640	11.582340	0.050781	0.848142	0.048340	-1.000000	-1.000000	-1.000000	-1.000000	-1.000000	-1.000000	-1.000000	146.482759	0.000000	-1.000000	-1.000000	371505.000000	1772311401.767973
-16794.045000	-18570.285000	-20867.535000	-12985.335000	0.000000	0.000000	0.000000	0.000000	-28.423889	0.986512	-12.062189	-10.602688	-0.000000	-0.000000	0.000000	0.000000	-12.070660	-0.213640	11.582340	0.050781	0.848142	0.048340	-1.000000	-1.000000	-1.000000	-1.000000	-1.000000	-1.000000	-1.000000	146.482759	0.000000	-1.000000	-1.000000	371506.000000	1772311401.767976
-16877.520000	-18595.620000	-20941.470000	-12966.750000	0.000000	0.000000	0.000000	0.000000	-63.898217	-14.825341	-9.957496	-12.245682	-0.000000	-0.000000	0.000000	0.000000	-0.106820	2.212700	13.871340	0.064819	0.856809	0.047363	-1.000000	-1.000000	-1.000000	-1.000000	-1.000000	-1.000000	-1.000000	146.482759	0.000000	-1.000000	-1.000000	371507.000000	1772311401.771956
-16842.555000	-18619.155000	-20953.575000	-13005.810000	0.000000	0.000000	0.000000	0.000000	-69.701437	-25.838237	-5.510579	-4.711615	-0.000000	-0.000000	0.000000	0.000000	-0.106820	2.212700	13.871340	0.064819	0.856809	0.047363	-1.000000	-1.000000	-1.000000	-1.000000	-1.000000	-1.000000	-1.000000	146.482759	0.000000	-1.000000	-1.000000	371508.000000	1772311401.771959
-16620.660000	-18652.185000	-20875.995000	-13009.185000	0.000000	0.000000	0.000000	0.000000	-49.457427	-27.461285	-4.251941	2.771410	-0.000000	-0.000000	0.000000	0.000000	-0.106820	2.212700	13.871340	0.064819	0.856809	0.047363	-1.000000	-1.000000	-1.000000	-1.000000	-1.000000	-1.000000	-1.000000	146.482759	0.000000	-1.000000	-1.000000	371509.000000	1772311401.775913
-16407.135000	-18656.775000	-20895.390000	-12989.520000	0.000000	0.000000	0.000000	0.000000	-2.269044	-20.020785	-1.087572	3.695908	-0.000000	-0.000000	0.000000	0.000000	-0.106820	2.212700	13.871340	0.064819	0.856809	0.047363	-1.000000	-1.000000	-1.000000	-1.000000	-1.000000	-1.000000	-1.000000	146.482759	0.000000	-1.000000	-1.000000	371510.000000	1772311401.775916
-16367.355000	-18641.790000	-20862.360000	-12945.870000	0.000000	0.000000	0.000000	0.000000	58.955840	-6.125336	6.918962	1.640502	-0.000000	-0.000000	0.000000	0.000000	-0.106820	2.212700	13.871340	0.064819	0.856809	0.047363	-1.000000	-1.000000	-1.000000	-1.000000	-1.000000	-1.000000	-1.000000	146.482759	0.000000	-1.000000	-1.000000	371511.000000	1772311401.780048
-16870.455000	-18662.760000	-20798.865000	-12952.935000	0.000000	0.000000	0.000000	0.000000	87.261942	10.260153	15.537064	2.670481	-0.000000	-0.000000	0.000000	0.000000	-0.106820	2.212700	13.871340	0.064819	0.856809	0.047363	-1.000000	-1.000000	-1.000000	-1.000000	-1.000000	-1.000000	-1.000000	146.482759	0.000000	-1.000000	-1.000000	371512.000000	1772311401.780051
-17144.910000	-18642.420000	-20877.030000	-13015.530000	0.000000	0.000000	0.000000	0.000000	31.160149	23.148864	19.161414	4.846414	-0.000000	-0.000000	0.000000	0.000000	-0.106820	2.212700	13.871340	0.064819	0.856809	0.047363	-1.000000	-1.000000	-1.000000	-1.000000	-1.000000	-1.000000	-1.000000	146.482759	0.000000	-1.000000	-1.000000	371513.000000	1772311401.784020
-16893.405000	-18635.670000	-20899.935000	-12998.745000	0.000000	0.000000	0.000000	0.000000	-87.412562	27.942542	11.302008	1.416018	-0.000000	-0.000000	0.000000	0.000000	-0.106820	2.212700	13.871340	0.064819	0.856809	0.047363	-1.000000	-1.000000	-1.000000	-1.000000	-1.000000	-1.000000	-1.000000	146.482759	0.000000	-1.000000	-1.000000	371514.000000	1772311401.784023
-16802.730000	-18658.800000	-20870.820000	-12995.415000	0.000000	0.000000	0.000000	0.000000	-163.163685	23.731119	-7.724246	-6.729650	-0.000000	-0.000000	0.000000	0.000000	-0.106820	2.212700	13.871340	0.064819	0.856809	0.047363	-1.000000	-1.000000	-1.000000	-1.000000	-1.000000	-1.000000	-1.000000	146.482759	0.000000	-1.000000	-1.000000	371515.000000	1772311401.788042
-16821.765000	-18654.570000	-20868.570000	-12994.785000	0.000000	0.000000	0.000000	0.000000	-121.392745	11.865838	-24.785225	-11.371902	-0.000000	-0.000000	0.000000	0.000000	-0.106820	2.212700	13.871340	0.064819	0.856809	0.047363	-1.000000	-1.000000	-1.000000	-1.000000	-1.000000	-1.000000	-1.000000	146.482759	0.000000	-1.000000	-1.000000	371516.000000	1772311401.788045
-16852.320000	-18624.510000	-20908.620000	-13039.965000	0.000000	0.000000	0.000000	0.000000	2.116630	-2.728552	-28.227594	-8.994137	-0.000000	-0.000000	0.000000	0.000000	-10.804080	2.929920	2.350040	0.081665	0.919797	0.029724	-1.000000	-1.000000	-1.000000	-1.000000	-1.000000	-1.000000	-1.000000	146.482759	0.000000	-1.000000	-1.000000	371517.000000	1772311401.791973
-16790.895000	-18630.855000	-20896.695000	-13039.155000	0.000000	0.000000	0.000000	0.000000	116.637117	-12.775334	-19.408352	-3.683114	-0.000000	-0.000000	0.000000	0.000000	-10.804080	2.929920	2.350040	0.081665	0.919797	0.029724	-1.000000	-1.000000	-1.000000	-1.000000	-1.000000	-1.000000	-1.000000	146.482759	0.000000	-1.000000	-1.000000	371518.000000	1772311401.791976
-16708.500000	-18624.510000	-20829.465000	-12972.375000	0.000000	0.000000	0.000000	0.000000	164.147475	-15.294556	-4.283099	2.000531	-0.000000	-0.000000	0.000000	0.000000	-10.804080	2.929920	2.350040	0.081665	0.919797	0.029724	-1.000000	-1.000000	-1.000000	-1.000000	-1.000000	-1.000000	-1.000000	146.482759	0.000000	-1.000000	-1.000000	371519.000000	1772311401.795970
-16656.390000	-18613.755000	-20805.705000	-12965.535000	0.000000	0.000000	0.000000	0.000000	142.587362	-12.702571	14.029588	10.393607	-0.000000	-0.000000	0.000000	0.000000	-10.804080	2.929920	2.350040	0.081665	0.919797	0.029724	-1.000000	-1.000000	-1.000000	-1.000000	-1.000000	-1.000000	-1.000000	146.482759	0.000000	-1.000000	-1.000000	371520.000000	1772311401.795974
-16645.185000	-18617.985000	-20778.075000	-12958.425000	0.000000	0.000000	0.000000	0.000000	79.071851	-8.358918	30.256951	19.960862	-0.000000	-0.000000	0.000000	0.000000	-10.804080	2.929920	2.350040	0.081665	0.919797	0.029724	-1.000000	-1.000000	-1.000000	-1.000000	-1.000000	-1.000000	-1.000000	146.482759	0.000000	-1.000000	-1.000000	371521.000000	1772311401.800104
-16722.360000	-18631.215000	-20876.715000	-12968.640000	0.000000	0.000000	0.000000	0.000000	1.665730	-4.956271	33.923080	22.896577	-0.000000	-0.000000	0.000000	0.000000	-10.804080	2.929920	2.350040	0.081665	0.919797	0.029724	-1.000000	-1.000000	-1.000000	-1.000000	-1.000000	-1.000000	-1.000000	146.482759	0.000000	-1.000000	-1.000000	371522.000000	1772311401.800107
-16744.995000	-18607.230000	-20871.270000	-12970.305000	0.000000	0.000000	0.000000	0.000000	-68.921658	-3.581743	17.484576	14.306637	-0.000000	-0.000000	0.000000	0.000000	-10.804080	2.929920	2.350040	0.081665	0.919797	0.029724	-1.000000	-1.000000	-1.000000	-1.000000	-1.000000	-1.000000	-1.000000	146.482759	0.000000	-1.000000	-1.000000	371523.000000	1772311401.804116
-16748.955000	-18599.445000	-20867.985000	-13012.830000	0.000000	0.000000	0.000000	0.000000	-114.398033	-2.345057	-11.392760	-2.887478	-0.000000	-0.000000	0.000000	0.000000	-10.804080	2.929920	2.350040	0.081665	0.919797	0.029724	-1.000000	-1.000000	-1.000000	-1.000000	-1.000000	-1.000000	-1.000000	146.482759	0.000000	-1.000000	-1.000000	371524.000000	1772311401.804119
-16740.450000	-18626.490000	-20869.965000	-13010.130000	0.000000	0.000000	0.000000	0.000000	-119.978645	0.131669	-33.182532	-20.901192	-0.000000	-0.000000	0.000000	0.000000	-10.804080	2.929920	2.350040	0.081665	0.919797	0.029724	-1.000000	-1.000000	-1.000000	-1.000000	-1.000000	-1.000000	-1.000000	146.482759	0.000000	-1.000000	-1.000000	371525.000000	1772311401.808108
-16697.565000	-18652.590000	-20806.920000	-12981.555000	0.000000	0.000000	0.000000	0.000000	-84.497977	1.215428	-34.023256	-30.272606	-0.000000	-0.000000	0.000000	0.000000	-10.804080	2.929920	2.350040	0.081665	0.919797	0.029724	-1.000000	-1.000000	-1.000000	-1.000000	-1.000000	-1.000000	-1.000000	146.482759	0.000000	-1.000000	-1.000000	371526.000000	1772311401.808111
-16666.650000	-18664.920000	-20840.220000	-12972.375000	0.000000	0.000000	0.000000	0.000000	-23.698324	-1.582825	-15.209570	-24.508689	-0.000000	-0.000000	0.000000	0.000000	-19.090260	3.753960	-7.401100	0.101501	0.946531	0.028870	-1.000000	-1.000000	-1.000000	-1.000000	-1.000000	-1.000000	-1.000000	146.482759	0.000000	-1.000000	-1.000000	371527.000000	1772311401.812205
-16698.420000	-18657.810000	-20846.970000	-12940.560000	0.000000	0.000000	0.000000	0.000000	35.992270	-5.574194	8.710567	-6.132317	-0.000000	-0.000000	0.000000	0.000000	-19.090260	3.753960	-7.401100	0.101501	0.946531	0.028870	-1.000000	-1.000000	-1.000000	-1.000000	-1.000000	-1.000000	-1.000000	146.482759	0.000000	-1.000000	-1.000000	371528.000000	1772311401.812209
-16721.910000	-18638.010000	-20892.510000	-12888.495000	0.000000	0.000000	0.000000	0.000000	69.001503	-5.095591	21.045527	15.378015	-0.000000	-0.000000	0.000000	0.000000	-19.090260	3.753960	-7.401100	0.101501	0.946531	0.028870	-1.000000	-1.000000	-1.000000	-1.000000	-1.000000	-1.000000	-1.000000	146.482759	0.000000	-1.000000	-1.000000	371529.000000	1772311401.816022
-16798.005000	-18636.570000	-20944.620000	-12913.515000	0.000000	0.000000	0.000000	0.000000	64.276175	2.128970	15.407524	29.881173	-0.000000	-0.000000	0.000000	0.000000	-19.090260	3.753960	-7.401100	0.101501	0.946531	0.028870	-1.000000	-1.000000	-1.000000	-1.000000	-1.000000	-1.000000	-1.000000	146.482759	0.000000	-1.000000	-1.000000	371530.000000	1772311401.816025
-16812.855000	-18633.420000	-20966.490000	-12984.885000	0.000000	0.000000	0.000000	0.000000	30.989962	11.901865	-1.974224	28.185927	-0.000000	-0.000000	0.000000	0.000000	-19.090260	3.753960	-7.401100	0.101501	0.946531	0.028870	-1.000000	-1.000000	-1.000000	-1.000000	-1.000000	-1.000000	-1.000000	146.482759	0.000000	-1.000000	-1.000000	371531.000000	1772311401.819830
-16763.130000	-18620.595000	-20945.565000	-13057.785000	0.000000	0.000000	0.000000	0.000000	-6.627704	17.579109	-16.952158	6.376805	-0.000000	-0.000000	0.000000	0.000000	-19.090260	3.753960	-7.401100	0.101501	0.946531	0.028870	-1.000000	-1.000000	-1.000000	-1.000000	-1.000000	-1.000000	-1.000000	146.482759	0.000000	-1.000000	-1.000000	371532.000000	1772311401.819833
-16699.590000	-18620.235000	-20869.965000	-13036.140000	0.000000	0.000000	0.000000	0.000000	-23.295912	15.974583	-15.732949	-25.258749	-0.000000	-0.000000	0.000000	0.000000	-19.090260	3.753960	-7.401100	0.101501	0.946531	0.028870	-1.000000	-1.000000	-1.000000	-1.000000	-1.000000	-1.000000	-1.000000	146.482759	0.000000	-1.000000	-1.000000	371533.000000	1772311401.825440
-16653.915000	-18631.575000	-20801.880000	-12964.545000	0.000000	0.000000	0.000000	0.000000	-10.722738	8.082317	5.377068	-43.494338	-0.000000	-0.000000	0.000000	0.000000	-19.090260	3.753960	-7.401100	0.101501	0.946531	0.028870	-1.000000	-1.000000	-1.000000	-1.000000	-1.000000	-1.000000	-1.000000	146.482759	0.000000	-1.000000	-1.000000	371534.000000	1772311401.825443
-16606.620000	-18672.975000	-20873.520000	-12921.165000	0.000000	0.000000	0.000000	0.000000	17.152233	-3.663033	33.111154	-30.901442	-0.000000	-0.000000	0.000000	0.000000	-19.090260	3.753960	-7.401100	0.101501	0.946531	0.028870	-1.000000	-1.000000	-1.000000	-1.000000	-1.000000	-1.000000	-1.000000	146.482759	0.000000	-1.000000	-1.000000	371535.000000	1772311401.828220
-16586.820000	-18714.015000	-20909.205000	-12889.620000	0.000000	0.000000	0.000000	0.000000	37.618600	-16.638265	43.237243	6.080957	-0.000000	-0.000000	0.000000	0.000000	-19.090260	3.753960	-7.401100	0.101501	0.946531	0.028870	-1.000000	-1.000000	-1.000000	-1.000000	-1.000000	-1.000000	-1.000000	146.482759	0.000000	-1.000000	-1.000000	371536.000000	1772311401.828223
-16564.680000	-18753.435000	-20852.955000	-12980.205000	0.000000	0.000000	0.000000	0.000000	36.053545	-27.076234	24.840908	40.369758	-0.000000	-0.000000	0.000000	0.000000	-16.099300	7.874160	-12.482680	0.118652	0.945432	0.039551	-1.000000	-1.000000	-1.000000	-1.000000	-1.000000	-1.000000	-1.000000	146.482759	0.000000	-1.000000	-1.000000	371537.000000	1772311401.832217
-16561.620000	-18763.515000	-20793.420000	-12986.820000	0.000000	0.000000	0.000000	0.000000	13.161226	-29.801163	-5.544730	46.117678	-0.000000	-0.000000	0.000000	0.000000	-16.099300	7.874160	-12.482680	0.118652	0.945432	0.039551	-1.000000	-1.000000	-1.000000	-1.000000	-1.000000	-1.000000	-1.000000	146.482759	0.000000	-1.000000	-1.000000	371538.000000	1772311401.832220
-16690.140000	-18706.365000	-20800.530000	-12959.235000	0.000000	0.000000	0.000000	0.000000	-21.006784	-19.802570	-24.226401	21.825631	-0.000000	-0.000000	0.000000	0.000000	-16.099300	7.874160	-12.482680	0.118652	0.945432	0.039551	-1.000000	-1.000000	-1.000000	-1.000000	-1.000000	-1.000000	-1.000000	146.482759	0.000000	-1.000000	-1.000000	371539.000000	1772311401.837574
-16823.970000	-18697.905000	-20851.425000	-12987.855000	0.000000	0.000000	0.000000	0.000000	-57.366866	3.430515	-26.288917	-10.652550	-0.000000	-0.000000	0.000000	0.000000	-16.099300	7.874160	-12.482680	0.118652	0.945432	0.039551	-1.000000	-1.000000	-1.000000	-1.000000	-1.000000	-1.000000	-1.000000	146.482759	0.000000	-1.000000	-1.000000	371540.000000	1772311401.837577
-16778.970000	-18713.250000	-20854.575000	-13029.795000	0.000000	0.000000	0.000000	0.000000	-83.904330	30.082119	-22.694194	-31.259407	-0.000000	-0.000000	0.000000	0.000000	-16.099300	7.874160	-12.482680	0.118652	0.945432	0.039551	-1.000000	-1.000000	-1.000000	-1.000000	-1.000000	-1.000000	-1.000000	146.482759	0.000000	-1.000000	-1.000000	371541.000000	1772311401.840109
-16620.615000	-18728.775000	-20816.235000	-12992.445000	0.000000	0.000000	0.000000	0.000000	-77.840197	43.917064	-19.883833	-34.504516	-0.000000	-0.000000	0.000000	0.000000	-16.099300	7.874160	-12.482680	0.118652	0.945432	0.039551	-1.000000	-1.000000	-1.000000	-1.000000	-1.000000	-1.000000	-1.000000	146.482759	0.000000	-1.000000	-1.000000	371542.000000	1772311401.840112
-16569.315000	-18739.845000	-20848.455000	-12969.405000	0.000000	0.000000	0.000000	0.000000	-24.982241	36.332354	-14.575286	-21.994563	-0.000000	-0.000000	0.000000	0.000000	-16.099300	7.874160	-12.482680	0.118652	0.945432	0.039551	-1.000000	-1.000000	-1.000000	-1.000000	-1.000000	-1.000000	-1.000000	146.482759	0.000000	-1.000000	-1.000000	371543.000000	1772311401.844148
-16495.245000	-18735.210000	-20861.550000	-12979.665000	0.000000	0.000000	0.000000	0.000000	53.254564	13.365233	-5.524519	0.278228	-0.000000	-0.000000	0.000000	0.000000	-16.099300	7.874160	-12.482680	0.118652	0.945432	0.039551	-1.000000	-1.000000	-1.000000	-1.000000	-1.000000	-1.000000	-1.000000	146.482759	0.000000	-1.000000	-1.000000	371544.000000	1772311401.844151
-16491.555000	-18734.535000	-20817.990000	-12960.090000	0.000000	0.000000	0.000000	0.000000	111.162651	-10.717989	3.974008	20.726410	-0.000000	-0.000000	0.000000	0.000000	-16.099300	7.874160	-12.482680	0.118652	0.945432	0.039551	-1.000000	-1.000000	-1.000000	-1.000000	-1.000000	-1.000000	-1.000000	146.482759	0.000000	-1.000000	-1.000000	371545.000000	1772311401.848135
-16619.940000	-18742.545000	-20817.090000	-12935.835000	0.000000	0.000000	0.000000	0.000000	113.025180	-24.548528	12.648008	29.907980	-0.000000	-0.000000	0.000000	0.000000	-16.099300	7.874160	-12.482680	0.118652	0.945432	0.039551	-1.000000	-1.000000	-1.000000	-1.000000	-1.000000	-1.000000	-1.000000	146.482759	0.000000	-1.000000	-1.000000	371546.000000	1772311401.848137
-16602.120000	-18764.910000	-20891.565000	-12960.765000	0.000000	0.000000	0.000000	0.000000	55.689164	-25.917021	18.008114	26.122831	-0.000000	-0.000000	0.000000	0.000000	-15.305780	3.586100	-15.275260	0.097900	0.986936	0.065124	-1.000000	-1.000000	-1.000000	-1.000000	-1.000000	-1.000000	-1.000000	146.482759	0.000000	-1.000000	-1.000000	371547.000000	1772311401.852080
-16609.230000	-18778.995000	-20926.440000	-12981.510000	0.000000	0.000000	0.000000	0.000000	-26.624555	-19.622546	13.681602	11.900985	-0.000000	-0.000000	0.000000	0.000000	-15.305780	3.586100	-15.275260	0.097900	0.986936	0.065124	-1.000000	-1.000000	-1.000000	-1.000000	-1.000000	-1.000000	-1.000000	146.482759	0.000000	-1.000000	-1.000000	371548.000000	1772311401.852083
-16759.530000	-18798.480000	-20906.415000	-12968.055000	0.000000	0.000000	0.000000	0.000000	-88.613416	-11.320071	0.118743	-7.113691	-0.000000	-0.000000	0.000000	0.000000	-15.305780	3.586100	-15.275260	0.097900	0.986936	0.065124	-1.000000	-1.000000	-1.000000	-1.000000	-1.000000	-1.000000	-1.000000	146.482759	0.000000	-1.000000	-1.000000	371549.000000	1772311401.856168
-16872.795000	-18841.905000	-20823.885000	-12957.480000	0.000000	0.000000	0.000000	0.000000	-110.442460	-4.519676	-9.610468	-21.423588	-0.000000	-0.000000	0.000000	0.000000	-15.305780	3.586100	-15.275260	0.097900	0.986936	0.065124	-1.000000	-1.000000	-1.000000	-1.000000	-1.000000	-1.000000	-1.000000	146.482759	0.000000	-1.000000	-1.000000	371550.000000	1772311401.856171
-16812.675000	-18844.245000	-20804.040000	-12986.145000	0.000000	0.000000	0.000000	0.000000	-94.968603	-0.463411	-3.195837	-24.275764	-0.000000	-0.000000	0.000000	0.000000	-15.305780	3.586100	-15.275260	0.097900	0.986936	0.065124	-1.000000	-1.000000	-1.000000	-1.000000	-1.000000	-1.000000	-1.000000	146.482759	0.000000	-1.000000	-1.000000	371551.000000	1772311401.860325
-16532.370000	-18848.655000	-20807.865000	-12988.440000	0.000000	0.000000	0.000000	0.000000	-42.312989	2.616453	14.773087	-17.646400	-0.000000	-0.000000	0.000000	0.000000	-15.305780	3.586100	-15.275260	0.097900	0.986936	0.065124	-1.000000	-1.000000	-1.000000	-1.000000	-1.000000	-1.000000	-1.000000	146.482759	0.000000	-1.000000	-1.000000	371552.000000	1772311401.860327
-16442.325000	-18844.110000	-20849.400000	-12934.395000	0.000000	0.000000	0.000000	0.000000	44.193904	7.543057	26.135175	-6.664973	-0.000000	-0.000000	0.000000	0.000000	-15.305780	3.586100	-15.275260	0.097900	0.986936	0.065124	-1.000000	-1.000000	-1.000000	-1.000000	-1.000000	-1.000000	-1.000000	146.482759	0.000000	-1.000000	-1.000000	371553.000000	1772311401.864252
-16466.580000	-18847.305000	-20806.380000	-12891.915000	0.000000	0.000000	0.000000	0.000000	129.386862	14.063900	18.980918	7.024761	-0.000000	-0.000000	0.000000	0.000000	-15.305780	3.586100	-15.275260	0.097900	0.986936	0.065124	-1.000000	-1.000000	-1.000000	-1.000000	-1.000000	-1.000000	-1.000000	146.482759	0.000000	-1.000000	-1.000000	371554.000000	1772311401.864255
-16472.565000	-18880.695000	-20771.640000	-12927.105000	0.000000	0.000000	0.000000	0.000000	158.143949	18.054855	0.086883	20.238087	-0.000000	-0.000000	0.000000	0.000000	-15.305780	3.586100	-15.275260	0.097900	0.986936	0.065124	-1.000000	-1.000000	-1.000000	-1.000000	-1.000000	-1.000000	-1.000000	146.482759	0.000000	-1.000000	-1.000000	371555.000000	1772311401.868279
-16696.350000	-18882.990000	-20819.475000	-12968.190000	0.000000	0.000000	0.000000	0.000000	103.611147	15.201109	-16.013481	23.550968	-0.000000	-0.000000	0.000000	0.000000	-15.305780	3.586100	-15.275260	0.097900	0.986936	0.065124	-1.000000	-1.000000	-1.000000	-1.000000	-1.000000	-1.000000	-1.000000	146.482759	0.000000	-1.000000	-1.000000	371556.000000	1772311401.868283
-16905.330000	-18862.605000	-20877.165000	-12965.355000	0.000000	0.000000	0.000000	0.000000	-13.612541	6.652687	-24.855959	11.194455	-0.000000	-0.000000	0.000000	0.000000	-6.638100	0.656180	-12.818400	0.046936	1.015256	0.092468	-1.000000	-1.000000	-1.000000	-1.000000	-1.000000	-1.000000	-1.000000	146.482759	0.000000	-1.000000	-1.000000	371557.000000	1772311401.872255
-16861.275000	-18871.605000	-20873.115000	-12976.470000	0.000000	0.000000	0.000000	0.000000	-135.742920	-1.451425	-29.606408	-9.095228	-0.000000	-0.000000	0.000000	0.000000	-6.638100	0.656180	-12.818400	0.046936	1.015256	0.092468	-1.000000	-1.000000	-1.000000	-1.000000	-1.000000	-1.000000	-1.000000	146.482759	0.000000	-1.000000	-1.000000	371558.000000	1772311401.872258
-16710.165000	-18865.845000	-20877.345000	-12988.620000	0.000000	0.000000	0.000000	0.000000	-189.744512	-5.211700	-28.642725	-23.478879	-0.000000	-0.000000	0.000000	0.000000	-6.638100	0.656180	-12.818400	0.046936	1.015256	0.092468	-1.000000	-1.000000	-1.000000	-1.000000	-1.000000	-1.000000	-1.000000	146.482759	0.000000	-1.000000	-1.000000	371559.000000	1772311401.876213
-16632.855000	-18833.040000	-20832.840000	-12949.245000	0.000000	0.000000	0.000000	0.000000	-136.003408	-4.881915	-16.865649	-23.834781	-0.000000	-0.000000	0.000000	0.000000	-6.638100	0.656180	-12.818400	0.046936	1.015256	0.092468	-1.000000	-1.000000	-1.000000	-1.000000	-1.000000	-1.000000	-1.000000	146.482759	0.000000	-1.000000	-1.000000	371560.000000	1772311401.876216
