Channel1	Channel2	Channel3	Channel4	Channel5	Channel6	Channel7	Channel8	FilteredChannel1	FilteredChannel2	FilteredChannel3	FilteredChannel4	FilteredChannel5	FilteredChannel6	FilteredChannel7	FilteredChannel8	GyroX	GyroY	GyroZ	AccX	AccY	AccZ	PPG1	PPG2	rawPPG1	rawPPG2	rawPPG3	Hr	Hrv	Battery	Trigger	PhysicalTrigger	AutoTrigger	NumMeasurements	Timestamp
-16984.935000	-17477.415000	-20107.890000	-12737.835000	0.000000	0.000000	0.000000	0.000000	3.976744	-12.675470	2.275176	3.975699	0.000000	0.000000	0.000000	0.000000	2.441600	0.198380	-0.518840	0.020325	0.983701	-0.012268	-1.000000	-1.000000	-1.000000	-1.000000	-1.000000	-1.000000	-1.000000	146.965517	0.000000	-1.000000	-1.000000	342470.000000	1772311343.532159
-16984.665000	-17482.860000	-20105.820000	-12736.890000	0.000000	0.000000	0.000000	0.000000	3.735442	-17.285220	3.321786	4.903318	0.000000	0.000000	0.000000	0.000000	2.441600	0.198380	-0.518840	0.020325	0.983701	-0.012268	-1.000000	-1.000000	-1.000000	-1.000000	-1.000000	-1.000000	-1.000000	146.965517	0.000000	-1.000000	-1.000000	342471.000000	1772311343.532162
-16980.480000	-17521.020000	-20100.330000	-12734.055000	0.000000	0.000000	0.000000	0.000000	0.702371	-14.677924	1.890244	2.481215	0.000000	0.000000	0.000000	0.000000	2.441600	0.198380	-0.518840	0.020325	0.983701	-0.012268	-1.000000	-1.000000	-1.000000	-1.000000	-1.000000	-1.000000	-1.000000	146.965517	0.000000	-1.000000	-1.000000	342472.000000	1772311343.535854
-16980.795000	-17517.465000	-20099.970000	-12732.480000	0.000000	0.000000	0.000000	0.000000	-2.084245	-7.930972	0.214231	-0.531074	0.000000	0.000000	0.000000	0.000000	2.441600	0.198380	-0.518840	0.020325	0.983701	-0.012268	-1.000000	-1.000000	-1.000000	-1.000000	-1.000000	-1.000000	-1.000000	146.965517	0.000000	-1.000000	-1.000000	342473.000000	1772311343.535857
-16987.365000	-17484.615000	-20108.385000	-12738.870000	0.000000	0.000000	0.000000	0.000000	-2.959783	0.923210	-0.597939	-2.216293	0.000000	0.000000	0.000000	0.000000	2.441600	0.198380	-0.518840	0.020325	0.983701	-0.012268	-1.000000	-1.000000	-1.000000	-1.000000	-1.000000	-1.000000	-1.000000	146.965517	0.000000	-1.000000	-1.000000	342474.000000	1772311343.540137
-16981.965000	-17474.265000	-20105.505000	-12735.540000	0.000000	0.000000	0.000000	0.000000	-2.267101	11.870437	-0.994445	-2.445906	0.000000	0.000000	0.000000	0.000000	2.441600	0.198380	-0.518840	0.020325	0.983701	-0.012268	-1.000000	-1.000000	-1.000000	-1.000000	-1.000000	-1.000000	-1.000000	146.965517	0.000000	-1.000000	-1.000000	342475.000000	1772311343.540141
-16977.870000	-17448.570000	-20103.705000	-12733.470000	0.000000	0.000000	0.000000	0.000000	-0.706728	22.464226	-1.236797	-1.687697	0.000000	0.000000	0.000000	0.000000	2.044840	0.045780	-0.640920	0.019836	0.984006	-0.011597	-1.000000	-1.000000	-1.000000	-1.000000	-1.000000	-1.000000	-1.000000	146.965517	0.000000	-1.000000	-1.000000	342476.000000	1772311343.544237
-16984.575000	-17405.595000	-20110.185000	-12739.140000	0.000000	0.000000	0.000000	0.000000	1.160903	28.002321	-1.001630	-0.372168	0.000000	0.000000	0.000000	0.000000	2.044840	0.045780	-0.640920	0.019836	0.984006	-0.011597	-1.000000	-1.000000	-1.000000	-1.000000	-1.000000	-1.000000	-1.000000	146.965517	0.000000	-1.000000	-1.000000	342477.000000	1772311343.544239
-16996.365000	-17398.125000	-20121.930000	-12751.245000	0.000000	0.000000	0.000000	0.000000	2.086248	25.709855	-0.650065	0.521715	0.000000	0.000000	0.000000	0.000000	2.044840	0.045780	-0.640920	0.019836	0.984006	-0.011597	-1.000000	-1.000000	-1.000000	-1.000000	-1.000000	-1.000000	-1.000000	146.965517	0.000000	-1.000000	-1.000000	342478.000000	1772311343.548178
-17003.925000	-17375.670000	-20127.600000	-12757.770000	0.000000	0.000000	0.000000	0.000000	0.947518	15.411304	-0.983356	0.010559	0.000000	0.000000	0.000000	0.000000	2.044840	0.045780	-0.640920	0.019836	0.984006	-0.011597	-1.000000	-1.000000	-1.000000	-1.000000	-1.000000	-1.000000	-1.000000	146.965517	0.000000	-1.000000	-1.000000	342479.000000	1772311343.548181
-17000.100000	-17366.040000	-20123.505000	-12755.205000	0.000000	0.000000	0.000000	0.000000	-1.414736	-0.359456	-1.616551	-1.346774	0.000000	0.000000	0.000000	0.000000	2.044840	0.045780	-0.640920	0.019836	0.984006	-0.011597	-1.000000	-1.000000	-1.000000	-1.000000	-1.000000	-1.000000	-1.000000	146.965517	0.000000	-1.000000	-1.000000	342480.000000	1772311343.551991
-16995.240000	-17358.030000	-20119.050000	-12751.155000	0.000000	0.000000	0.000000	0.000000	-2.494000	-16.383378	-0.994661	-1.597850	0.000000	0.000000	0.000000	0.000000	2.044840	0.045780	-0.640920	0.019836	0.984006	-0.011597	-1.000000	-1.000000	-1.000000	-1.000000	-1.000000	-1.000000	-1.000000	146.965517	0.000000	-1.000000	-1.000000	342481.000000	1772311343.551994
-16993.890000	-17351.910000	-20117.475000	-12749.445000	0.000000	0.000000	0.000000	0.000000	-0.751630	-27.336160	1.555584	0.403068	0.000000	0.000000	0.000000	0.000000	2.044840	0.045780	-0.640920	0.019836	0.984006	-0.011597	-1.000000	-1.000000	-1.000000	-1.000000	-1.000000	-1.000000	-1.000000	146.965517	0.000000	-1.000000	-1.000000	342482.000000	1772311343.556364
-16991.370000	-17335.440000	-20116.215000	-12747.960000	0.000000	0.000000	0.000000	0.000000	2.711334	-29.975199	4.666620	3.596492	0.000000	0.000000	0.000000	0.000000	2.044840	0.045780	-0.640920	0.019836	0.984006	-0.011597	-1.000000	-1.000000	-1.000000	-1.000000	-1.000000	-1.000000	-1.000000	146.965517	0.000000	-1.000000	-1.000000	342483.000000	1772311343.556368
-16984.980000	-17349.615000	-20112.525000	-12742.650000	0.000000	0.000000	0.000000	0.000000	5.500174	-24.347930	6.258095	5.863517	0.000000	0.000000	0.000000	0.000000	2.044840	0.045780	-0.640920	0.019836	0.984006	-0.011597	-1.000000	-1.000000	-1.000000	-1.000000	-1.000000	-1.000000	-1.000000	146.965517	0.000000	-1.000000	-1.000000	342484.000000	1772311343.561093
-16977.330000	-17394.750000	-20104.920000	-12735.270000	0.000000	0.000000	0.000000	0.000000	6.173126	-14.947465	5.488453	6.014462	0.000000	0.000000	0.000000	0.000000	2.044840	0.045780	-0.640920	0.019836	0.984006	-0.011597	-1.000000	-1.000000	-1.000000	-1.000000	-1.000000	-1.000000	-1.000000	146.965517	0.000000	-1.000000	-1.000000	342485.000000	1772311343.561096
-16970.355000	-17430.030000	-20097.225000	-12728.430000	0.000000	0.000000	0.000000	0.000000	4.815523	-8.144199	3.158327	4.343692	0.000000	0.000000	0.000000	0.000000	2.456860	0.305200	-0.350980	0.019714	0.983884	-0.010193	-1.000000	-1.000000	-1.000000	-1.000000	-1.000000	-1.000000	-1.000000	146.965517	0.000000	-1.000000	-1.000000	342486.000000	1772311343.566544
-16966.215000	-17451.315000	-20092.905000	-12725.505000	0.000000	0.000000	0.000000	0.000000	2.213735	-5.875648	0.554661	1.735178	0.000000	0.000000	0.000000	0.000000	2.456860	0.305200	-0.350980	0.019714	0.983884	-0.010193	-1.000000	-1.000000	-1.000000	-1.000000	-1.000000	-1.000000	-1.000000	146.965517	0.000000	-1.000000	-1.000000	342487.000000	1772311343.566547
-16987.950000	-17470.575000	-20111.850000	-12743.595000	0.000000	0.000000	0.000000	0.000000	-1.307626	-4.074078	-2.058629	-1.514403	0.000000	0.000000	0.000000	0.000000	2.456860	0.305200	-0.350980	0.019714	0.983884	-0.010193	-1.000000	-1.000000	-1.000000	-1.000000	-1.000000	-1.000000	-1.000000	146.965517	0.000000	-1.000000	-1.000000	342488.000000	1772311343.569193
-17001.720000	-17477.370000	-20124.495000	-12752.370000	0.000000	0.000000	0.000000	0.000000	-6.052437	1.854645	-5.499107	-5.669474	0.000000	0.000000	0.000000	0.000000	2.456860	0.305200	-0.350980	0.019714	0.983884	-0.010193	-1.000000	-1.000000	-1.000000	-1.000000	-1.000000	-1.000000	-1.000000	146.965517	0.000000	-1.000000	-1.000000	342489.000000	1772311343.569197
-16980.795000	-17521.650000	-20104.065000	-12732.705000	0.000000	0.000000	0.000000	0.000000	-10.546132	11.561337	-8.982209	-9.356713	0.000000	0.000000	0.000000	0.000000	2.456860	0.305200	-0.350980	0.019714	0.983884	-0.010193	-1.000000	-1.000000	-1.000000	-1.000000	-1.000000	-1.000000	-1.000000	146.965517	0.000000	-1.000000	-1.000000	342490.000000	1772311343.573136
-16974.765000	-17570.655000	-20100.645000	-12731.760000	0.000000	0.000000	0.000000	0.000000	-10.766505	19.224150	-9.104486	-9.256883	0.000000	0.000000	0.000000	0.000000	2.456860	0.305200	-0.350980	0.019714	0.983884	-0.010193	-1.000000	-1.000000	-1.000000	-1.000000	-1.000000	-1.000000	-1.000000	146.965517	0.000000	-1.000000	-1.000000	342491.000000	1772311343.573139
-16972.830000	-17577.945000	-20099.430000	-12730.095000	0.000000	0.000000	0.000000	0.000000	-4.937511	19.647530	-4.233825	-4.317370	0.000000	0.000000	0.000000	0.000000	2.456860	0.305200	-0.350980	0.019714	0.983884	-0.010193	-1.000000	-1.000000	-1.000000	-1.000000	-1.000000	-1.000000	-1.000000	146.965517	0.000000	-1.000000	-1.000000	342492.000000	1772311343.576286
-16966.080000	-17569.080000	-20094.030000	-12722.355000	0.000000	0.000000	0.000000	0.000000	3.520279	14.964729	2.765433	2.445613	0.000000	0.000000	0.000000	0.000000	2.456860	0.305200	-0.350980	0.019714	0.983884	-0.010193	-1.000000	-1.000000	-1.000000	-1.000000	-1.000000	-1.000000	-1.000000	146.965517	0.000000	-1.000000	-1.000000	342493.000000	1772311343.576289
-16974.270000	-17554.050000	-20101.455000	-12729.240000	0.000000	0.000000	0.000000	0.000000	9.412412	11.849252	7.594453	7.144549	0.000000	0.000000	0.000000	0.000000	2.456860	0.305200	-0.350980	0.019714	0.983884	-0.010193	-1.000000	-1.000000	-1.000000	-1.000000	-1.000000	-1.000000	-1.000000	146.965517	0.000000	-1.000000	-1.000000	342494.000000	1772311343.583067
-16979.355000	-17543.520000	-20104.605000	-12734.055000	0.000000	0.000000	0.000000	0.000000	9.653869	13.222598	7.808783	7.547422	0.000000	0.000000	0.000000	0.000000	2.456860	0.305200	-0.350980	0.019714	0.983884	-0.010193	-1.000000	-1.000000	-1.000000	-1.000000	-1.000000	-1.000000	-1.000000	146.965517	0.000000	-1.000000	-1.000000	342495.000000	1772311343.583070
-16981.965000	-17523.270000	-20105.820000	-12739.590000	0.000000	0.000000	0.000000	0.000000	4.748109	15.944797	3.940454	3.835934	0.000000	0.000000	0.000000	0.000000	2.899400	0.228900	-0.152600	0.019836	0.982602	-0.009521	-1.000000	-1.000000	-1.000000	-1.000000	-1.000000	-1.000000	-1.000000	146.965517	0.000000	-1.000000	-1.000000	342496.000000	1772311343.584336
-16985.700000	-17495.415000	-20107.215000	-12740.580000	0.000000	0.000000	0.000000	0.000000	-1.835412	15.440913	-1.122534	-1.468363	0.000000	0.000000	0.000000	0.000000	2.899400	0.228900	-0.152600	0.019836	0.982602	-0.009521	-1.000000	-1.000000	-1.000000	-1.000000	-1.000000	-1.000000	-1.000000	146.965517	0.000000	-1.000000	-1.000000	342497.000000	1772311343.584339
-16985.790000	-17485.785000	-20106.765000	-12736.980000	0.000000	0.000000	0.000000	0.000000	-6.293638	9.774950	-4.396105	-5.077086	0.000000	0.000000	0.000000	0.000000	2.899400	0.228900	-0.152600	0.019836	0.982602	-0.009521	-1.000000	-1.000000	-1.000000	-1.000000	-1.000000	-1.000000	-1.000000	146.965517	0.000000	-1.000000	-1.000000	342498.000000	1772311343.588331
-16985.655000	-17471.565000	-20107.575000	-12737.700000	0.000000	0.000000	0.000000	0.000000	-6.762910	-0.295163	-4.638082	-5.083323	0.000000	0.000000	0.000000	0.000000	2.899400	0.228900	-0.152600	0.019836	0.982602	-0.009521	-1.000000	-1.000000	-1.000000	-1.000000	-1.000000	-1.000000	-1.000000	146.965517	0.000000	-1.000000	-1.000000	342499.000000	1772311343.588334
-16979.805000	-17483.760000	-20104.785000	-12739.185000	0.000000	0.000000	0.000000	0.000000	-3.674325	-12.469580	-2.465562	-2.129233	0.000000	0.000000	0.000000	0.000000	2.899400	0.228900	-0.152600	0.019836	0.982602	-0.009521	-1.000000	-1.000000	-1.000000	-1.000000	-1.000000	-1.000000	-1.000000	146.965517	0.000000	-1.000000	-1.000000	342500.000000	1772311343.592494
-16976.430000	-17493.480000	-20104.515000	-12736.125000	0.000000	0.000000	0.000000	0.000000	1.086665	-23.791351	0.576159	1.510729	0.000000	0.000000	0.000000	0.000000	2.899400	0.228900	-0.152600	0.019836	0.982602	-0.009521	-1.000000	-1.000000	-1.000000	-1.000000	-1.000000	-1.000000	-1.000000	146.965517	0.000000	-1.000000	-1.000000	342501.000000	1772311343.592497
-16980.795000	-17490.195000	-20107.080000	-12735.180000	0.000000	0.000000	0.000000	0.000000	5.067621	-30.826611	2.890691	3.944319	0.000000	0.000000	0.000000	0.000000	2.899400	0.228900	-0.152600	0.019836	0.982602	-0.009521	-1.000000	-1.000000	-1.000000	-1.000000	-1.000000	-1.000000	-1.000000	146.965517	0.000000	-1.000000	-1.000000	342502.000000	1772311343.597605
-16980.300000	-17499.015000	-20108.295000	-12738.555000	0.000000	0.000000	0.000000	0.000000	6.226998	-30.254789	3.428663	4.417683	0.000000	0.000000	0.000000	0.000000	2.899400	0.228900	-0.152600	0.019836	0.982602	-0.009521	-1.000000	-1.000000	-1.000000	-1.000000	-1.000000	-1.000000	-1.000000	146.965517	0.000000	-1.000000	-1.000000	342503.000000	1772311343.597608
-16973.505000	-17528.940000	-20100.780000	-12732.390000	0.000000	0.000000	0.000000	0.000000	4.386877	-21.977303	2.368410	3.117991	0.000000	0.000000	0.000000	0.000000	2.899400	0.228900	-0.152600	0.019836	0.982602	-0.009521	-1.000000	-1.000000	-1.000000	-1.000000	-1.000000	-1.000000	-1.000000	146.965517	0.000000	-1.000000	-1.000000	342504.000000	1772311343.600495
-16976.520000	-17527.050000	-20101.050000	-12733.470000	0.000000	0.000000	0.000000	0.000000	1.260964	-9.878570	0.951948	1.051818	0.000000	0.000000	0.000000	0.000000	2.899400	0.228900	-0.152600	0.019836	0.982602	-0.009521	-1.000000	-1.000000	-1.000000	-1.000000	-1.000000	-1.000000	-1.000000	146.965517	0.000000	-1.000000	-1.000000	342505.000000	1772311343.600497
-16987.680000	-17544.510000	-20110.995000	-12741.255000	0.000000	0.000000	0.000000	0.000000	-1.681984	2.051479	-0.133120	-0.874568	0.000000	0.000000	0.000000	0.000000	4.028640	0.015260	-0.335720	0.019958	0.981870	-0.009094	-1.000000	-1.000000	-1.000000	-1.000000	-1.000000	-1.000000	-1.000000	146.965517	0.000000	-1.000000	-1.000000	342506.000000	1772311343.604399
-16990.785000	-17532.720000	-20114.820000	-12744.900000	0.000000	0.000000	0.000000	0.000000	-4.156943	11.848465	-1.391793	-2.574031	0.000000	0.000000	0.000000	0.000000	4.028640	0.015260	-0.335720	0.019958	0.981870	-0.009094	-1.000000	-1.000000	-1.000000	-1.000000	-1.000000	-1.000000	-1.000000	146.965517	0.000000	-1.000000	-1.000000	342507.000000	1772311343.604402
-16990.965000	-17533.305000	-20116.665000	-12746.925000	0.000000	0.000000	0.000000	0.000000	-5.678341	18.743371	-2.945319	-3.895632	0.000000	0.000000	0.000000	0.000000	4.028640	0.015260	-0.335720	0.019958	0.981870	-0.009094	-1.000000	-1.000000	-1.000000	-1.000000	-1.000000	-1.000000	-1.000000	146.965517	0.000000	-1.000000	-1.000000	342508.000000	1772311343.609929
-16982.415000	-17530.425000	-20109.555000	-12739.140000	0.000000	0.000000	0.000000	0.000000	-5.036786	22.017533	-3.611913	-3.944242	0.000000	0.000000	0.000000	0.000000	4.028640	0.015260	-0.335720	0.019958	0.981870	-0.009094	-1.000000	-1.000000	-1.000000	-1.000000	-1.000000	-1.000000	-1.000000	146.965517	0.000000	-1.000000	-1.000000	342509.000000	1772311343.609933
-16973.055000	-17523.855000	-20100.735000	-12730.995000	0.000000	0.000000	0.000000	0.000000	-1.600117	20.775550	-2.069749	-1.845827	0.000000	0.000000	0.000000	0.000000	4.028640	0.015260	-0.335720	0.019958	0.981870	-0.009094	-1.000000	-1.000000	-1.000000	-1.000000	-1.000000	-1.000000	-1.000000	146.965517	0.000000	-1.000000	-1.000000	342510.000000	1772311343.612498
-16978.005000	-17529.390000	-20104.335000	-12735.090000	0.000000	0.000000	0.000000	0.000000	3.284576	15.014756	1.361744	1.802587	0.000000	0.000000	0.000000	0.000000	4.028640	0.015260	-0.335720	0.019958	0.981870	-0.009094	-1.000000	-1.000000	-1.000000	-1.000000	-1.000000	-1.000000	-1.000000	146.965517	0.000000	-1.000000	-1.000000	342511.000000	1772311343.612503
-16974.900000	-17571.330000	-20099.070000	-12728.295000	0.000000	0.000000	0.000000	0.000000	6.641332	5.341762	4.463365	4.785766	0.000000	0.000000	0.000000	0.000000	4.028640	0.015260	-0.335720	0.019958	0.981870	-0.009094	-1.000000	-1.000000	-1.000000	-1.000000	-1.000000	-1.000000	-1.000000	146.965517	0.000000	-1.000000	-1.000000	342512.000000	1772311343.616477
-16962.390000	-17571.690000	-20085.660000	-12715.920000	0.000000	0.000000	0.000000	0.000000	6.652005	-6.902428	5.439508	5.541923	0.000000	0.000000	0.000000	0.000000	4.028640	0.015260	-0.335720	0.019958	0.981870	-0.009094	-1.000000	-1.000000	-1.000000	-1.000000	-1.000000	-1.000000	-1.000000	146.965517	0.000000	-1.000000	-1.000000	342513.000000	1772311343.616482
-16961.670000	-17560.530000	-20084.580000	-12716.505000	0.000000	0.000000	0.000000	0.000000	4.215744	-16.959522	4.466096	4.388089	0.000000	0.000000	0.000000	0.000000	4.028640	0.015260	-0.335720	0.019958	0.981870	-0.009094	-1.000000	-1.000000	-1.000000	-1.000000	-1.000000	-1.000000	-1.000000	146.965517	0.000000	-1.000000	-1.000000	342514.000000	1772311343.620366
-16986.015000	-17570.115000	-20109.195000	-12742.020000	0.000000	0.000000	0.000000	0.000000	0.540703	-18.797830	1.813283	1.535054	0.000000	0.000000	0.000000	0.000000	4.028640	0.015260	-0.335720	0.019958	0.981870	-0.009094	-1.000000	-1.000000	-1.000000	-1.000000	-1.000000	-1.000000	-1.000000	146.965517	0.000000	-1.000000	-1.000000	342515.000000	1772311343.620370
-17001.225000	-17584.020000	-20125.620000	-12759.840000	0.000000	0.000000	0.000000	0.000000	-4.496536	-12.063852	-3.169561	-3.665726	0.000000	0.000000	0.000000	0.000000	4.455920	0.015260	-0.381500	0.019836	0.982297	-0.009949	-1.000000	-1.000000	-1.000000	-1.000000	-1.000000	-1.000000	-1.000000	146.965517	0.000000	-1.000000	-1.000000	342516.000000	1772311343.624435
-16996.230000	-17576.370000	-20121.075000	-12748.185000	0.000000	0.000000	0.000000	0.000000	-9.727479	-2.137498	-9.199553	-9.651559	0.000000	0.000000	0.000000	0.000000	4.455920	0.015260	-0.381500	0.019836	0.982297	-0.009949	-1.000000	-1.000000	-1.000000	-1.000000	-1.000000	-1.000000	-1.000000	146.965517	0.000000	-1.000000	-1.000000	342517.000000	1772311343.624439
-16987.275000	-17543.430000	-20113.380000	-12739.770000	0.000000	0.000000	0.000000	0.000000	-11.304797	6.670941	-11.861248	-11.641048	0.000000	0.000000	0.000000	0.000000	4.455920	0.015260	-0.381500	0.019836	0.982297	-0.009949	-1.000000	-1.000000	-1.000000	-1.000000	-1.000000	-1.000000	-1.000000	146.965517	0.000000	-1.000000	-1.000000	342518.000000	1772311343.628515
-16977.915000	-17514.180000	-20106.180000	-12742.470000	0.000000	0.000000	0.000000	0.000000	-6.482037	13.779489	-7.823511	-6.722348	0.000000	0.000000	0.000000	0.000000	4.455920	0.015260	-0.381500	0.019836	0.982297	-0.009949	-1.000000	-1.000000	-1.000000	-1.000000	-1.000000	-1.000000	-1.000000	146.965517	0.000000	-1.000000	-1.000000	342519.000000	1772311343.628569
-16973.550000	-17540.955000	-20100.375000	-12736.800000	0.000000	0.000000	0.000000	0.000000	2.779812	17.886949	1.272783	2.285036	0.000000	0.000000	0.000000	0.000000	4.455920	0.015260	-0.381500	0.019836	0.982297	-0.009949	-1.000000	-1.000000	-1.000000	-1.000000	-1.000000	-1.000000	-1.000000	146.965517	0.000000	-1.000000	-1.000000	342520.000000	1772311343.632450
-16974.315000	-17584.290000	-20098.395000	-12735.675000	0.000000	0.000000	0.000000	0.000000	11.072502	14.049396	10.154007	9.887647	0.000000	0.000000	0.000000	0.000000	4.455920	0.015260	-0.381500	0.019836	0.982297	-0.009949	-1.000000	-1.000000	-1.000000	-1.000000	-1.000000	-1.000000	-1.000000	146.965517	0.000000	-1.000000	-1.000000	342521.000000	1772311343.632453
-16982.955000	-17580.465000	-20106.675000	-12743.100000	0.000000	0.000000	0.000000	0.000000	13.540977	0.116944	13.835852	12.321147	0.000000	0.000000	0.000000	0.000000	4.455920	0.015260	-0.381500	0.019836	0.982297	-0.009949	-1.000000	-1.000000	-1.000000	-1.000000	-1.000000	-1.000000	-1.000000	146.965517	0.000000	-1.000000	-1.000000	342522.000000	1772311343.636514
-16979.625000	-17585.235000	-20102.670000	-12735.270000	0.000000	0.000000	0.000000	0.000000	9.127328	-16.478582	10.661610	9.124493	0.000000	0.000000	0.000000	0.000000	4.455920	0.015260	-0.381500	0.019836	0.982297	-0.009949	-1.000000	-1.000000	-1.000000	-1.000000	-1.000000	-1.000000	-1.000000	146.965517	0.000000	-1.000000	-1.000000	342523.000000	1772311343.636517
-16979.310000	-17570.790000	-20102.130000	-12733.020000	0.000000	0.000000	0.000000	0.000000	1.105314	-24.343417	3.178656	2.991689	0.000000	0.000000	0.000000	0.000000	4.455920	0.015260	-0.381500	0.019836	0.982297	-0.009949	-1.000000	-1.000000	-1.000000	-1.000000	-1.000000	-1.000000	-1.000000	146.965517	0.000000	-1.000000	-1.000000	342524.000000	1772311343.640412
-16977.870000	-17539.200000	-20104.425000	-12738.960000	0.000000	0.000000	0.000000	0.000000	-5.709748	-18.103218	-4.137701	-2.576115	0.000000	0.000000	0.000000	0.000000	4.455920	0.015260	-0.381500	0.019836	0.982297	-0.009949	-1.000000	-1.000000	-1.000000	-1.000000	-1.000000	-1.000000	-1.000000	146.965517	0.000000	-1.000000	-1.000000	342525.000000	1772311343.640414
-16974.855000	-17528.805000	-20103.885000	-12738.780000	0.000000	0.000000	0.000000	0.000000	-8.394621	-1.374992	-8.217004	-5.895351	0.000000	0.000000	0.000000	0.000000	3.708180	0.289940	-0.442540	0.020874	0.983762	-0.012512	-1.000000	-1.000000	-1.000000	-1.000000	-1.000000	-1.000000	-1.000000	146.965517	0.000000	-1.000000	-1.000000	342526.000000	1772311343.644528
-16986.420000	-17516.700000	-20113.065000	-12743.190000	0.000000	0.000000	0.000000	0.000000	-7.142872	15.958326	-8.560715	-6.906773	0.000000	0.000000	0.000000	0.000000	3.708180	0.289940	-0.442540	0.020874	0.983762	-0.012512	-1.000000	-1.000000	-1.000000	-1.000000	-1.000000	-1.000000	-1.000000	146.965517	0.000000	-1.000000	-1.000000	342527.000000	1772311343.644531
-16986.465000	-17508.420000	-20111.940000	-12741.705000	0.000000	0.000000	0.000000	0.000000	-4.237722	24.206110	-6.410083	-5.992656	0.000000	0.000000	0.000000	0.000000	3.708180	0.289940	-0.442540	0.020874	0.983762	-0.012512	-1.000000	-1.000000	-1.000000	-1.000000	-1.000000	-1.000000	-1.000000	146.965517	0.000000	-1.000000	-1.000000	342528.000000	1772311343.648485
-16981.515000	-17487.630000	-20105.505000	-12737.070000	0.000000	0.000000	0.000000	0.000000	-1.507361	20.342100	-3.055663	-3.568303	0.000000	0.000000	0.000000	0.000000	3.708180	0.289940	-0.442540	0.020874	0.983762	-0.012512	-1.000000	-1.000000	-1.000000	-1.000000	-1.000000	-1.000000	-1.000000	146.965517	0.000000	-1.000000	-1.000000	342529.000000	1772311343.648488
-16987.500000	-17451.675000	-20110.815000	-12743.280000	0.000000	0.000000	0.000000	0.000000	0.774809	9.049025	0.744436	-0.334725	0.000000	0.000000	0.000000	0.000000	3.708180	0.289940	-0.442540	0.020874	0.983762	-0.012512	-1.000000	-1.000000	-1.000000	-1.000000	-1.000000	-1.000000	-1.000000	146.965517	0.000000	-1.000000	-1.000000	342530.000000	1772311343.652460
-16998.705000	-17445.645000	-20123.055000	-12756.105000	0.000000	0.000000	0.000000	0.000000	2.282671	-2.271408	3.621939	2.142244	0.000000	0.000000	0.000000	0.000000	3.708180	0.289940	-0.442540	0.020874	0.983762	-0.012512	-1.000000	-1.000000	-1.000000	-1.000000	-1.000000	-1.000000	-1.000000	146.965517	0.000000	-1.000000	-1.000000	342531.000000	1772311343.652463
-16999.065000	-17428.725000	-20124.270000	-12758.400000	0.000000	0.000000	0.000000	0.000000	2.293374	-9.637371	4.030098	2.382079	0.000000	0.000000	0.000000	0.000000	3.708180	0.289940	-0.442540	0.020874	0.983762	-0.012512	-1.000000	-1.000000	-1.000000	-1.000000	-1.000000	-1.000000	-1.000000	146.965517	0.000000	-1.000000	-1.000000	342532.000000	1772311343.656512
-16994.970000	-17409.600000	-20120.895000	-12754.890000	0.000000	0.000000	0.000000	0.000000	1.338624	-12.950894	2.390677	0.976271	0.000000	0.000000	0.000000	0.000000	3.708180	0.289940	-0.442540	0.020874	0.983762	-0.012512	-1.000000	-1.000000	-1.000000	-1.000000	-1.000000	-1.000000	-1.000000	146.965517	0.000000	-1.000000	-1.000000	342533.000000	1772311343.656515
-16985.970000	-17386.740000	-20112.795000	-12746.565000	0.000000	0.000000	0.000000	0.000000	1.132890	-12.760392	0.978177	0.236226	0.000000	0.000000	0.000000	0.000000	3.708180	0.289940	-0.442540	0.020874	0.983762	-0.012512	-1.000000	-1.000000	-1.000000	-1.000000	-1.000000	-1.000000	-1.000000	146.965517	0.000000	-1.000000	-1.000000	342534.000000	1772311343.660530
-16986.690000	-17398.080000	-20113.290000	-12743.235000	0.000000	0.000000	0.000000	0.000000	2.445557	-10.097528	1.312369	1.574265	0.000000	0.000000	0.000000	0.000000	3.708180	0.289940	-0.442540	0.020874	0.983762	-0.012512	-1.000000	-1.000000	-1.000000	-1.000000	-1.000000	-1.000000	-1.000000	146.965517	0.000000	-1.000000	-1.000000	342535.000000	1772311343.660532
-16987.365000	-17394.165000	-20113.785000	-12743.415000	0.000000	0.000000	0.000000	0.000000	3.983718	-7.432716	2.591311	3.951617	0.000000	0.000000	0.000000	0.000000	3.250380	0.320460	-0.518840	0.020813	0.984128	-0.014404	-1.000000	-1.000000	-1.000000	-1.000000	-1.000000	-1.000000	-1.000000	146.965517	0.000000	-1.000000	-1.000000	342536.000000	1772311343.664582
-16986.465000	-17404.965000	-20111.940000	-12742.020000	0.000000	0.000000	0.000000	0.000000	3.862571	-6.544319	2.972567	5.057099	0.000000	0.000000	0.000000	0.000000	3.250380	0.320460	-0.518840	0.020813	0.984128	-0.014404	-1.000000	-1.000000	-1.000000	-1.000000	-1.000000	-1.000000	-1.000000	146.965517	0.000000	-1.000000	-1.000000	342537.000000	1772311343.664585
-16988.940000	-17401.275000	-20114.460000	-12748.320000	0.000000	0.000000	0.000000	0.000000	1.627005	-6.588906	1.648176	3.522484	0.000000	0.000000	0.000000	0.000000	3.250380	0.320460	-0.518840	0.020813	0.984128	-0.014404	-1.000000	-1.000000	-1.000000	-1.000000	-1.000000	-1.000000	-1.000000	146.965517	0.000000	-1.000000	-1.000000	342538.000000	1772311343.669381
-17000.280000	-17368.695000	-20125.980000	-12759.075000	0.000000	0.000000	0.000000	0.000000	-1.809253	-4.706812	-0.992790	-0.353899	0.000000	0.000000	0.000000	0.000000	3.250380	0.320460	-0.518840	0.020813	0.984128	-0.014404	-1.000000	-1.000000	-1.000000	-1.000000	-1.000000	-1.000000	-1.000000	146.965517	0.000000	-1.000000	-1.000000	342539.000000	1772311343.669385
-16998.255000	-17335.890000	-20123.325000	-12755.070000	0.000000	0.000000	0.000000	0.000000	-5.099663	1.910409	-3.984975	-4.872097	0.000000	0.000000	0.000000	0.000000	3.250380	0.320460	-0.518840	0.020813	0.984128	-0.014404	-1.000000	-1.000000	-1.000000	-1.000000	-1.000000	-1.000000	-1.000000	146.965517	0.000000	-1.000000	-1.000000	342540.000000	1772311343.672583
-16989.390000	-17304.570000	-20113.695000	-12745.395000	0.000000	0.000000	0.000000	0.000000	-6.458972	12.552395	-5.554464	-7.249517	0.000000	0.000000	0.000000	0.000000	3.250380	0.320460	-0.518840	0.020813	0.984128	-0.014404	-1.000000	-1.000000	-1.000000	-1.000000	-1.000000	-1.000000	-1.000000	146.965517	0.000000	-1.000000	-1.000000	342541.000000	1772311343.672586
-16992.945000	-17290.125000	-20122.470000	-12751.965000	0.000000	0.000000	0.000000	0.000000	-4.609304	21.733417	-4.262521	-5.661512	0.000000	0.000000	0.000000	0.000000	3.250380	0.320460	-0.518840	0.020813	0.984128	-0.014404	-1.000000	-1.000000	-1.000000	-1.000000	-1.000000	-1.000000	-1.000000	146.965517	0.000000	-1.000000	-1.000000	342542.000000	1772311343.676667
-17004.825000	-17282.970000	-20135.880000	-12764.790000	0.000000	0.000000	0.000000	0.000000	-0.820171	22.883828	-1.314998	-1.684572	0.000000	0.000000	0.000000	0.000000	3.250380	0.320460	-0.518840	0.020813	0.984128	-0.014404	-1.000000	-1.000000	-1.000000	-1.000000	-1.000000	-1.000000	-1.000000	146.965517	0.000000	-1.000000	-1.000000	342543.000000	1772311343.676670
-17005.770000	-17295.570000	-20136.870000	-12768.885000	0.000000	0.000000	0.000000	0.000000	1.960747	13.297762	0.606365	1.235562	0.000000	0.000000	0.000000	0.000000	3.250380	0.320460	-0.518840	0.020813	0.984128	-0.014404	-1.000000	-1.000000	-1.000000	-1.000000	-1.000000	-1.000000	-1.000000	146.965517	0.000000	-1.000000	-1.000000	342544.000000	1772311343.680650
-17001.990000	-17305.020000	-20130.570000	-12761.505000	0.000000	0.000000	0.000000	0.000000	2.522232	-3.841946	0.935223	1.849550	0.000000	0.000000	0.000000	0.000000	3.250380	0.320460	-0.518840	0.020813	0.984128	-0.014404	-1.000000	-1.000000	-1.000000	-1.000000	-1.000000	-1.000000	-1.000000	146.965517	0.000000	-1.000000	-1.000000	342545.000000	1772311343.680653
-16981.515000	-17291.205000	-20107.170000	-12741.705000	0.000000	0.000000	0.000000	0.000000	2.457206	-20.569662	1.714632	2.114992	0.000000	0.000000	0.000000	0.000000	2.716280	0.091560	-0.518840	0.019775	0.984128	-0.014526	-1.000000	-1.000000	-1.000000	-1.000000	-1.000000	-1.000000	-1.000000	146.965517	0.000000	-1.000000	-1.000000	342546.000000	1772311343.684572
-16977.735000	-17279.460000	-20103.345000	-12737.295000	0.000000	0.000000	0.000000	0.000000	3.671576	-28.005346	4.512603	4.067374	0.000000	0.000000	0.000000	0.000000	2.716280	0.091560	-0.518840	0.019775	0.984128	-0.014526	-1.000000	-1.000000	-1.000000	-1.000000	-1.000000	-1.000000	-1.000000	146.965517	0.000000	-1.000000	-1.000000	342547.000000	1772311343.684575
-16981.290000	-17262.630000	-20108.250000	-12744.405000	0.000000	0.000000	0.000000	0.000000	5.447122	-22.229542	7.575652	6.530732	0.000000	0.000000	0.000000	0.000000	2.716280	0.091560	-0.518840	0.019775	0.984128	-0.014526	-1.000000	-1.000000	-1.000000	-1.000000	-1.000000	-1.000000	-1.000000	146.965517	0.000000	-1.000000	-1.000000	342548.000000	1772311343.693972
-17000.145000	-17221.500000	-20126.610000	-12765.105000	0.000000	0.000000	0.000000	0.000000	4.749700	-6.537857	6.965924	5.868546	0.000000	0.000000	0.000000	0.000000	2.716280	0.091560	-0.518840	0.019775	0.984128	-0.014526	-1.000000	-1.000000	-1.000000	-1.000000	-1.000000	-1.000000	-1.000000	146.965517	0.000000	-1.000000	-1.000000	342549.000000	1772311343.693975
-17010.000000	-17204.490000	-20136.690000	-12771.990000	0.000000	0.000000	0.000000	0.000000	-0.211668	11.607463	0.905507	0.274643	0.000000	0.000000	0.000000	0.000000	2.716280	0.091560	-0.518840	0.019775	0.984128	-0.014526	-1.000000	-1.000000	-1.000000	-1.000000	-1.000000	-1.000000	-1.000000	146.965517	0.000000	-1.000000	-1.000000	342550.000000	1772311343.693979
-17004.960000	-17162.190000	-20135.745000	-12770.055000	0.000000	0.000000	0.000000	0.000000	-7.108294	24.432855	-7.575425	-7.300872	0.000000	0.000000	0.000000	0.000000	2.716280	0.091560	-0.518840	0.019775	0.984128	-0.014526	-1.000000	-1.000000	-1.000000	-1.000000	-1.000000	-1.000000	-1.000000	146.965517	0.000000	-1.000000	-1.000000	342551.000000	1772311343.693981
-17003.250000	-17143.515000	-20132.820000	-12766.365000	0.000000	0.000000	0.000000	0.000000	-10.900507	27.241897	-12.716251	-11.340204	0.000000	0.000000	0.000000	0.000000	2.716280	0.091560	-0.518840	0.019775	0.984128	-0.014526	-1.000000	-1.000000	-1.000000	-1.000000	-1.000000	-1.000000	-1.000000	146.965517	0.000000	-1.000000	-1.000000	342552.000000	1772311343.696591
-17000.370000	-17124.615000	-20127.645000	-12756.555000	0.000000	0.000000	0.000000	0.000000	-8.590512	19.851638	-10.899130	-8.716592	0.000000	0.000000	0.000000	0.000000	2.716280	0.091560	-0.518840	0.019775	0.984128	-0.014526	-1.000000	-1.000000	-1.000000	-1.000000	-1.000000	-1.000000	-1.000000	146.965517	0.000000	-1.000000	-1.000000	342553.000000	1772311343.696594
-17006.580000	-17092.890000	-20132.415000	-12761.595000	0.000000	0.000000	0.000000	0.000000	-1.892940	5.943656	-3.483960	-1.149520	0.000000	0.000000	0.000000	0.000000	2.716280	0.091560	-0.518840	0.019775	0.984128	-0.014526	-1.000000	-1.000000	-1.000000	-1.000000	-1.000000	-1.000000	-1.000000	146.965517	0.000000	-1.000000	-1.000000	342554.000000	1772311343.700634
-17007.480000	-17078.175000	-20132.730000	-12761.640000	0.000000	0.000000	0.000000	0.000000	4.739026	-8.368080	4.698189	6.386645	0.000000	0.000000	0.000000	0.000000	2.716280	0.091560	-0.518840	0.019775	0.984128	-0.014526	-1.000000	-1.000000	-1.000000	-1.000000	-1.000000	-1.000000	-1.000000	146.965517	0.000000	-1.000000	-1.000000	342555.000000	1772311343.700637
-17000.955000	-17098.470000	-20126.970000	-12755.115000	0.000000	0.000000	0.000000	0.000000	8.043645	-18.592187	9.414748	9.752125	0.000000	0.000000	0.000000	0.000000	2.227960	0.137340	-0.427280	0.019836	0.982725	-0.014221	-1.000000	-1.000000	-1.000000	-1.000000	-1.000000	-1.000000	-1.000000	146.965517	0.000000	-1.000000	-1.000000	342556.000000	1772311343.704630
-16999.380000	-17090.235000	-20124.945000	-12751.875000	0.000000	0.000000	0.000000	0.000000	7.821481	-24.081351	9.661639	8.463768	0.000000	0.000000	0.000000	0.000000	2.227960	0.137340	-0.427280	0.019836	0.982725	-0.014221	-1.000000	-1.000000	-1.000000	-1.000000	-1.000000	-1.000000	-1.000000	146.965517	0.000000	-1.000000	-1.000000	342557.000000	1772311343.704635
-17001.495000	-17075.205000	-20128.590000	-12757.230000	0.000000	0.000000	0.000000	0.000000	5.432040	-24.421272	6.689019	4.422505	0.000000	0.000000	0.000000	0.000000	2.227960	0.137340	-0.427280	0.019836	0.982725	-0.014221	-1.000000	-1.000000	-1.000000	-1.000000	-1.000000	-1.000000	-1.000000	146.965517	0.000000	-1.000000	-1.000000	342558.000000	1772311343.708672
-17006.805000	-17042.040000	-20137.950000	-12775.770000	0.000000	0.000000	0.000000	0.000000	1.935708	-17.626345	1.968184	-0.778252	0.000000	0.000000	0.000000	0.000000	2.227960	0.137340	-0.427280	0.019836	0.982725	-0.014221	-1.000000	-1.000000	-1.000000	-1.000000	-1.000000	-1.000000	-1.000000	146.965517	0.000000	-1.000000	-1.000000	342559.000000	1772311343.708676
-17008.290000	-17020.530000	-20140.245000	-12775.725000	0.000000	0.000000	0.000000	0.000000	-1.863092	-3.826777	-3.144108	-6.055884	0.000000	0.000000	0.000000	0.000000	2.227960	0.137340	-0.427280	0.019836	0.982725	-0.014221	-1.000000	-1.000000	-1.000000	-1.000000	-1.000000	-1.000000	-1.000000	146.965517	0.000000	-1.000000	-1.000000	342560.000000	1772311343.712615
-16996.815000	-17055.405000	-20126.160000	-12759.120000	0.000000	0.000000	0.000000	0.000000	-4.584315	11.043797	-6.587067	-9.083651	0.000000	0.000000	0.000000	0.000000	2.227960	0.137340	-0.427280	0.019836	0.982725	-0.014221	-1.000000	-1.000000	-1.000000	-1.000000	-1.000000	-1.000000	-1.000000	146.965517	0.000000	-1.000000	-1.000000	342561.000000	1772311343.712619
-16989.615000	-17092.035000	-20117.655000	-12750.705000	0.000000	0.000000	0.000000	0.000000	-4.605365	17.266794	-6.150658	-7.099593	0.000000	0.000000	0.000000	0.000000	2.227960	0.137340	-0.427280	0.019836	0.982725	-0.014221	-1.000000	-1.000000	-1.000000	-1.000000	-1.000000	-1.000000	-1.000000	146.965517	0.000000	-1.000000	-1.000000	342562.000000	1772311343.716876
-16995.240000	-17120.340000	-20120.985000	-12755.025000	0.000000	0.000000	0.000000	0.000000	-2.018128	10.113342	-2.043189	-0.722324	0.000000	0.000000	0.000000	0.000000	2.227960	0.137340	-0.427280	0.019836	0.982725	-0.014221	-1.000000	-1.000000	-1.000000	-1.000000	-1.000000	-1.000000	-1.000000	146.965517	0.000000	-1.000000	-1.000000	342563.000000	1772311343.716879
-17002.980000	-17150.355000	-20128.230000	-12762.405000	0.000000	0.000000	0.000000	0.000000	0.632784	-4.607814	2.311932	5.386366	0.000000	0.000000	0.000000	0.000000	2.227960	0.137340	-0.427280	0.019836	0.982725	-0.014221	-1.000000	-1.000000	-1.000000	-1.000000	-1.000000	-1.000000	-1.000000	146.965517	0.000000	-1.000000	-1.000000	342564.000000	1772311343.720820
-16991.955000	-17176.140000	-20116.305000	-12748.500000	0.000000	0.000000	0.000000	0.000000	1.141864	-16.018627	3.721829	7.215041	0.000000	0.000000	0.000000	0.000000	2.227960	0.137340	-0.427280	0.019836	0.982725	-0.014221	-1.000000	-1.000000	-1.000000	-1.000000	-1.000000	-1.000000	-1.000000	146.965517	0.000000	-1.000000	-1.000000	342565.000000	1772311343.720823
-16985.790000	-17192.565000	-20109.240000	-12739.590000	0.000000	0.000000	0.000000	0.000000	0.257582	-16.835219	2.502086	5.242594	0.000000	0.000000	0.000000	0.000000	2.182180	0.030520	-0.442540	0.019653	0.982664	-0.013916	-1.000000	-1.000000	-1.000000	-1.000000	-1.000000	-1.000000	-1.000000	146.965517	0.000000	-1.000000	-1.000000	342566.000000	1772311343.724757
-16988.715000	-17169.480000	-20116.035000	-12747.375000	0.000000	0.000000	0.000000	0.000000	-0.148325	-6.178811	0.749708	2.198110	0.000000	0.000000	0.000000	0.000000	2.182180	0.030520	-0.442540	0.019653	0.982664	-0.013916	-1.000000	-1.000000	-1.000000	-1.000000	-1.000000	-1.000000	-1.000000	146.965517	0.000000	-1.000000	-1.000000	342567.000000	1772311343.724760
-16994.655000	-17157.060000	-20124.405000	-12758.040000	0.000000	0.000000	0.000000	0.000000	-0.023701	11.945386	-0.959333	-0.934750	0.000000	0.000000	0.000000	0.000000	2.182180	0.030520	-0.442540	0.019653	0.982664	-0.013916	-1.000000	-1.000000	-1.000000	-1.000000	-1.000000	-1.000000	-1.000000	146.965517	0.000000	-1.000000	-1.000000	342568.000000	1772311343.728615
-16997.445000	-17153.640000	-20126.160000	-12759.795000	0.000000	0.000000	0.000000	0.000000	-0.502960	29.669323	-3.036280	-4.371805	0.000000	0.000000	0.000000	0.000000	2.182180	0.030520	-0.442540	0.019653	0.982664	-0.013916	-1.000000	-1.000000	-1.000000	-1.000000	-1.000000	-1.000000	-1.000000	146.965517	0.000000	-1.000000	-1.000000	342569.000000	1772311343.728618
-16992.855000	-17139.600000	-20119.140000	-12753.315000	0.000000	0.000000	0.000000	0.000000	-1.614324	38.031082	-4.624766	-6.907167	0.000000	0.000000	0.000000	0.000000	2.182180	0.030520	-0.442540	0.019653	0.982664	-0.013916	-1.000000	-1.000000	-1.000000	-1.000000	-1.000000	-1.000000	-1.000000	146.965517	0.000000	-1.000000	-1.000000	342570.000000	1772311343.732839
-16988.490000	-17142.210000	-20113.965000	-12747.600000	0.000000	0.000000	0.000000	0.000000	-2.018311	32.617591	-3.973498	-6.392405	0.000000	0.000000	0.000000	0.000000	2.182180	0.030520	-0.442540	0.019653	0.982664	-0.013916	-1.000000	-1.000000	-1.000000	-1.000000	-1.000000	-1.000000	-1.000000	146.965517	0.000000	-1.000000	-1.000000	342571.000000	1772311343.732842
-16991.640000	-17168.940000	-20115.990000	-12748.095000	0.000000	0.000000	0.000000	0.000000	-0.873531	15.403723	-0.827554	-2.487597	0.000000	0.000000	0.000000	0.000000	2.182180	0.030520	-0.442540	0.019653	0.982664	-0.013916	-1.000000	-1.000000	-1.000000	-1.000000	-1.000000	-1.000000	-1.000000	146.965517	0.000000	-1.000000	-1.000000	342572.000000	1772311343.736793
-16992.855000	-17179.740000	-20118.060000	-12751.245000	0.000000	0.000000	0.000000	0.000000	0.944687	-7.458973	2.759653	2.401781	0.000000	0.000000	0.000000	0.000000	2.182180	0.030520	-0.442540	0.019653	0.982664	-0.013916	-1.000000	-1.000000	-1.000000	-1.000000	-1.000000	-1.000000	-1.000000	146.965517	0.000000	-1.000000	-1.000000	342573.000000	1772311343.736796
-16980.885000	-17205.480000	-20107.080000	-12743.190000	0.000000	0.000000	0.000000	0.000000	2.203195	-27.607187	4.625551	5.405005	0.000000	0.000000	0.000000	0.000000	2.182180	0.030520	-0.442540	0.019653	0.982664	-0.013916	-1.000000	-1.000000	-1.000000	-1.000000	-1.000000	-1.000000	-1.000000	146.965517	0.000000	-1.000000	-1.000000	342574.000000	1772311343.740759
-16979.130000	-17216.820000	-20106.315000	-12742.020000	0.000000	0.000000	0.000000	0.000000	2.814728	-37.600195	4.525003	5.671693	0.000000	0.000000	0.000000	0.000000	2.182180	0.030520	-0.442540	0.019653	0.982664	-0.013916	-1.000000	-1.000000	-1.000000	-1.000000	-1.000000	-1.000000	-1.000000	146.965517	0.000000	-1.000000	-1.000000	342575.000000	1772311343.740762
-16997.355000	-17191.755000	-20126.115000	-12758.130000	0.000000	0.000000	0.000000	0.000000	2.601141	-33.749756	2.855207	3.728081	0.000000	0.000000	0.000000	0.000000	2.746800	-0.106820	-0.305200	0.021057	0.983152	-0.013794	-1.000000	-1.000000	-1.000000	-1.000000	-1.000000	-1.000000	-1.000000	146.965517	0.000000	-1.000000	-1.000000	342576.000000	1772311343.744773
-16990.020000	-17207.550000	-20117.520000	-12747.555000	0.000000	0.000000	0.000000	0.000000	0.712623	-17.473931	-0.360208	0.292110	0.000000	0.000000	0.000000	0.000000	2.746800	-0.106820	-0.305200	0.021057	0.983152	-0.013794	-1.000000	-1.000000	-1.000000	-1.000000	-1.000000	-1.000000	-1.000000	146.965517	0.000000	-1.000000	-1.000000	342577.000000	1772311343.744776
-16982.280000	-17242.065000	-20107.890000	-12739.905000	0.000000	0.000000	0.000000	0.000000	-1.978378	2.948010	-3.522888	-2.748189	0.000000	0.000000	0.000000	0.000000	2.746800	-0.106820	-0.305200	0.021057	0.983152	-0.013794	-1.000000	-1.000000	-1.000000	-1.000000	-1.000000	-1.000000	-1.000000	146.965517	0.000000	-1.000000	-1.000000	342578.000000	1772311343.748898
-16994.385000	-17254.665000	-20118.195000	-12752.010000	0.000000	0.000000	0.000000	0.000000	-3.257540	16.386582	-4.204110	-3.443858	0.000000	0.000000	0.000000	0.000000	2.746800	-0.106820	-0.305200	0.021057	0.983152	-0.013794	-1.000000	-1.000000	-1.000000	-1.000000	-1.000000	-1.000000	-1.000000	146.965517	0.000000	-1.000000	-1.000000	342579.000000	1772311343.748901
-16991.640000	-17247.060000	-20114.190000	-12748.320000	0.000000	0.000000	0.000000	0.000000	-2.742995	18.587142	-2.474275	-2.324691	0.000000	0.000000	0.000000	0.000000	2.746800	-0.106820	-0.305200	0.021057	0.983152	-0.013794	-1.000000	-1.000000	-1.000000	-1.000000	-1.000000	-1.000000	-1.000000	146.965517	0.000000	-1.000000	-1.000000	342580.000000	1772311343.752793
-16979.265000	-17248.050000	-20099.790000	-12734.370000	0.000000	0.000000	0.000000	0.000000	-1.256617	14.232389	0.065270	-0.740484	0.000000	0.000000	0.000000	0.000000	2.746800	-0.106820	-0.305200	0.021057	0.983152	-0.013794	-1.000000	-1.000000	-1.000000	-1.000000	-1.000000	-1.000000	-1.000000	146.965517	0.000000	-1.000000	-1.000000	342581.000000	1772311343.752795
-16981.245000	-17237.925000	-20099.790000	-12730.815000	0.000000	0.000000	0.000000	0.000000	0.942326	9.616368	2.618215	1.228024	0.000000	0.000000	0.000000	0.000000	2.746800	-0.106820	-0.305200	0.021057	0.983152	-0.013794	-1.000000	-1.000000	-1.000000	-1.000000	-1.000000	-1.000000	-1.000000	146.965517	0.000000	-1.000000	-1.000000	342582.000000	1772311343.756839
-16983.900000	-17215.785000	-20107.170000	-12736.980000	0.000000	0.000000	0.000000	0.000000	2.989799	7.543686	4.158528	3.078757	0.000000	0.000000	0.000000	0.000000	2.746800	-0.106820	-0.305200	0.021057	0.983152	-0.013794	-1.000000	-1.000000	-1.000000	-1.000000	-1.000000	-1.000000	-1.000000	146.965517	0.000000	-1.000000	-1.000000	342583.000000	1772311343.756846
-16984.215000	-17195.220000	-20110.185000	-12740.850000	0.000000	0.000000	0.000000	0.000000	3.340101	7.753962	3.174888	3.104019	0.000000	0.000000	0.000000	0.000000	2.746800	-0.106820	-0.305200	0.021057	0.983152	-0.013794	-1.000000	-1.000000	-1.000000	-1.000000	-1.000000	-1.000000	-1.000000	146.965517	0.000000	-1.000000	-1.000000	342584.000000	1772311343.763204
-16990.245000	-17192.475000	-20118.105000	-12752.865000	0.000000	0.000000	0.000000	0.000000	1.581928	7.943574	-0.302717	0.453073	0.000000	0.000000	0.000000	0.000000	2.746800	-0.106820	-0.305200	0.021057	0.983152	-0.013794	-1.000000	-1.000000	-1.000000	-1.000000	-1.000000	-1.000000	-1.000000	146.965517	0.000000	-1.000000	-1.000000	342585.000000	1772311343.763209
-16988.355000	-17224.515000	-20117.565000	-12757.365000	0.000000	0.000000	0.000000	0.000000	-1.167092	4.344719	-4.228563	-3.650933	0.000000	0.000000	0.000000	0.000000	3.296160	-3.906560	-0.473060	0.020569	0.982969	-0.013489	-1.000000	-1.000000	-1.000000	-1.000000	-1.000000	-1.000000	-1.000000	146.965517	0.000000	-1.000000	-1.000000	342586.000000	1772311343.764790
-16988.220000	-17234.595000	-20116.935000	-12755.520000	0.000000	0.000000	0.000000	0.000000	-3.166546	-5.320458	-6.080999	-6.601185	0.000000	0.000000	0.000000	0.000000	3.296160	-3.906560	-0.473060	0.020569	0.982969	-0.013489	-1.000000	-1.000000	-1.000000	-1.000000	-1.000000	-1.000000	-1.000000	146.965517	0.000000	-1.000000	-1.000000	342587.000000	1772311343.764792
-17003.880000	-17213.355000	-20130.660000	-12768.120000	0.000000	0.000000	0.000000	0.000000	-3.520851	-17.199989	-4.887388	-6.343073	0.000000	0.000000	0.000000	0.000000	3.296160	-3.906560	-0.473060	0.020569	0.982969	-0.013489	-1.000000	-1.000000	-1.000000	-1.000000	-1.000000	-1.000000	-1.000000	146.965517	0.000000	-1.000000	-1.000000	342588.000000	1772311343.768836
-17002.980000	-17187.795000	-20128.230000	-12764.790000	0.000000	0.000000	0.000000	0.000000	-2.863703	-22.393462	-1.917228	-3.120033	0.000000	0.000000	0.000000	0.000000	3.296160	-3.906560	-0.473060	0.020569	0.982969	-0.013489	-1.000000	-1.000000	-1.000000	-1.000000	-1.000000	-1.000000	-1.000000	146.965517	0.000000	-1.000000	-1.000000	342589.000000	1772311343.768839
-16991.505000	-17189.820000	-20115.900000	-12746.520000	0.000000	0.000000	0.000000	0.000000	-1.572577	-15.969704	1.412074	1.676013	0.000000	0.000000	0.000000	0.000000	3.296160	-3.906560	-0.473060	0.020569	0.982969	-0.013489	-1.000000	-1.000000	-1.000000	-1.000000	-1.000000	-1.000000	-1.000000	146.965517	0.000000	-1.000000	-1.000000	342590.000000	1772311343.774205
-16979.490000	-17191.215000	-20103.165000	-12736.440000	0.000000	0.000000	0.000000	0.000000	1.156236	-2.735881	4.982253	7.062831	0.000000	0.000000	0.000000	0.000000	3.296160	-3.906560	-0.473060	0.020569	0.982969	-0.013489	-1.000000	-1.000000	-1.000000	-1.000000	-1.000000	-1.000000	-1.000000	146.965517	0.000000	-1.000000	-1.000000	342591.000000	1772311343.774208
-16985.205000	-17200.215000	-20112.165000	-12746.700000	0.000000	0.000000	0.000000	0.000000	4.984196	7.913218	8.088492	11.082678	0.000000	0.000000	0.000000	0.000000	3.296160	-3.906560	-0.473060	0.020569	0.982969	-0.013489	-1.000000	-1.000000	-1.000000	-1.000000	-1.000000	-1.000000	-1.000000	146.965517	0.000000	-1.000000	-1.000000	342592.000000	1772311343.777019
-16997.805000	-17195.850000	-20126.295000	-12762.360000	0.000000	0.000000	0.000000	0.000000	7.056764	10.601449	8.164086	10.379977	0.000000	0.000000	0.000000	0.000000	3.296160	-3.906560	-0.473060	0.020569	0.982969	-0.013489	-1.000000	-1.000000	-1.000000	-1.000000	-1.000000	-1.000000	-1.000000	146.965517	0.000000	-1.000000	-1.000000	342593.000000	1772311343.777022
-17003.070000	-17156.835000	-20132.955000	-12772.260000	0.000000	0.000000	0.000000	0.000000	4.758526	7.446860	3.468770	3.601911	0.000000	0.000000	0.000000	0.000000	3.296160	-3.906560	-0.473060	0.020569	0.982969	-0.013489	-1.000000	-1.000000	-1.000000	-1.000000	-1.000000	-1.000000	-1.000000	146.965517	0.000000	-1.000000	-1.000000	342594.000000	1772311343.780957
-16993.530000	-17067.780000	-20123.235000	-12762.090000	0.000000	0.000000	0.000000	0.000000	-0.696214	5.895459	-3.653816	-5.706659	0.000000	0.000000	0.000000	0.000000	3.296160	-3.906560	-0.473060	0.020569	0.982969	-0.013489	-1.000000	-1.000000	-1.000000	-1.000000	-1.000000	-1.000000	-1.000000	146.965517	0.000000	-1.000000	-1.000000	342595.000000	1772311343.780959
-16998.795000	-17025.930000	-20124.675000	-12759.795000	0.000000	0.000000	0.000000	0.000000	-5.165469	11.418734	-8.257289	-11.337251	0.000000	0.000000	0.000000	0.000000	2.899400	-0.015260	-0.350980	0.020447	0.983091	-0.014465	-1.000000	-1.000000	-1.000000	-1.000000	-1.000000	-1.000000	-1.000000	146.965517	0.000000	-1.000000	-1.000000	342596.000000	1772311343.784988
-16997.805000	-16995.780000	-20122.065000	-12756.645000	0.000000	0.000000	0.000000	0.000000	-5.993620	19.897922	-7.636343	-9.963863	0.000000	0.000000	0.000000	0.000000	2.899400	-0.015260	-0.350980	0.020447	0.983091	-0.014465	-1.000000	-1.000000	-1.000000	-1.000000	-1.000000	-1.000000	-1.000000	146.965517	0.000000	-1.000000	-1.000000	342597.000000	1772311343.784993
-16997.490000	-16983.045000	-20123.190000	-12759.030000	0.000000	0.000000	0.000000	0.000000	-3.738739	20.668460	-3.230530	-3.624269	0.000000	0.000000	0.000000	0.000000	2.899400	-0.015260	-0.350980	0.020447	0.983091	-0.014465	-1.000000	-1.000000	-1.000000	-1.000000	-1.000000	-1.000000	-1.000000	146.965517	0.000000	-1.000000	-1.000000	342598.000000	1772311343.789121
-17006.355000	-16979.445000	-20134.305000	-12770.505000	0.000000	0.000000	0.000000	0.000000	-0.542697	7.790110	1.427285	2.762049	0.000000	0.000000	0.000000	0.000000	2.899400	-0.015260	-0.350980	0.020447	0.983091	-0.014465	-1.000000	-1.000000	-1.000000	-1.000000	-1.000000	-1.000000	-1.000000	146.965517	0.000000	-1.000000	-1.000000	342599.000000	1772311343.789125
-17004.645000	-16993.395000	-20134.305000	-12770.415000	0.000000	0.000000	0.000000	0.000000	1.595659	-14.667612	3.483689	5.389158	0.000000	0.000000	0.000000	0.000000	2.899400	-0.015260	-0.350980	0.020447	0.983091	-0.014465	-1.000000	-1.000000	-1.000000	-1.000000	-1.000000	-1.000000	-1.000000	146.965517	0.000000	-1.000000	-1.000000	342600.000000	1772311343.793028
-16996.860000	-16994.340000	-20129.220000	-12765.690000	0.000000	0.000000	0.000000	0.000000	2.251689	-36.247626	2.795308	4.164030	0.000000	0.000000	0.000000	0.000000	2.899400	-0.015260	-0.350980	0.020447	0.983091	-0.014465	-1.000000	-1.000000	-1.000000	-1.000000	-1.000000	-1.000000	-1.000000	146.965517	0.000000	-1.000000	-1.000000	342601.000000	1772311343.793031
-17001.360000	-16969.320000	-20132.595000	-12765.420000	0.000000	0.000000	0.000000	0.000000	2.367152	-45.961474	1.352453	1.776538	0.000000	0.000000	0.000000	0.000000	2.899400	-0.015260	-0.350980	0.020447	0.983091	-0.014465	-1.000000	-1.000000	-1.000000	-1.000000	-1.000000	-1.000000	-1.000000	146.965517	0.000000	-1.000000	-1.000000	342602.000000	1772311343.799056
-17000.910000	-16949.160000	-20129.355000	-12760.380000	0.000000	0.000000	0.000000	0.000000	2.317297	-37.725168	0.634553	0.470312	0.000000	0.000000	0.000000	0.000000	2.899400	-0.015260	-0.350980	0.020447	0.983091	-0.014465	-1.000000	-1.000000	-1.000000	-1.000000	-1.000000	-1.000000	-1.000000	146.965517	0.000000	-1.000000	-1.000000	342603.000000	1772311343.799059
-17004.960000	-16925.760000	-20131.470000	-12761.640000	0.000000	0.000000	0.000000	0.000000	1.628992	-14.577659	0.654621	0.520642	0.000000	0.000000	0.000000	0.000000	2.899400	-0.015260	-0.350980	0.020447	0.983091	-0.014465	-1.000000	-1.000000	-1.000000	-1.000000	-1.000000	-1.000000	-1.000000	146.965517	0.000000	-1.000000	-1.000000	342604.000000	1772311343.801425
-17011.665000	-16902.405000	-20138.670000	-12772.035000	0.000000	0.000000	0.000000	0.000000	0.076909	12.667440	0.649711	0.720943	0.000000	0.000000	0.000000	0.000000	2.899400	-0.015260	-0.350980	0.020447	0.983091	-0.014465	-1.000000	-1.000000	-1.000000	-1.000000	-1.000000	-1.000000	-1.000000	146.965517	0.000000	-1.000000	-1.000000	342605.000000	1772311343.801427
-17012.070000	-16922.475000	-20142.180000	-12781.755000	0.000000	0.000000	0.000000	0.000000	-1.880914	31.574677	-0.140699	-0.408749	0.000000	0.000000	0.000000	0.000000	2.899400	0.061040	-0.213640	0.019653	0.983335	-0.014465	-1.000000	-1.000000	-1.000000	-1.000000	-1.000000	-1.000000	-1.000000	146.965517	0.000000	-1.000000	-1.000000	342606.000000	1772311343.806680
-17001.000000	-16930.665000	-20126.520000	-12757.995000	0.000000	0.000000	0.000000	0.000000	-2.963350	34.000692	-1.247780	-2.442447	0.000000	0.000000	0.000000	0.000000	2.899400	0.061040	-0.213640	0.019653	0.983335	-0.014465	-1.000000	-1.000000	-1.000000	-1.000000	-1.000000	-1.000000	-1.000000	146.965517	0.000000	-1.000000	-1.000000	342607.000000	1772311343.806684
-16983.765000	-16944.615000	-20109.870000	-12742.740000	0.000000	0.000000	0.000000	0.000000	-1.603025	20.617491	-0.785516	-2.486953	0.000000	0.000000	0.000000	0.000000	2.899400	0.061040	-0.213640	0.019653	0.983335	-0.014465	-1.000000	-1.000000	-1.000000	-1.000000	-1.000000	-1.000000	-1.000000	146.965517	0.000000	-1.000000	-1.000000	342608.000000	1772311343.809024
-16985.655000	-16934.670000	-20116.215000	-12757.905000	0.000000	0.000000	0.000000	0.000000	2.109194	0.912625	1.867226	0.645817	0.000000	0.000000	0.000000	0.000000	2.899400	0.061040	-0.213640	0.019653	0.983335	-0.014465	-1.000000	-1.000000	-1.000000	-1.000000	-1.000000	-1.000000	-1.000000	146.965517	0.000000	-1.000000	-1.000000	342609.000000	1772311343.809028
-16984.035000	-16910.055000	-20120.130000	-12767.265000	0.000000	0.000000	0.000000	0.000000	5.406447	-12.952490	4.110404	3.479623	0.000000	0.000000	0.000000	0.000000	2.899400	0.061040	-0.213640	0.019653	0.983335	-0.014465	-1.000000	-1.000000	-1.000000	-1.000000	-1.000000	-1.000000	-1.000000	146.965517	0.000000	-1.000000	-1.000000	342610.000000	1772311343.812997
-16995.330000	-16923.960000	-20128.680000	-12774.690000	0.000000	0.000000	0.000000	0.000000	5.121373	-14.437165	2.887203	2.235328	0.000000	0.000000	0.000000	0.000000	2.899400	0.061040	-0.213640	0.019653	0.983335	-0.014465	-1.000000	-1.000000	-1.000000	-1.000000	-1.000000	-1.000000	-1.000000	146.965517	0.000000	-1.000000	-1.000000	342611.000000	1772311343.813001
-17025.210000	-16917.930000	-20156.220000	-12798.090000	0.000000	0.000000	0.000000	0.000000	0.223196	-6.714740	-2.122703	-2.706123	0.000000	0.000000	0.000000	0.000000	2.899400	0.061040	-0.213640	0.019653	0.983335	-0.014465	-1.000000	-1.000000	-1.000000	-1.000000	-1.000000	-1.000000	-1.000000	146.965517	0.000000	-1.000000	-1.000000	342612.000000	1772311343.818393
-17014.860000	-16911.720000	-20142.090000	-12780.315000	0.000000	0.000000	0.000000	0.000000	-7.205620	2.437062	-8.235310	-7.656460	0.000000	0.000000	0.000000	0.000000	2.899400	0.061040	-0.213640	0.019653	0.983335	-0.014465	-1.000000	-1.000000	-1.000000	-1.000000	-1.000000	-1.000000	-1.000000	146.965517	0.000000	-1.000000	-1.000000	342613.000000	1772311343.818417
-16998.705000	-16933.275000	-20124.855000	-12760.830000	0.000000	0.000000	0.000000	0.000000	-11.768581	7.534139	-10.533757	-7.897321	0.000000	0.000000	0.000000	0.000000	2.899400	0.061040	-0.213640	0.019653	0.983335	-0.014465	-1.000000	-1.000000	-1.000000	-1.000000	-1.000000	-1.000000	-1.000000	146.965517	0.000000	-1.000000	-1.000000	342614.000000	1772311343.820954
-16998.030000	-16937.730000	-20124.000000	-12763.170000	0.000000	0.000000	0.000000	0.000000	-8.834218	6.653279	-5.735709	-1.560213	0.000000	0.000000	0.000000	0.000000	2.899400	0.061040	-0.213640	0.019653	0.983335	-0.014465	-1.000000	-1.000000	-1.000000	-1.000000	-1.000000	-1.000000	-1.000000	146.965517	0.000000	-1.000000	-1.000000	342615.000000	1772311343.820999
-16995.960000	-16932.690000	-20124.540000	-12765.105000	0.000000	0.000000	0.000000	0.000000	0.000492	1.643700	3.360719	7.160271	0.000000	0.000000	0.000000	0.000000	2.273740	0.030520	0.061040	0.019714	0.983335	-0.014526	-1.000000	-1.000000	-1.000000	-1.000000	-1.000000	-1.000000	-1.000000	146.965517	0.000000	-1.000000	-1.000000	342616.000000	1772311343.825238
-16980.570000	-16952.670000	-20111.085000	-12751.020000	0.000000	0.000000	0.000000	0.000000	8.785430	-3.184169	10.575122	12.025838	0.000000	0.000000	0.000000	0.000000	2.273740	0.030520	0.061040	0.019714	0.983335	-0.014526	-1.000000	-1.000000	-1.000000	-1.000000	-1.000000	-1.000000	-1.000000	146.965517	0.000000	-1.000000	-1.000000	342617.000000	1772311343.825243
-16988.040000	-16963.020000	-20118.645000	-12756.420000	0.000000	0.000000	0.000000	0.000000	12.890934	-5.348489	12.175057	10.733656	0.000000	0.000000	0.000000	0.000000	2.273740	0.030520	0.061040	0.019714	0.983335	-0.014526	-1.000000	-1.000000	-1.000000	-1.000000	-1.000000	-1.000000	-1.000000	146.965517	0.000000	-1.000000	-1.000000	342618.000000	1772311343.833435
-16994.520000	-16978.500000	-20124.945000	-12761.145000	0.000000	0.000000	0.000000	0.000000	10.706791	-5.191141	7.997329	4.799509	0.000000	0.000000	0.000000	0.000000	2.273740	0.030520	0.061040	0.019714	0.983335	-0.014526	-1.000000	-1.000000	-1.000000	-1.000000	-1.000000	-1.000000	-1.000000	146.965517	0.000000	-1.000000	-1.000000	342619.000000	1772311343.833440
-16998.525000	-17005.950000	-20127.105000	-12761.010000	0.000000	0.000000	0.000000	0.000000	3.410053	-3.909729	0.260710	-2.879064	0.000000	0.000000	0.000000	0.000000	2.273740	0.030520	0.061040	0.019714	0.983335	-0.014526	-1.000000	-1.000000	-1.000000	-1.000000	-1.000000	-1.000000	-1.000000	146.965517	0.000000	-1.000000	-1.000000	342620.000000	1772311343.833447
-16999.695000	-17006.535000	-20124.090000	-12755.880000	0.000000	0.000000	0.000000	0.000000	-5.150314	-2.310390	-7.078548	-8.826100	0.000000	0.000000	0.000000	0.000000	2.273740	0.030520	0.061040	0.019714	0.983335	-0.014526	-1.000000	-1.000000	-1.000000	-1.000000	-1.000000	-1.000000	-1.000000	146.965517	0.000000	-1.000000	-1.000000	342621.000000	1772311343.833449
-16982.775000	-16973.955000	-20106.135000	-12742.335000	0.000000	0.000000	0.000000	0.000000	-10.245621	0.799334	-10.020768	-10.164083	0.000000	0.000000	0.000000	0.000000	2.273740	0.030520	0.061040	0.019714	0.983335	-0.014526	-1.000000	-1.000000	-1.000000	-1.000000	-1.000000	-1.000000	-1.000000	146.965517	0.000000	-1.000000	-1.000000	342622.000000	1772311343.837616
-16993.215000	-16916.220000	-20121.345000	-12759.255000	0.000000	0.000000	0.000000	0.000000	-9.391931	8.273186	-7.382516	-6.817928	0.000000	0.000000	0.000000	0.000000	2.273740	0.030520	0.061040	0.019714	0.983335	-0.014526	-1.000000	-1.000000	-1.000000	-1.000000	-1.000000	-1.000000	-1.000000	146.965517	0.000000	-1.000000	-1.000000	342623.000000	1772311343.837622
-17000.685000	-16878.150000	-20131.155000	-12771.315000	0.000000	0.000000	0.000000	0.000000	-4.543485	20.019137	-2.330680	-2.257090	0.000000	0.000000	0.000000	0.000000	2.273740	0.030520	0.061040	0.019714	0.983335	-0.014526	-1.000000	-1.000000	-1.000000	-1.000000	-1.000000	-1.000000	-1.000000	146.965517	0.000000	-1.000000	-1.000000	342624.000000	1772311343.842343
-17001.090000	-16870.545000	-20133.180000	-12771.990000	0.000000	0.000000	0.000000	0.000000	0.062885	29.341068	0.817862	-0.048981	0.000000	0.000000	0.000000	0.000000	2.273740	0.030520	0.061040	0.019714	0.983335	-0.014526	-1.000000	-1.000000	-1.000000	-1.000000	-1.000000	-1.000000	-1.000000	146.965517	0.000000	-1.000000	-1.000000	342625.000000	1772311343.842346
-16991.100000	-16884.135000	-20122.830000	-12759.885000	0.000000	0.000000	0.000000	0.000000	2.486335	26.611534	1.328045	0.154987	0.000000	0.000000	0.000000	0.000000	1.480220	0.015260	-0.045780	0.019958	0.984189	-0.013489	-1.000000	-1.000000	-1.000000	-1.000000	-1.000000	-1.000000	-1.000000	146.965517	0.000000	-1.000000	-1.000000	342626.000000	1772311343.845102
-16992.585000	-16869.195000	-20122.515000	-12758.490000	0.000000	0.000000	0.000000	0.000000	3.608886	8.716635	1.513389	1.145151	0.000000	0.000000	0.000000	0.000000	1.480220	0.015260	-0.045780	0.019958	0.984189	-0.013489	-1.000000	-1.000000	-1.000000	-1.000000	-1.000000	-1.000000	-1.000000	146.965517	0.000000	-1.000000	-1.000000	342627.000000	1772311343.845106
-17002.800000	-16845.930000	-20132.820000	-12769.920000	0.000000	0.000000	0.000000	0.000000	4.022361	-15.724489	2.530233	3.563056	0.000000	0.000000	0.000000	0.000000	1.480220	0.015260	-0.045780	0.019958	0.984189	-0.013489	-1.000000	-1.000000	-1.000000	-1.000000	-1.000000	-1.000000	-1.000000	146.965517	0.000000	-1.000000	-1.000000	342628.000000	1772311343.848858
-17007.030000	-16826.355000	-20136.690000	-12774.555000	0.000000	0.000000	0.000000	0.000000	2.988494	-32.785424	3.062245	5.066882	0.000000	0.000000	0.000000	0.000000	1.480220	0.015260	-0.045780	0.019958	0.984189	-0.013489	-1.000000	-1.000000	-1.000000	-1.000000	-1.000000	-1.000000	-1.000000	146.965517	0.000000	-1.000000	-1.000000	342629.000000	1772311343.848862
-17009.955000	-16829.325000	-20139.705000	-12776.580000	0.000000	0.000000	0.000000	0.000000	0.454045	-34.928796	1.957343	3.897012	0.000000	0.000000	0.000000	0.000000	1.480220	0.015260	-0.045780	0.019958	0.984189	-0.013489	-1.000000	-1.000000	-1.000000	-1.000000	-1.000000	-1.000000	-1.000000	146.965517	0.000000	-1.000000	-1.000000	342630.000000	1772311343.854417
-17003.520000	-16837.695000	-20133.990000	-12774.825000	0.000000	0.000000	0.000000	0.000000	-1.921584	-25.392044	0.096503	1.094771	0.000000	0.000000	0.000000	0.000000	1.480220	0.015260	-0.045780	0.019958	0.984189	-0.013489	-1.000000	-1.000000	-1.000000	-1.000000	-1.000000	-1.000000	-1.000000	146.965517	0.000000	-1.000000	-1.000000	342631.000000	1772311343.854422
-17004.105000	-16837.605000	-20135.790000	-12775.365000	0.000000	0.000000	0.000000	0.000000	-2.306234	-12.449605	-0.813703	-1.087383	0.000000	0.000000	0.000000	0.000000	1.480220	0.015260	-0.045780	0.019958	0.984189	-0.013489	-1.000000	-1.000000	-1.000000	-1.000000	-1.000000	-1.000000	-1.000000	146.965517	0.000000	-1.000000	-1.000000	342632.000000	1772311343.857082
-16997.445000	-16826.355000	-20130.795000	-12768.795000	0.000000	0.000000	0.000000	0.000000	-0.492201	-1.608430	-0.175466	-1.377914	0.000000	0.000000	0.000000	0.000000	1.480220	0.015260	-0.045780	0.019958	0.984189	-0.013489	-1.000000	-1.000000	-1.000000	-1.000000	-1.000000	-1.000000	-1.000000	146.965517	0.000000	-1.000000	-1.000000	342633.000000	1772311343.857086
-16987.950000	-16837.380000	-20123.100000	-12759.255000	0.000000	0.000000	0.000000	0.000000	2.275048	5.986743	1.363612	0.129319	0.000000	0.000000	0.000000	0.000000	1.480220	0.015260	-0.045780	0.019958	0.984189	-0.013489	-1.000000	-1.000000	-1.000000	-1.000000	-1.000000	-1.000000	-1.000000	146.965517	0.000000	-1.000000	-1.000000	342634.000000	1772311343.862215
-16985.385000	-16850.025000	-20118.960000	-12750.930000	0.000000	0.000000	0.000000	0.000000	4.485854	10.100058	2.860903	2.500310	0.000000	0.000000	0.000000	0.000000	1.480220	0.015260	-0.045780	0.019958	0.984189	-0.013489	-1.000000	-1.000000	-1.000000	-1.000000	-1.000000	-1.000000	-1.000000	146.965517	0.000000	-1.000000	-1.000000	342635.000000	1772311343.862217
-16984.215000	-16863.975000	-20114.955000	-12744.855000	0.000000	0.000000	0.000000	0.000000	4.822034	10.145331	3.409417	4.295837	0.000000	0.000000	0.000000	0.000000	1.113980	0.213640	-0.091560	0.019775	0.983579	-0.012390	-1.000000	-1.000000	-1.000000	-1.000000	-1.000000	-1.000000	-1.000000	146.965517	0.000000	-1.000000	-1.000000	342636.000000	1772311343.865181
-16992.495000	-16866.405000	-20121.435000	-12750.120000	0.000000	0.000000	0.000000	0.000000	2.538990	7.079668	2.261065	4.011668	0.000000	0.000000	0.000000	0.000000	1.113980	0.213640	-0.091560	0.019775	0.983579	-0.012390	-1.000000	-1.000000	-1.000000	-1.000000	-1.000000	-1.000000	-1.000000	146.965517	0.000000	-1.000000	-1.000000	342637.000000	1772311343.865184
-17001.630000	-16846.740000	-20129.445000	-12755.610000	0.000000	0.000000	0.000000	0.000000	-1.960260	4.147568	-0.800580	0.879272	0.000000	0.000000	0.000000	0.000000	1.113980	0.213640	-0.091560	0.019775	0.983579	-0.012390	-1.000000	-1.000000	-1.000000	-1.000000	-1.000000	-1.000000	-1.000000	146.965517	0.000000	-1.000000	-1.000000	342638.000000	1772311343.869124
-16998.615000	-16832.790000	-20130.525000	-12763.530000	0.000000	0.000000	0.000000	0.000000	-6.772545	4.689639	-4.838149	-4.254563	0.000000	0.000000	0.000000	0.000000	1.113980	0.213640	-0.091560	0.019775	0.983579	-0.012390	-1.000000	-1.000000	-1.000000	-1.000000	-1.000000	-1.000000	-1.000000	146.965517	0.000000	-1.000000	-1.000000	342639.000000	1772311343.869127
-16995.105000	-16834.095000	-20125.980000	-12753.720000	0.000000	0.000000	0.000000	0.000000	-8.991344	8.463821	-7.563224	-8.720476	0.000000	0.000000	0.000000	0.000000	1.113980	0.213640	-0.091560	0.019775	0.983579	-0.012390	-1.000000	-1.000000	-1.000000	-1.000000	-1.000000	-1.000000	-1.000000	146.965517	0.000000	-1.000000	-1.000000	342640.000000	1772311343.873025
-16990.380000	-16866.990000	-20122.920000	-12752.190000	0.000000	0.000000	0.000000	0.000000	-6.818123	10.592397	-6.848757	-9.451866	0.000000	0.000000	0.000000	0.000000	1.113980	0.213640	-0.091560	0.019775	0.983579	-0.012390	-1.000000	-1.000000	-1.000000	-1.000000	-1.000000	-1.000000	-1.000000	146.965517	0.000000	-1.000000	-1.000000	342641.000000	1772311343.873028
-16995.780000	-16891.965000	-20135.880000	-12780.270000	0.000000	0.000000	0.000000	0.000000	-1.440788	5.854330	-3.031490	-6.176606	0.000000	0.000000	0.000000	0.000000	1.113980	0.213640	-0.091560	0.019775	0.983579	-0.012390	-1.000000	-1.000000	-1.000000	-1.000000	-1.000000	-1.000000	-1.000000	146.965517	0.000000	-1.000000	-1.000000	342642.000000	1772311343.877228
-16996.815000	-16883.460000	-20134.530000	-12776.130000	0.000000	0.000000	0.000000	0.000000	3.777530	-4.796257	1.154472	-2.010512	0.000000	0.000000	0.000000	0.000000	1.113980	0.213640	-0.091560	0.019775	0.983579	-0.012390	-1.000000	-1.000000	-1.000000	-1.000000	-1.000000	-1.000000	-1.000000	146.965517	0.000000	-1.000000	-1.000000	342643.000000	1772311343.877230
-17000.685000	-16873.515000	-20137.005000	-12774.780000	0.000000	0.000000	0.000000	0.000000	6.075442	-13.440590	3.504466	0.916524	0.000000	0.000000	0.000000	0.000000	1.113980	0.213640	-0.091560	0.019775	0.983579	-0.012390	-1.000000	-1.000000	-1.000000	-1.000000	-1.000000	-1.000000	-1.000000	146.965517	0.000000	-1.000000	-1.000000	342644.000000	1772311343.881098
-16994.160000	-16862.040000	-20129.265000	-12763.710000	0.000000	0.000000	0.000000	0.000000	5.214739	-12.891506	4.088952	3.491583	0.000000	0.000000	0.000000	0.000000	1.113980	0.213640	-0.091560	0.019775	0.983579	-0.012390	-1.000000	-1.000000	-1.000000	-1.000000	-1.000000	-1.000000	-1.000000	146.965517	0.000000	-1.000000	-1.000000	342645.000000	1772311343.881101
-16991.640000	-16845.075000	-20125.620000	-12758.580000	0.000000	0.000000	0.000000	0.000000	3.002508	-3.417979	4.110734	6.661887	0.000000	0.000000	0.000000	0.000000	1.571780	0.091560	-0.244160	0.020019	0.982969	-0.011780	-1.000000	-1.000000	-1.000000	-1.000000	-1.000000	-1.000000	-1.000000	146.965517	0.000000	-1.000000	-1.000000	342646.000000	1772311343.885200
-16997.445000	-16835.985000	-20130.120000	-12762.270000	0.000000	0.000000	0.000000	0.000000	1.106969	8.613891	4.046815	9.249505	0.000000	0.000000	0.000000	0.000000	1.571780	0.091560	-0.244160	0.020019	0.982969	-0.011780	-1.000000	-1.000000	-1.000000	-1.000000	-1.000000	-1.000000	-1.000000	146.965517	0.000000	-1.000000	-1.000000	342647.000000	1772311343.885203
-16997.175000	-16817.895000	-20131.965000	-12762.855000	0.000000	0.000000	0.000000	0.000000	-0.286805	16.207809	3.157911	8.962999	0.000000	0.000000	0.000000	0.000000	1.571780	0.091560	-0.244160	0.020019	0.982969	-0.011780	-1.000000	-1.000000	-1.000000	-1.000000	-1.000000	-1.000000	-1.000000	146.965517	0.000000	-1.000000	-1.000000	342648.000000	1772311343.889131
-17003.835000	-16783.470000	-20138.850000	-12769.695000	0.000000	0.000000	0.000000	0.000000	-1.580213	16.433289	0.824949	4.910802	0.000000	0.000000	0.000000	0.000000	1.571780	0.091560	-0.244160	0.020019	0.982969	-0.011780	-1.000000	-1.000000	-1.000000	-1.000000	-1.000000	-1.000000	-1.000000	146.965517	0.000000	-1.000000	-1.000000	342649.000000	1772311343.889134
-17008.830000	-16763.985000	-20145.285000	-12779.640000	0.000000	0.000000	0.000000	0.000000	-2.789099	11.194055	-2.400334	-1.465821	0.000000	0.000000	0.000000	0.000000	1.571780	0.091560	-0.244160	0.020019	0.982969	-0.011780	-1.000000	-1.000000	-1.000000	-1.000000	-1.000000	-1.000000	-1.000000	146.965517	0.000000	-1.000000	-1.000000	342650.000000	1772311343.893222
-16992.315000	-16759.395000	-20130.030000	-12767.940000	0.000000	0.000000	0.000000	0.000000	-3.199304	3.457865	-4.800168	-7.205585	0.000000	0.000000	0.000000	0.000000	1.571780	0.091560	-0.244160	0.020019	0.982969	-0.011780	-1.000000	-1.000000	-1.000000	-1.000000	-1.000000	-1.000000	-1.000000	146.965517	0.000000	-1.000000	-1.000000	342651.000000	1772311343.893225
-16989.390000	-16768.260000	-20126.430000	-12761.730000	0.000000	0.000000	0.000000	0.000000	-1.616710	-5.615433	-4.324942	-9.055634	0.000000	0.000000	0.000000	0.000000	1.571780	0.091560	-0.244160	0.020019	0.982969	-0.011780	-1.000000	-1.000000	-1.000000	-1.000000	-1.000000	-1.000000	-1.000000	146.965517	0.000000	-1.000000	-1.000000	342652.000000	1772311343.897286
-17000.685000	-16763.085000	-20136.915000	-12768.570000	0.000000	0.000000	0.000000	0.000000	1.469605	-14.992556	-1.082801	-6.087709	0.000000	0.000000	0.000000	0.000000	1.571780	0.091560	-0.244160	0.020019	0.982969	-0.011780	-1.000000	-1.000000	-1.000000	-1.000000	-1.000000	-1.000000	-1.000000	146.965517	0.000000	-1.000000	-1.000000	342653.000000	1772311343.897289
-17004.150000	-16750.305000	-20138.220000	-12770.415000	0.000000	0.000000	0.000000	0.000000	3.296417	-21.361639	1.987794	-1.069528	0.000000	0.000000	0.000000	0.000000	1.571780	0.091560	-0.244160	0.020019	0.982969	-0.011780	-1.000000	-1.000000	-1.000000	-1.000000	-1.000000	-1.000000	-1.000000	146.965517	0.000000	-1.000000	-1.000000	342654.000000	1772311343.901181
-16993.665000	-16769.745000	-20125.755000	-12762.225000	0.000000	0.000000	0.000000	0.000000	2.375784	-21.317134	2.779028	2.612552	0.000000	0.000000	0.000000	0.000000	1.571780	0.091560	-0.244160	0.020019	0.982969	-0.011780	-1.000000	-1.000000	-1.000000	-1.000000	-1.000000	-1.000000	-1.000000	146.965517	0.000000	-1.000000	-1.000000	342655.000000	1772311343.901184
-16992.585000	-16785.990000	-20124.990000	-12761.370000	0.000000	0.000000	0.000000	0.000000	0.384213	-15.620119	2.170967	4.021043	0.000000	0.000000	0.000000	0.000000	2.563680	0.061040	-0.244160	0.021179	0.981809	-0.011841	-1.000000	-1.000000	-1.000000	-1.000000	-1.000000	-1.000000	-1.000000	146.965517	0.000000	-1.000000	-1.000000	342656.000000	1772311343.905256
-16999.470000	-16800.480000	-20132.415000	-12768.480000	0.000000	0.000000	0.000000	0.000000	-0.779058	-8.129913	1.400063	3.645753	0.000000	0.000000	0.000000	0.000000	2.563680	0.061040	-0.244160	0.021179	0.981809	-0.011841	-1.000000	-1.000000	-1.000000	-1.000000	-1.000000	-1.000000	-1.000000	146.965517	0.000000	-1.000000	-1.000000	342657.000000	1772311343.905260
-17009.595000	-16822.530000	-20143.080000	-12778.560000	0.000000	0.000000	0.000000	0.000000	-1.391573	-1.602421	0.031069	1.640077	0.000000	0.000000	0.000000	0.000000	2.563680	0.061040	-0.244160	0.021179	0.981809	-0.011841	-1.000000	-1.000000	-1.000000	-1.000000	-1.000000	-1.000000	-1.000000	146.965517	0.000000	-1.000000	-1.000000	342658.000000	1772311343.912845
-17003.430000	-16843.140000	-20138.670000	-12775.770000	0.000000	0.000000	0.000000	0.000000	-2.250943	3.178087	-2.270027	-1.466304	0.000000	0.000000	0.000000	0.000000	2.563680	0.061040	-0.244160	0.021179	0.981809	-0.011841	-1.000000	-1.000000	-1.000000	-1.000000	-1.000000	-1.000000	-1.000000	146.965517	0.000000	-1.000000	-1.000000	342659.000000	1772311343.912848
-16993.035000	-16871.220000	-20127.375000	-12764.340000	0.000000	0.000000	0.000000	0.000000	-2.477201	6.190201	-3.850630	-3.632110	0.000000	0.000000	0.000000	0.000000	2.563680	0.061040	-0.244160	0.021179	0.981809	-0.011841	-1.000000	-1.000000	-1.000000	-1.000000	-1.000000	-1.000000	-1.000000	146.965517	0.000000	-1.000000	-1.000000	342660.000000	1772311343.912852
-16984.125000	-16842.195000	-20119.950000	-12753.540000	0.000000	0.000000	0.000000	0.000000	-0.596630	8.531069	-2.588346	-2.638899	0.000000	0.000000	0.000000	0.000000	2.563680	0.061040	-0.244160	0.021179	0.981809	-0.011841	-1.000000	-1.000000	-1.000000	-1.000000	-1.000000	-1.000000	-1.000000	146.965517	0.000000	-1.000000	-1.000000	342661.000000	1772311343.912855
-16972.965000	-16787.565000	-20108.160000	-12743.325000	0.000000	0.000000	0.000000	0.000000	3.055451	13.470991	1.367984	1.402422	0.000000	0.000000	0.000000	0.000000	2.563680	0.061040	-0.244160	0.021179	0.981809	-0.011841	-1.000000	-1.000000	-1.000000	-1.000000	-1.000000	-1.000000	-1.000000	146.965517	0.000000	-1.000000	-1.000000	342662.000000	1772311343.917322
-17005.185000	-16781.085000	-20136.915000	-12772.170000	0.000000	0.000000	0.000000	0.000000	5.619808	22.443936	4.939890	5.177674	0.000000	0.000000	0.000000	0.000000	2.563680	0.061040	-0.244160	0.021179	0.981809	-0.011841	-1.000000	-1.000000	-1.000000	-1.000000	-1.000000	-1.000000	-1.000000	146.965517	0.000000	-1.000000	-1.000000	342663.000000	1772311343.917324
-17006.670000	-16773.120000	-20138.850000	-12777.390000	0.000000	0.000000	0.000000	0.000000	3.686963	29.504991	4.323928	4.456396	0.000000	0.000000	0.000000	0.000000	2.563680	0.061040	-0.244160	0.021179	0.981809	-0.011841	-1.000000	-1.000000	-1.000000	-1.000000	-1.000000	-1.000000	-1.000000	146.965517	0.000000	-1.000000	-1.000000	342664.000000	1772311343.921257
-16996.545000	-16766.730000	-20130.885000	-12767.670000	0.000000	0.000000	0.000000	0.000000	-2.135473	26.112921	-0.508206	-0.891791	0.000000	0.000000	0.000000	0.000000	2.563680	0.061040	-0.244160	0.021179	0.981809	-0.011841	-1.000000	-1.000000	-1.000000	-1.000000	-1.000000	-1.000000	-1.000000	146.965517	0.000000	-1.000000	-1.000000	342665.000000	1772311343.921260
-16988.265000	-16747.020000	-20124.315000	-12759.480000	0.000000	0.000000	0.000000	0.000000	-6.586942	11.052499	-4.944385	-5.804794	0.000000	0.000000	0.000000	0.000000	2.639980	0.015260	-0.427280	0.021362	0.982175	-0.012451	-1.000000	-1.000000	-1.000000	-1.000000	-1.000000	-1.000000	-1.000000	146.965517	0.000000	-1.000000	-1.000000	342666.000000	1772311343.931829
-17000.325000	-16716.150000	-20137.005000	-12770.505000	0.000000	0.000000	0.000000	0.000000	-6.020269	-7.999319	-5.348103	-6.093855	0.000000	0.000000	0.000000	0.000000	2.639980	0.015260	-0.427280	0.021362	0.982175	-0.012451	-1.000000	-1.000000	-1.000000	-1.000000	-1.000000	-1.000000	-1.000000	146.965517	0.000000	-1.000000	-1.000000	342667.000000	1772311343.931832
-17011.395000	-16701.165000	-20148.930000	-12780.360000	0.000000	0.000000	0.000000	0.000000	-2.343469	-21.415096	-2.921277	-2.929428	0.000000	0.000000	0.000000	0.000000	2.639980	0.015260	-0.427280	0.021362	0.982175	-0.012451	-1.000000	-1.000000	-1.000000	-1.000000	-1.000000	-1.000000	-1.000000	146.965517	0.000000	-1.000000	-1.000000	342668.000000	1772311343.931837
-17005.815000	-16688.790000	-20142.180000	-12774.915000	0.000000	0.000000	0.000000	0.000000	0.646778	-25.002229	-0.645504	0.173256	0.000000	0.000000	0.000000	0.000000	2.639980	0.015260	-0.427280	0.021362	0.982175	-0.012451	-1.000000	-1.000000	-1.000000	-1.000000	-1.000000	-1.000000	-1.000000	146.965517	0.000000	-1.000000	-1.000000	342669.000000	1772311343.931839
-16997.490000	-16719.705000	-20133.180000	-12767.040000	0.000000	0.000000	0.000000	0.000000	2.054243	-21.769415	0.966085	2.027585	0.000000	0.000000	0.000000	0.000000	2.639980	0.015260	-0.427280	0.021362	0.982175	-0.012451	-1.000000	-1.000000	-1.000000	-1.000000	-1.000000	-1.000000	-1.000000	146.965517	0.000000	-1.000000	-1.000000	342670.000000	1772311343.933500
-16997.400000	-16731.000000	-20133.855000	-12768.480000	0.000000	0.000000	0.000000	0.000000	3.197880	-17.755490	2.995688	3.451752	0.000000	0.000000	0.000000	0.000000	2.639980	0.015260	-0.427280	0.021362	0.982175	-0.012451	-1.000000	-1.000000	-1.000000	-1.000000	-1.000000	-1.000000	-1.000000	146.965517	0.000000	-1.000000	-1.000000	342671.000000	1772311343.933502
-16999.020000	-16728.345000	-20134.755000	-12769.065000	0.000000	0.000000	0.000000	0.000000	4.299971	-15.425370	5.021007	4.439767	0.000000	0.000000	0.000000	0.000000	2.639980	0.015260	-0.427280	0.021362	0.982175	-0.012451	-1.000000	-1.000000	-1.000000	-1.000000	-1.000000	-1.000000	-1.000000	146.965517	0.000000	-1.000000	-1.000000	342672.000000	1772311343.938549
-17002.800000	-16700.445000	-20140.155000	-12774.645000	0.000000	0.000000	0.000000	0.000000	4.157080	-11.342154	5.290227	3.967829	0.000000	0.000000	0.000000	0.000000	2.639980	0.015260	-0.427280	0.021362	0.982175	-0.012451	-1.000000	-1.000000	-1.000000	-1.000000	-1.000000	-1.000000	-1.000000	146.965517	0.000000	-1.000000	-1.000000	342673.000000	1772311343.938552
-16998.480000	-16697.295000	-20136.870000	-12770.145000	0.000000	0.000000	0.000000	0.000000	2.215568	-1.733784	3.083294	1.768568	0.000000	0.000000	0.000000	0.000000	2.639980	0.015260	-0.427280	0.021362	0.982175	-0.012451	-1.000000	-1.000000	-1.000000	-1.000000	-1.000000	-1.000000	-1.000000	146.965517	0.000000	-1.000000	-1.000000	342674.000000	1772311343.941363
-16991.325000	-16711.290000	-20131.380000	-12765.240000	0.000000	0.000000	0.000000	0.000000	-0.339292	10.852930	-0.220815	-0.850237	0.000000	0.000000	0.000000	0.000000	2.639980	0.015260	-0.427280	0.021362	0.982175	-0.012451	-1.000000	-1.000000	-1.000000	-1.000000	-1.000000	-1.000000	-1.000000	146.965517	0.000000	-1.000000	-1.000000	342675.000000	1772311343.941366
-16992.765000	-16714.845000	-20134.170000	-12770.280000	0.000000	0.000000	0.000000	0.000000	-1.849608	19.033239	-2.546447	-2.322376	0.000000	0.000000	0.000000	0.000000	2.227960	-0.198380	-0.366240	0.021362	0.983274	-0.013245	-1.000000	-1.000000	-1.000000	-1.000000	-1.000000	-1.000000	-1.000000	146.965517	0.000000	-1.000000	-1.000000	342676.000000	1772311343.945447
-16998.840000	-16720.695000	-20139.165000	-12775.545000	0.000000	0.000000	0.000000	0.000000	-2.140932	18.346572	-3.271320	-2.593661	0.000000	0.000000	0.000000	0.000000	2.227960	-0.198380	-0.366240	0.021362	0.983274	-0.013245	-1.000000	-1.000000	-1.000000	-1.000000	-1.000000	-1.000000	-1.000000	146.965517	0.000000	-1.000000	-1.000000	342677.000000	1772311343.945450
-16990.920000	-16739.415000	-20128.275000	-12760.470000	0.000000	0.000000	0.000000	0.000000	-2.118441	10.526880	-2.969686	-2.291004	0.000000	0.000000	0.000000	0.000000	2.227960	-0.198380	-0.366240	0.021362	0.983274	-0.013245	-1.000000	-1.000000	-1.000000	-1.000000	-1.000000	-1.000000	-1.000000	146.965517	0.000000	-1.000000	-1.000000	342678.000000	1772311343.949418
-16989.480000	-16753.365000	-20123.820000	-12755.430000	0.000000	0.000000	0.000000	0.000000	-1.924778	0.265070	-1.761060	-1.081328	0.000000	0.000000	0.000000	0.000000	2.227960	-0.198380	-0.366240	0.021362	0.983274	-0.013245	-1.000000	-1.000000	-1.000000	-1.000000	-1.000000	-1.000000	-1.000000	146.965517	0.000000	-1.000000	-1.000000	342679.000000	1772311343.949421
-16992.405000	-16761.015000	-20126.745000	-12760.605000	0.000000	0.000000	0.000000	0.000000	-1.234672	-7.817552	0.178655	1.009937	0.000000	0.000000	0.000000	0.000000	2.227960	-0.198380	-0.366240	0.021362	0.983274	-0.013245	-1.000000	-1.000000	-1.000000	-1.000000	-1.000000	-1.000000	-1.000000	146.965517	0.000000	-1.000000	-1.000000	342680.000000	1772311343.953390
-16992.360000	-16765.965000	-20126.385000	-12761.370000	0.000000	0.000000	0.000000	0.000000	-0.436796	-10.471447	1.618392	2.323745	0.000000	0.000000	0.000000	0.000000	2.227960	-0.198380	-0.366240	0.021362	0.983274	-0.013245	-1.000000	-1.000000	-1.000000	-1.000000	-1.000000	-1.000000	-1.000000	146.965517	0.000000	-1.000000	-1.000000	342681.000000	1772311343.953392
-16995.510000	-16768.215000	-20132.010000	-12765.555000	0.000000	0.000000	0.000000	0.000000	-0.116233	-7.101793	1.415063	1.490640	0.000000	0.000000	0.000000	0.000000	2.227960	-0.198380	-0.366240	0.021362	0.983274	-0.013245	-1.000000	-1.000000	-1.000000	-1.000000	-1.000000	-1.000000	-1.000000	146.965517	0.000000	-1.000000	-1.000000	342682.000000	1772311343.957396
-16988.040000	-16775.595000	-20126.835000	-12760.560000	0.000000	0.000000	0.000000	0.000000	-0.153485	-0.128057	-0.169432	-0.814096	0.000000	0.000000	0.000000	0.000000	2.227960	-0.198380	-0.366240	0.021362	0.983274	-0.013245	-1.000000	-1.000000	-1.000000	-1.000000	-1.000000	-1.000000	-1.000000	146.965517	0.000000	-1.000000	-1.000000	342683.000000	1772311343.957399
-16980.120000	-16783.965000	-20119.365000	-12751.245000	0.000000	0.000000	0.000000	0.000000	0.255093	6.418947	-1.560690	-2.484230	0.000000	0.000000	0.000000	0.000000	2.227960	-0.198380	-0.366240	0.021362	0.983274	-0.013245	-1.000000	-1.000000	-1.000000	-1.000000	-1.000000	-1.000000	-1.000000	146.965517	0.000000	-1.000000	-1.000000	342684.000000	1772311343.961431
-16985.160000	-16787.700000	-20123.460000	-12753.720000	0.000000	0.000000	0.000000	0.000000	1.432232	9.377530	-1.418832	-2.020295	0.000000	0.000000	0.000000	0.000000	2.227960	-0.198380	-0.366240	0.021362	0.983274	-0.013245	-1.000000	-1.000000	-1.000000	-1.000000	-1.000000	-1.000000	-1.000000	146.965517	0.000000	-1.000000	-1.000000	342685.000000	1772311343.961434
-16975.305000	-16789.365000	-20113.740000	-12746.115000	0.000000	0.000000	0.000000	0.000000	2.467795	8.277663	-0.035957	-0.002859	0.000000	0.000000	0.000000	0.000000	1.342880	-0.015260	-0.289940	0.021240	0.984189	-0.012756	-1.000000	-1.000000	-1.000000	-1.000000	-1.000000	-1.000000	-1.000000	146.965517	0.000000	-1.000000	-1.000000	342686.000000	1772311343.965402
-16982.370000	-16805.565000	-20118.420000	-12751.830000	0.000000	0.000000	0.000000	0.000000	2.364016	4.623819	1.379483	1.787528	0.000000	0.000000	0.000000	0.000000	1.342880	-0.015260	-0.289940	0.021240	0.984189	-0.012756	-1.000000	-1.000000	-1.000000	-1.000000	-1.000000	-1.000000	-1.000000	146.965517	0.000000	-1.000000	-1.000000	342687.000000	1772311343.965405
-17010.180000	-16821.360000	-20144.745000	-12779.550000	0.000000	0.000000	0.000000	0.000000	0.394809	-0.139703	1.318412	1.497365	0.000000	0.000000	0.000000	0.000000	1.342880	-0.015260	-0.289940	0.021240	0.984189	-0.012756	-1.000000	-1.000000	-1.000000	-1.000000	-1.000000	-1.000000	-1.000000	146.965517	0.000000	-1.000000	-1.000000	342688.000000	1772311343.970878
-17007.480000	-16817.040000	-20143.170000	-12780.360000	0.000000	0.000000	0.000000	0.000000	-3.605697	-4.585133	-1.276712	-1.733848	0.000000	0.000000	0.000000	0.000000	1.342880	-0.015260	-0.289940	0.021240	0.984189	-0.012756	-1.000000	-1.000000	-1.000000	-1.000000	-1.000000	-1.000000	-1.000000	146.965517	0.000000	-1.000000	-1.000000	342689.000000	1772311343.970882
-16994.295000	-16812.900000	-20128.635000	-12761.550000	0.000000	0.000000	0.000000	0.000000	-7.042985	-6.361536	-4.441474	-5.380230	0.000000	0.000000	0.000000	0.000000	1.342880	-0.015260	-0.289940	0.021240	0.984189	-0.012756	-1.000000	-1.000000	-1.000000	-1.000000	-1.000000	-1.000000	-1.000000	146.965517	0.000000	-1.000000	-1.000000	342690.000000	1772311343.973491
-16980.075000	-16830.045000	-20115.405000	-12745.755000	0.000000	0.000000	0.000000	0.000000	-5.786318	-4.333063	-4.050361	-4.707783	0.000000	0.000000	0.000000	0.000000	1.342880	-0.015260	-0.289940	0.021240	0.984189	-0.012756	-1.000000	-1.000000	-1.000000	-1.000000	-1.000000	-1.000000	-1.000000	146.965517	0.000000	-1.000000	-1.000000	342691.000000	1772311343.973495
-16983.630000	-16825.815000	-20120.445000	-12749.670000	0.000000	0.000000	0.000000	0.000000	0.604877	-0.527033	0.868716	1.327882	0.000000	0.000000	0.000000	0.000000	1.342880	-0.015260	-0.289940	0.021240	0.984189	-0.012756	-1.000000	-1.000000	-1.000000	-1.000000	-1.000000	-1.000000	-1.000000	146.965517	0.000000	-1.000000	-1.000000	342692.000000	1772311343.977513
-16985.520000	-16826.040000	-20122.110000	-12750.255000	0.000000	0.000000	0.000000	0.000000	7.507090	2.470802	6.352467	8.019118	0.000000	0.000000	0.000000	0.000000	1.342880	-0.015260	-0.289940	0.021240	0.984189	-0.012756	-1.000000	-1.000000	-1.000000	-1.000000	-1.000000	-1.000000	-1.000000	146.965517	0.000000	-1.000000	-1.000000	342693.000000	1772311343.977515
-16991.100000	-16816.995000	-20128.995000	-12762.945000	0.000000	0.000000	0.000000	0.000000	9.778446	4.032679	7.811711	9.777979	0.000000	0.000000	0.000000	0.000000	1.342880	-0.015260	-0.289940	0.021240	0.984189	-0.012756	-1.000000	-1.000000	-1.000000	-1.000000	-1.000000	-1.000000	-1.000000	146.965517	0.000000	-1.000000	-1.000000	342694.000000	1772311343.981493
-16997.490000	-16789.770000	-20138.220000	-12782.655000	0.000000	0.000000	0.000000	0.000000	6.144842	5.018446	4.160699	4.872349	0.000000	0.000000	0.000000	0.000000	1.342880	-0.015260	-0.289940	0.021240	0.984189	-0.012756	-1.000000	-1.000000	-1.000000	-1.000000	-1.000000	-1.000000	-1.000000	146.965517	0.000000	-1.000000	-1.000000	342695.000000	1772311343.981496
-16995.015000	-16784.640000	-20133.180000	-12773.655000	0.000000	0.000000	0.000000	0.000000	-0.583275	6.224721	-1.971179	-3.677345	0.000000	0.000000	0.000000	0.000000	0.503580	0.091560	-0.396760	0.020874	0.982969	-0.011841	-1.000000	-1.000000	-1.000000	-1.000000	-1.000000	-1.000000	-1.000000	146.965517	0.000000	-1.000000	-1.000000	342696.000000	1772311343.985439
-16988.130000	-16792.965000	-20124.945000	-12759.570000	0.000000	0.000000	0.000000	0.000000	-5.926847	6.336947	-6.278261	-9.688093	0.000000	0.000000	0.000000	0.000000	0.503580	0.091560	-0.396760	0.020874	0.982969	-0.011841	-1.000000	-1.000000	-1.000000	-1.000000	-1.000000	-1.000000	-1.000000	146.965517	0.000000	-1.000000	-1.000000	342697.000000	1772311343.985441
-16984.980000	-16790.535000	-20122.740000	-12754.980000	0.000000	0.000000	0.000000	0.000000	-6.829677	2.859000	-5.942129	-8.527380	0.000000	0.000000	0.000000	0.000000	0.503580	0.091560	-0.396760	0.020874	0.982969	-0.011841	-1.000000	-1.000000	-1.000000	-1.000000	-1.000000	-1.000000	-1.000000	146.965517	0.000000	-1.000000	-1.000000	342698.000000	1772311343.991740
-16996.095000	-16783.470000	-20134.620000	-12764.205000	0.000000	0.000000	0.000000	0.000000	-3.879774	-3.783780	-2.117790	-1.713370	0.000000	0.000000	0.000000	0.000000	0.503580	0.091560	-0.396760	0.020874	0.982969	-0.011841	-1.000000	-1.000000	-1.000000	-1.000000	-1.000000	-1.000000	-1.000000	146.965517	0.000000	-1.000000	-1.000000	342699.000000	1772311343.991742
-16985.745000	-16775.460000	-20124.990000	-12757.140000	0.000000	0.000000	0.000000	0.000000	-0.159411	-9.676730	1.616508	4.969862	0.000000	0.000000	0.000000	0.000000	0.503580	0.091560	-0.396760	0.020874	0.982969	-0.011841	-1.000000	-1.000000	-1.000000	-1.000000	-1.000000	-1.000000	-1.000000	146.965517	0.000000	-1.000000	-1.000000	342700.000000	1772311343.993485
-16974.450000	-16762.770000	-20114.820000	-12749.760000	0.000000	0.000000	0.000000	0.000000	2.432457	-11.177350	3.418398	7.602204	0.000000	0.000000	0.000000	0.000000	0.503580	0.091560	-0.396760	0.020874	0.982969	-0.011841	-1.000000	-1.000000	-1.000000	-1.000000	-1.000000	-1.000000	-1.000000	146.965517	0.000000	-1.000000	-1.000000	342701.000000	1772311343.993488
-16973.820000	-16774.470000	-20115.000000	-12749.625000	0.000000	0.000000	0.000000	0.000000	4.000646	-8.088143	3.889496	6.349713	0.000000	0.000000	0.000000	0.000000	0.503580	0.091560	-0.396760	0.020874	0.982969	-0.011841	-1.000000	-1.000000	-1.000000	-1.000000	-1.000000	-1.000000	-1.000000	146.965517	0.000000	-1.000000	-1.000000	342702.000000	1772311343.997559
-16980.615000	-16771.320000	-20119.140000	-12754.035000	0.000000	0.000000	0.000000	0.000000	4.254116	-3.480996	3.352127	2.893474	0.000000	0.000000	0.000000	0.000000	0.503580	0.091560	-0.396760	0.020874	0.982969	-0.011841	-1.000000	-1.000000	-1.000000	-1.000000	-1.000000	-1.000000	-1.000000	146.965517	0.000000	-1.000000	-1.000000	342703.000000	1772311343.997563
-16999.515000	-16771.680000	-20135.745000	-12769.515000	0.000000	0.000000	0.000000	0.000000	1.981778	-0.288886	1.066444	-1.615021	0.000000	0.000000	0.000000	0.000000	0.503580	0.091560	-0.396760	0.020874	0.982969	-0.011841	-1.000000	-1.000000	-1.000000	-1.000000	-1.000000	-1.000000	-1.000000	146.965517	0.000000	-1.000000	-1.000000	342704.000000	1772311344.001473
-17003.295000	-16782.030000	-20139.030000	-12773.250000	0.000000	0.000000	0.000000	0.000000	-2.829071	0.865423	-3.006013	-6.183885	0.000000	0.000000	0.000000	0.000000	0.503580	0.091560	-0.396760	0.020874	0.982969	-0.011841	-1.000000	-1.000000	-1.000000	-1.000000	-1.000000	-1.000000	-1.000000	146.965517	0.000000	-1.000000	-1.000000	342705.000000	1772311344.001476
-16993.845000	-16794.090000	-20130.435000	-12764.655000	0.000000	0.000000	0.000000	0.000000	-7.335234	0.417442	-6.664939	-8.824940	0.000000	0.000000	0.000000	0.000000	0.579880	0.274680	-0.320460	0.020508	0.983640	-0.010986	-1.000000	-1.000000	-1.000000	-1.000000	-1.000000	-1.000000	-1.000000	146.965517	0.000000	-1.000000	-1.000000	342706.000000	1772311344.005474
-16990.290000	-16816.680000	-20127.105000	-12760.515000	0.000000	0.000000	0.000000	0.000000	-7.643185	-1.203349	-6.745331	-7.280306	0.000000	0.000000	0.000000	0.000000	0.579880	0.274680	-0.320460	0.020508	0.983640	-0.010986	-1.000000	-1.000000	-1.000000	-1.000000	-1.000000	-1.000000	-1.000000	146.965517	0.000000	-1.000000	-1.000000	342707.000000	1772311344.005476
-16988.535000	-16817.715000	-20128.005000	-12761.910000	0.000000	0.000000	0.000000	0.000000	-2.917608	-3.005137	-2.614532	-1.774526	0.000000	0.000000	0.000000	0.000000	0.579880	0.274680	-0.320460	0.020508	0.983640	-0.010986	-1.000000	-1.000000	-1.000000	-1.000000	-1.000000	-1.000000	-1.000000	146.965517	0.000000	-1.000000	-1.000000	342708.000000	1772311344.009177
-16988.895000	-16834.725000	-20130.075000	-12765.690000	0.000000	0.000000	0.000000	0.000000	3.640257	-3.251648	2.877596	4.342952	0.000000	0.000000	0.000000	0.000000	0.579880	0.274680	-0.320460	0.020508	0.983640	-0.010986	-1.000000	-1.000000	-1.000000	-1.000000	-1.000000	-1.000000	-1.000000	146.965517	0.000000	-1.000000	-1.000000	342709.000000	1772311344.009180
-16985.790000	-16829.730000	-20125.485000	-12760.155000	0.000000	0.000000	0.000000	0.000000	7.972141	-0.826509	6.329597	7.594623	0.000000	0.000000	0.000000	0.000000	0.579880	0.274680	-0.320460	0.020508	0.983640	-0.010986	-1.000000	-1.000000	-1.000000	-1.000000	-1.000000	-1.000000	-1.000000	146.965517	0.000000	-1.000000	-1.000000	342710.000000	1772311344.013658
-16976.700000	-16835.940000	-20113.785000	-12744.405000	0.000000	0.000000	0.000000	0.000000	8.373260	3.739569	6.723264	7.412272	0.000000	0.000000	0.000000	0.000000	0.579880	0.274680	-0.320460	0.020508	0.983640	-0.010986	-1.000000	-1.000000	-1.000000	-1.000000	-1.000000	-1.000000	-1.000000	146.965517	0.000000	-1.000000	-1.000000	342711.000000	1772311344.013661
-16978.590000	-16862.130000	-20114.595000	-12746.520000	0.000000	0.000000	0.000000	0.000000	5.757427	8.053650	5.173715	5.514770	0.000000	0.000000	0.000000	0.000000	0.579880	0.274680	-0.320460	0.020508	0.983640	-0.010986	-1.000000	-1.000000	-1.000000	-1.000000	-1.000000	-1.000000	-1.000000	146.965517	0.000000	-1.000000	-1.000000	342712.000000	1772311344.017550
-16987.230000	-16866.180000	-20122.785000	-12755.070000	0.000000	0.000000	0.000000	0.000000	1.590290	8.995314	2.538726	2.811476	0.000000	0.000000	0.000000	0.000000	0.579880	0.274680	-0.320460	0.020508	0.983640	-0.010986	-1.000000	-1.000000	-1.000000	-1.000000	-1.000000	-1.000000	-1.000000	146.965517	0.000000	-1.000000	-1.000000	342713.000000	1772311344.017553
-16987.995000	-16872.390000	-20124.090000	-12756.735000	0.000000	0.000000	0.000000	0.000000	-3.091713	6.074039	-1.128911	-1.035700	0.000000	0.000000	0.000000	0.000000	0.579880	0.274680	-0.320460	0.020508	0.983640	-0.010986	-1.000000	-1.000000	-1.000000	-1.000000	-1.000000	-1.000000	-1.000000	146.965517	0.000000	-1.000000	-1.000000	342714.000000	1772311344.023538
-16985.520000	-16874.145000	-20123.325000	-12755.475000	0.000000	0.000000	0.000000	0.000000	-6.751490	2.046221	-4.907824	-5.239024	0.000000	0.000000	0.000000	0.000000	0.579880	0.274680	-0.320460	0.020508	0.983640	-0.010986	-1.000000	-1.000000	-1.000000	-1.000000	-1.000000	-1.000000	-1.000000	146.965517	0.000000	-1.000000	-1.000000	342715.000000	1772311344.023540
-16987.500000	-16866.900000	-20126.475000	-12758.670000	0.000000	0.000000	0.000000	0.000000	-7.641328	-0.194781	-6.944536	-7.688699	0.000000	0.000000	0.000000	0.000000	1.648080	0.335720	-0.137340	0.020752	0.981870	-0.009399	-1.000000	-1.000000	-1.000000	-1.000000	-1.000000	-1.000000	-1.000000	146.965517	0.000000	-1.000000	-1.000000	342716.000000	1772311344.025533
-16974.990000	-16822.710000	-20117.025000	-12752.190000	0.000000	0.000000	0.000000	0.000000	-5.268433	1.033604	-6.093578	-7.017911	0.000000	0.000000	0.000000	0.000000	1.648080	0.335720	-0.137340	0.020752	0.981870	-0.009399	-1.000000	-1.000000	-1.000000	-1.000000	-1.000000	-1.000000	-1.000000	146.965517	0.000000	-1.000000	-1.000000	342717.000000	1772311344.025536
-16959.600000	-16785.675000	-20102.400000	-12737.655000	0.000000	0.000000	0.000000	0.000000	-0.423967	6.254320	-2.392155	-3.301589	0.000000	0.000000	0.000000	0.000000	1.648080	0.335720	-0.137340	0.020752	0.981870	-0.009399	-1.000000	-1.000000	-1.000000	-1.000000	-1.000000	-1.000000	-1.000000	146.965517	0.000000	-1.000000	-1.000000	342718.000000	1772311344.029675
-16983.270000	-16767.585000	-20126.340000	-12758.220000	0.000000	0.000000	0.000000	0.000000	4.631462	12.906629	2.427889	1.752039	0.000000	0.000000	0.000000	0.000000	1.648080	0.335720	-0.137340	0.020752	0.981870	-0.009399	-1.000000	-1.000000	-1.000000	-1.000000	-1.000000	-1.000000	-1.000000	146.965517	0.000000	-1.000000	-1.000000	342719.000000	1772311344.029678
-17005.410000	-16780.770000	-20145.690000	-12777.255000	0.000000	0.000000	0.000000	0.000000	5.890971	14.663774	4.529039	4.493972	0.000000	0.000000	0.000000	0.000000	1.648080	0.335720	-0.137340	0.020752	0.981870	-0.009399	-1.000000	-1.000000	-1.000000	-1.000000	-1.000000	-1.000000	-1.000000	146.965517	0.000000	-1.000000	-1.000000	342720.000000	1772311344.033552
-17003.745000	-16766.370000	-20142.855000	-12775.005000	0.000000	0.000000	0.000000	0.000000	1.467487	6.659975	1.736105	2.583664	0.000000	0.000000	0.000000	0.000000	1.648080	0.335720	-0.137340	0.020752	0.981870	-0.009399	-1.000000	-1.000000	-1.000000	-1.000000	-1.000000	-1.000000	-1.000000	146.965517	0.000000	-1.000000	-1.000000	342721.000000	1772311344.033555
-16999.965000	-16771.860000	-20138.715000	-12771.630000	0.000000	0.000000	0.000000	0.000000	-4.754524	-8.507799	-2.820004	-1.449104	0.000000	0.000000	0.000000	0.000000	1.648080	0.335720	-0.137340	0.020752	0.981870	-0.009399	-1.000000	-1.000000	-1.000000	-1.000000	-1.000000	-1.000000	-1.000000	146.965517	0.000000	-1.000000	-1.000000	342722.000000	1772311344.037561
-17004.060000	-16763.715000	-20143.350000	-12775.950000	0.000000	0.000000	0.000000	0.000000	-7.057988	-22.585652	-4.311593	-3.159574	0.000000	0.000000	0.000000	0.000000	1.648080	0.335720	-0.137340	0.020752	0.981870	-0.009399	-1.000000	-1.000000	-1.000000	-1.000000	-1.000000	-1.000000	-1.000000	146.965517	0.000000	-1.000000	-1.000000	342723.000000	1772311344.037563
-16999.785000	-16746.705000	-20141.370000	-12772.845000	0.000000	0.000000	0.000000	0.000000	-3.848365	-28.102952	-1.611911	-1.189524	0.000000	0.000000	0.000000	0.000000	1.648080	0.335720	-0.137340	0.020752	0.981870	-0.009399	-1.000000	-1.000000	-1.000000	-1.000000	-1.000000	-1.000000	-1.000000	146.965517	0.000000	-1.000000	-1.000000	342724.000000	1772311344.041610
-16984.620000	-16724.655000	-20129.940000	-12759.120000	0.000000	0.000000	0.000000	0.000000	2.452522	-22.264204	3.059250	2.823513	0.000000	0.000000	0.000000	0.000000	1.648080	0.335720	-0.137340	0.020752	0.981870	-0.009399	-1.000000	-1.000000	-1.000000	-1.000000	-1.000000	-1.000000	-1.000000	146.965517	0.000000	-1.000000	-1.000000	342725.000000	1772311344.041613
-16987.320000	-16714.485000	-20133.045000	-12761.955000	0.000000	0.000000	0.000000	0.000000	8.423220	-8.131208	7.046204	6.620829	0.000000	0.000000	0.000000	0.000000	2.945180	0.091560	-0.350980	0.021118	0.982053	-0.009277	-1.000000	-1.000000	-1.000000	-1.000000	-1.000000	-1.000000	-1.000000	146.965517	0.000000	-1.000000	-1.000000	342726.000000	1772311344.045660
-16985.430000	-16727.625000	-20129.490000	-12759.165000	0.000000	0.000000	0.000000	0.000000	10.942094	6.532415	8.299144	8.034265	0.000000	0.000000	0.000000	0.000000	2.945180	0.091560	-0.350980	0.021118	0.982053	-0.009277	-1.000000	-1.000000	-1.000000	-1.000000	-1.000000	-1.000000	-1.000000	146.965517	0.000000	-1.000000	-1.000000	342727.000000	1772311344.045663
-16991.280000	-16735.455000	-20133.585000	-12765.735000	0.000000	0.000000	0.000000	0.000000	8.403547	13.798658	5.998490	5.788686	0.000000	0.000000	0.000000	0.000000	2.945180	0.091560	-0.350980	0.021118	0.982053	-0.009277	-1.000000	-1.000000	-1.000000	-1.000000	-1.000000	-1.000000	-1.000000	146.965517	0.000000	-1.000000	-1.000000	342728.000000	1772311344.049855
-16991.145000	-16719.885000	-20132.505000	-12766.995000	0.000000	0.000000	0.000000	0.000000	1.991575	11.614912	1.181378	0.618831	0.000000	0.000000	0.000000	0.000000	2.945180	0.091560	-0.350980	0.021118	0.982053	-0.009277	-1.000000	-1.000000	-1.000000	-1.000000	-1.000000	-1.000000	-1.000000	146.965517	0.000000	-1.000000	-1.000000	342729.000000	1772311344.049858
-16989.120000	-16733.520000	-20129.400000	-12759.345000	0.000000	0.000000	0.000000	0.000000	-4.931561	4.677921	-3.794840	-4.848472	0.000000	0.000000	0.000000	0.000000	2.945180	0.091560	-0.350980	0.021118	0.982053	-0.009277	-1.000000	-1.000000	-1.000000	-1.000000	-1.000000	-1.000000	-1.000000	146.965517	0.000000	-1.000000	-1.000000	342730.000000	1772311344.057768
-16989.300000	-16758.945000	-20129.940000	-12758.715000	0.000000	0.000000	0.000000	0.000000	-8.981343	-1.905185	-6.651419	-7.626104	0.000000	0.000000	0.000000	0.000000	2.945180	0.091560	-0.350980	0.021118	0.982053	-0.009277	-1.000000	-1.000000	-1.000000	-1.000000	-1.000000	-1.000000	-1.000000	146.965517	0.000000	-1.000000	-1.000000	342731.000000	1772311344.057772
-16986.510000	-16775.055000	-20127.330000	-12757.320000	0.000000	0.000000	0.000000	0.000000	-8.801767	-6.590347	-6.569616	-6.661874	0.000000	0.000000	0.000000	0.000000	2.945180	0.091560	-0.350980	0.021118	0.982053	-0.009277	-1.000000	-1.000000	-1.000000	-1.000000	-1.000000	-1.000000	-1.000000	146.965517	0.000000	-1.000000	-1.000000	342732.000000	1772311344.057776
-16986.195000	-16769.250000	-20129.715000	-12759.255000	0.000000	0.000000	0.000000	0.000000	-5.382298	-8.527815	-4.362082	-3.434838	0.000000	0.000000	0.000000	0.000000	2.945180	0.091560	-0.350980	0.021118	0.982053	-0.009277	-1.000000	-1.000000	-1.000000	-1.000000	-1.000000	-1.000000	-1.000000	146.965517	0.000000	-1.000000	-1.000000	342733.000000	1772311344.057778
-16981.470000	-16796.790000	-20125.665000	-12755.475000	0.000000	0.000000	0.000000	0.000000	-0.846913	-6.328900	-1.503535	-0.169017	0.000000	0.000000	0.000000	0.000000	2.945180	0.091560	-0.350980	0.021118	0.982053	-0.009277	-1.000000	-1.000000	-1.000000	-1.000000	-1.000000	-1.000000	-1.000000	146.965517	0.000000	-1.000000	-1.000000	342734.000000	1772311344.065679
-16976.475000	-16835.445000	-20119.815000	-12750.120000	0.000000	0.000000	0.000000	0.000000	2.938821	-1.485234	0.980311	1.966200	0.000000	0.000000	0.000000	0.000000	2.945180	0.091560	-0.350980	0.021118	0.982053	-0.009277	-1.000000	-1.000000	-1.000000	-1.000000	-1.000000	-1.000000	-1.000000	146.965517	0.000000	-1.000000	-1.000000	342735.000000	1772311344.065682
-16976.565000	-16842.690000	-20119.095000	-12751.110000	0.000000	0.000000	0.000000	0.000000	4.939253	2.258642	2.732481	2.919084	0.000000	0.000000	0.000000	0.000000	2.197440	0.106820	-0.289940	0.021057	0.981687	-0.010681	-1.000000	-1.000000	-1.000000	-1.000000	-1.000000	-1.000000	-1.000000	146.965517	0.000000	-1.000000	-1.000000	342736.000000	1772311344.065687
-16989.075000	-16833.690000	-20130.750000	-12760.290000	0.000000	0.000000	0.000000	0.000000	4.526248	4.411395	3.199677	2.606255	0.000000	0.000000	0.000000	0.000000	2.197440	0.106820	-0.289940	0.021057	0.981687	-0.010681	-1.000000	-1.000000	-1.000000	-1.000000	-1.000000	-1.000000	-1.000000	146.965517	0.000000	-1.000000	-1.000000	342737.000000	1772311344.065689
-16998.165000	-16820.145000	-20137.455000	-12764.430000	0.000000	0.000000	0.000000	0.000000	1.476770	7.933204	1.609635	0.768448	0.000000	0.000000	0.000000	0.000000	2.197440	0.106820	-0.289940	0.021057	0.981687	-0.010681	-1.000000	-1.000000	-1.000000	-1.000000	-1.000000	-1.000000	-1.000000	146.965517	0.000000	-1.000000	-1.000000	342738.000000	1772311344.069770
-16977.555000	-16786.305000	-20119.905000	-12747.105000	0.000000	0.000000	0.000000	0.000000	-2.543064	14.203800	-1.174535	-1.542244	0.000000	0.000000	0.000000	0.000000	2.197440	0.106820	-0.289940	0.021057	0.981687	-0.010681	-1.000000	-1.000000	-1.000000	-1.000000	-1.000000	-1.000000	-1.000000	146.965517	0.000000	-1.000000	-1.000000	342739.000000	1772311344.069772
-16966.530000	-16785.270000	-20113.020000	-12740.580000	0.000000	0.000000	0.000000	0.000000	-3.919186	20.497634	-2.295688	-1.926754	0.000000	0.000000	0.000000	0.000000	2.197440	0.106820	-0.289940	0.021057	0.981687	-0.010681	-1.000000	-1.000000	-1.000000	-1.000000	-1.000000	-1.000000	-1.000000	146.965517	0.000000	-1.000000	-1.000000	342740.000000	1772311344.073755
-16981.380000	-16796.340000	-20128.230000	-12752.865000	0.000000	0.000000	0.000000	0.000000	-1.279964	21.118641	-0.595228	0.155302	0.000000	0.000000	0.000000	0.000000	2.197440	0.106820	-0.289940	0.021057	0.981687	-0.010681	-1.000000	-1.000000	-1.000000	-1.000000	-1.000000	-1.000000	-1.000000	146.965517	0.000000	-1.000000	-1.000000	342741.000000	1772311344.073758
-16996.095000	-16826.580000	-20145.375000	-12777.750000	0.000000	0.000000	0.000000	0.000000	1.876169	11.547940	1.128440	1.639668	0.000000	0.000000	0.000000	0.000000	2.197440	0.106820	-0.289940	0.021057	0.981687	-0.010681	-1.000000	-1.000000	-1.000000	-1.000000	-1.000000	-1.000000	-1.000000	146.965517	0.000000	-1.000000	-1.000000	342742.000000	1772311344.077822
-16978.725000	-16843.815000	-20128.770000	-12768.840000	0.000000	0.000000	0.000000	0.000000	1.985995	-6.565641	0.328505	-0.175897	0.000000	0.000000	0.000000	0.000000	2.197440	0.106820	-0.289940	0.021057	0.981687	-0.010681	-1.000000	-1.000000	-1.000000	-1.000000	-1.000000	-1.000000	-1.000000	146.965517	0.000000	-1.000000	-1.000000	342743.000000	1772311344.077824
-16973.505000	-16860.195000	-20120.670000	-12752.865000	0.000000	0.000000	0.000000	0.000000	0.293003	-24.913141	-1.180924	-3.111015	0.000000	0.000000	0.000000	0.000000	2.197440	0.106820	-0.289940	0.021057	0.981687	-0.010681	-1.000000	-1.000000	-1.000000	-1.000000	-1.000000	-1.000000	-1.000000	146.965517	0.000000	-1.000000	-1.000000	342744.000000	1772311344.081900
-16969.590000	-16901.640000	-20113.830000	-12742.065000	0.000000	0.000000	0.000000	0.000000	-0.116170	-34.484182	-0.317586	-2.637388	0.000000	0.000000	0.000000	0.000000	2.197440	0.106820	-0.289940	0.021057	0.981687	-0.010681	-1.000000	-1.000000	-1.000000	-1.000000	-1.000000	-1.000000	-1.000000	146.965517	0.000000	-1.000000	-1.000000	342745.000000	1772311344.081904
-16978.635000	-16908.615000	-20121.075000	-12748.905000	0.000000	0.000000	0.000000	0.000000	0.939851	-31.770782	2.521306	1.810321	0.000000	0.000000	0.000000	0.000000	1.068200	-0.167860	-0.244160	0.021423	0.983457	-0.011169	-1.000000	-1.000000	-1.000000	-1.000000	-1.000000	-1.000000	-1.000000	146.965517	0.000000	-1.000000	-1.000000	342746.000000	1772311344.086128
-16983.945000	-16872.840000	-20124.810000	-12750.930000	0.000000	0.000000	0.000000	0.000000	1.260991	-17.798593	4.154973	6.021443	0.000000	0.000000	0.000000	0.000000	1.068200	-0.167860	-0.244160	0.021423	0.983457	-0.011169	-1.000000	-1.000000	-1.000000	-1.000000	-1.000000	-1.000000	-1.000000	146.965517	0.000000	-1.000000	-1.000000	342747.000000	1772311344.086130
-16983.000000	-16832.655000	-20125.125000	-12749.895000	0.000000	0.000000	0.000000	0.000000	-0.319985	4.723860	2.606325	6.163691	0.000000	0.000000	0.000000	0.000000	1.068200	-0.167860	-0.244160	0.021423	0.983457	-0.011169	-1.000000	-1.000000	-1.000000	-1.000000	-1.000000	-1.000000	-1.000000	146.965517	0.000000	-1.000000	-1.000000	342748.000000	1772311344.089862
-16971.030000	-16807.095000	-20117.790000	-12743.190000	0.000000	0.000000	0.000000	0.000000	-2.294286	29.261175	-0.828420	2.564312	0.000000	0.000000	0.000000	0.000000	1.068200	-0.167860	-0.244160	0.021423	0.983457	-0.011169	-1.000000	-1.000000	-1.000000	-1.000000	-1.000000	-1.000000	-1.000000	146.965517	0.000000	-1.000000	-1.000000	342749.000000	1772311344.089865
-16964.055000	-16840.080000	-20117.565000	-12752.325000	0.000000	0.000000	0.000000	0.000000	-2.224077	44.138594	-3.297834	-1.847195	0.000000	0.000000	0.000000	0.000000	1.068200	-0.167860	-0.244160	0.021423	0.983457	-0.011169	-1.000000	-1.000000	-1.000000	-1.000000	-1.000000	-1.000000	-1.000000	146.965517	0.000000	-1.000000	-1.000000	342750.000000	1772311344.093905
-16984.440000	-16862.175000	-20134.440000	-12764.115000	0.000000	0.000000	0.000000	0.000000	-0.112438	38.780800	-3.699870	-5.128365	0.000000	0.000000	0.000000	0.000000	1.068200	-0.167860	-0.244160	0.021423	0.983457	-0.011169	-1.000000	-1.000000	-1.000000	-1.000000	-1.000000	-1.000000	-1.000000	146.758621	0.000000	-1.000000	-1.000000	342751.000000	1772311344.093908
-16993.890000	-16860.780000	-20142.630000	-12763.665000	0.000000	0.000000	0.000000	0.000000	1.071247	14.100268	-3.432300	-6.896814	0.000000	0.000000	0.000000	0.000000	1.068200	-0.167860	-0.244160	0.021423	0.983457	-0.011169	-1.000000	-1.000000	-1.000000	-1.000000	-1.000000	-1.000000	-1.000000	146.758621	0.000000	-1.000000	-1.000000	342752.000000	1772311344.097834
-16978.725000	-16856.820000	-20125.530000	-12744.945000	0.000000	0.000000	0.000000	0.000000	-0.252026	-15.557625	-3.257592	-6.283776	0.000000	0.000000	0.000000	0.000000	1.068200	-0.167860	-0.244160	0.021423	0.983457	-0.011169	-1.000000	-1.000000	-1.000000	-1.000000	-1.000000	-1.000000	-1.000000	146.758621	0.000000	-1.000000	-1.000000	342753.000000	1772311344.097836
-16980.615000	-16864.380000	-20130.705000	-12760.695000	0.000000	0.000000	0.000000	0.000000	-1.748181	-33.966663	-1.767994	-2.537198	0.000000	0.000000	0.000000	0.000000	1.068200	-0.167860	-0.244160	0.021423	0.983457	-0.011169	-1.000000	-1.000000	-1.000000	-1.000000	-1.000000	-1.000000	-1.000000	146.758621	0.000000	-1.000000	-1.000000	342754.000000	1772311344.101826
-16982.190000	-16854.885000	-20131.290000	-12764.790000	0.000000	0.000000	0.000000	0.000000	-1.097459	-34.593765	1.452798	2.251411	0.000000	0.000000	0.000000	0.000000	1.068200	-0.167860	-0.244160	0.021423	0.983457	-0.011169	-1.000000	-1.000000	-1.000000	-1.000000	-1.000000	-1.000000	-1.000000	146.758621	0.000000	-1.000000	-1.000000	342755.000000	1772311344.101829
-16982.505000	-16861.230000	-20131.695000	-12767.040000	0.000000	0.000000	0.000000	0.000000	0.959616	-21.439537	4.422453	4.758633	0.000000	0.000000	0.000000	0.000000	0.625660	0.305200	-0.366240	0.021423	0.984250	-0.010376	-1.000000	-1.000000	-1.000000	-1.000000	-1.000000	-1.000000	-1.000000	146.758621	0.000000	-1.000000	-1.000000	342756.000000	1772311344.105855
-16984.440000	-16867.125000	-20132.595000	-12762.315000	0.000000	0.000000	0.000000	0.000000	2.505719	-3.779836	5.307426	4.333569	0.000000	0.000000	0.000000	0.000000	0.625660	0.305200	-0.366240	0.021423	0.984250	-0.010376	-1.000000	-1.000000	-1.000000	-1.000000	-1.000000	-1.000000	-1.000000	146.758621	0.000000	-1.000000	-1.000000	342757.000000	1772311344.105857
-16980.615000	-16840.080000	-20129.085000	-12756.915000	0.000000	0.000000	0.000000	0.000000	2.651722	10.200506	4.027801	2.876886	0.000000	0.000000	0.000000	0.000000	0.625660	0.305200	-0.366240	0.021423	0.984250	-0.010376	-1.000000	-1.000000	-1.000000	-1.000000	-1.000000	-1.000000	-1.000000	146.758621	0.000000	-1.000000	-1.000000	342758.000000	1772311344.109951
-16979.085000	-16802.280000	-20129.805000	-12757.050000	0.000000	0.000000	0.000000	0.000000	1.811648	18.152145	1.724031	2.068267	0.000000	0.000000	0.000000	0.000000	0.625660	0.305200	-0.366240	0.021423	0.984250	-0.010376	-1.000000	-1.000000	-1.000000	-1.000000	-1.000000	-1.000000	-1.000000	146.758621	0.000000	-1.000000	-1.000000	342759.000000	1772311344.109954
-16973.190000	-16814.115000	-20122.020000	-12749.895000	0.000000	0.000000	0.000000	0.000000	0.893942	21.068002	-0.294379	1.978672	0.000000	0.000000	0.000000	0.000000	0.625660	0.305200	-0.366240	0.021423	0.984250	-0.010376	-1.000000	-1.000000	-1.000000	-1.000000	-1.000000	-1.000000	-1.000000	146.758621	0.000000	-1.000000	-1.000000	342760.000000	1772311344.113842
-16976.655000	-16860.555000	-20125.755000	-12754.080000	0.000000	0.000000	0.000000	0.000000	0.328431	17.107096	-1.329777	1.753221	0.000000	0.000000	0.000000	0.000000	0.625660	0.305200	-0.366240	0.021423	0.984250	-0.010376	-1.000000	-1.000000	-1.000000	-1.000000	-1.000000	-1.000000	-1.000000	146.758621	0.000000	-1.000000	-1.000000	342761.000000	1772311344.113846
-16981.605000	-16899.885000	-20129.040000	-12756.240000	0.000000	0.000000	0.000000	0.000000	-0.310985	3.376680	-1.705424	0.575112	0.000000	0.000000	0.000000	0.000000	0.625660	0.305200	-0.366240	0.021423	0.984250	-0.010376	-1.000000	-1.000000	-1.000000	-1.000000	-1.000000	-1.000000	-1.000000	146.758621	0.000000	-1.000000	-1.000000	342762.000000	1772311344.119098
-16976.250000	-16921.575000	-20121.750000	-12748.050000	0.000000	0.000000	0.000000	0.000000	-1.438431	-16.246334	-2.035307	-1.478869	0.000000	0.000000	0.000000	0.000000	0.625660	0.305200	-0.366240	0.021423	0.984250	-0.010376	-1.000000	-1.000000	-1.000000	-1.000000	-1.000000	-1.000000	-1.000000	146.758621	0.000000	-1.000000	-1.000000	342763.000000	1772311344.119101
-16978.455000	-16913.745000	-20124.315000	-12751.020000	0.000000	0.000000	0.000000	0.000000	-2.455991	-30.300376	-2.137581	-3.177184	0.000000	0.000000	0.000000	0.000000	0.625660	0.305200	-0.366240	0.021423	0.984250	-0.010376	-1.000000	-1.000000	-1.000000	-1.000000	-1.000000	-1.000000	-1.000000	146.758621	0.000000	-1.000000	-1.000000	342764.000000	1772311344.121782
-16979.445000	-16897.995000	-20124.540000	-12751.875000	0.000000	0.000000	0.000000	0.000000	-2.568247	-28.342481	-1.695636	-3.607836	0.000000	0.000000	0.000000	0.000000	0.625660	0.305200	-0.366240	0.021423	0.984250	-0.010376	-1.000000	-1.000000	-1.000000	-1.000000	-1.000000	-1.000000	-1.000000	146.758621	0.000000	-1.000000	-1.000000	342765.000000	1772311344.121784
-16985.520000	-16883.550000	-20132.595000	-12759.030000	0.000000	0.000000	0.000000	0.000000	-1.911190	-9.779756	-1.136963	-3.147407	0.000000	0.000000	0.000000	0.000000	1.129240	0.427280	-0.350980	0.021118	0.982236	-0.007507	-1.000000	-1.000000	-1.000000	-1.000000	-1.000000	-1.000000	-1.000000	146.758621	0.000000	-1.000000	-1.000000	342766.000000	1772311344.125827
-16984.530000	-16868.655000	-20134.485000	-12763.800000	0.000000	0.000000	0.000000	0.000000	-1.101186	15.343877	-1.045925	-2.608038	0.000000	0.000000	0.000000	0.000000	1.129240	0.427280	-0.350980	0.021118	0.982236	-0.007507	-1.000000	-1.000000	-1.000000	-1.000000	-1.000000	-1.000000	-1.000000	146.758621	0.000000	-1.000000	-1.000000	342767.000000	1772311344.125831
-16977.960000	-16890.795000	-20126.520000	-12754.665000	0.000000	0.000000	0.000000	0.000000	-0.196037	33.120389	-1.106435	-2.009890	0.000000	0.000000	0.000000	0.000000	1.129240	0.427280	-0.350980	0.021118	0.982236	-0.007507	-1.000000	-1.000000	-1.000000	-1.000000	-1.000000	-1.000000	-1.000000	146.758621	0.000000	-1.000000	-1.000000	342768.000000	1772311344.129902
-16956.315000	-16929.945000	-20104.875000	-12732.435000	0.000000	0.000000	0.000000	0.000000	1.565393	33.515157	0.105301	-0.125246	0.000000	0.000000	0.000000	0.000000	1.129240	0.427280	-0.350980	0.021118	0.982236	-0.007507	-1.000000	-1.000000	-1.000000	-1.000000	-1.000000	-1.000000	-1.000000	146.758621	0.000000	-1.000000	-1.000000	342769.000000	1772311344.129904
-16944.345000	-16944.480000	-20092.770000	-12722.895000	0.000000	0.000000	0.000000	0.000000	4.661797	16.219374	3.513345	3.905591	0.000000	0.000000	0.000000	0.000000	1.129240	0.427280	-0.350980	0.021118	0.982236	-0.007507	-1.000000	-1.000000	-1.000000	-1.000000	-1.000000	-1.000000	-1.000000	146.758621	0.000000	-1.000000	-1.000000	342770.000000	1772311344.133817
-16957.890000	-16939.620000	-20103.840000	-12732.975000	0.000000	0.000000	0.000000	0.000000	7.358576	-7.791629	7.214595	8.007748	0.000000	0.000000	0.000000	0.000000	1.129240	0.427280	-0.350980	0.021118	0.982236	-0.007507	-1.000000	-1.000000	-1.000000	-1.000000	-1.000000	-1.000000	-1.000000	146.758621	0.000000	-1.000000	-1.000000	342771.000000	1772311344.133820
-16988.940000	-16925.130000	-20132.280000	-12759.075000	0.000000	0.000000	0.000000	0.000000	5.765173	-23.400600	6.827396	7.752580	0.000000	0.000000	0.000000	0.000000	1.129240	0.427280	-0.350980	0.021118	0.982236	-0.007507	-1.000000	-1.000000	-1.000000	-1.000000	-1.000000	-1.000000	-1.000000	146.758621	0.000000	-1.000000	-1.000000	342772.000000	1772311344.137818
-16976.565000	-16915.005000	-20120.985000	-12751.155000	0.000000	0.000000	0.000000	0.000000	-1.556471	-22.543321	0.376441	1.300142	0.000000	0.000000	0.000000	0.000000	1.129240	0.427280	-0.350980	0.021118	0.982236	-0.007507	-1.000000	-1.000000	-1.000000	-1.000000	-1.000000	-1.000000	-1.000000	146.758621	0.000000	-1.000000	-1.000000	342773.000000	1772311344.137820
-16967.070000	-16906.095000	-20111.445000	-12746.115000	0.000000	0.000000	0.000000	0.000000	-9.643206	-8.814646	-7.680208	-7.041267	0.000000	0.000000	0.000000	0.000000	1.129240	0.427280	-0.350980	0.021118	0.982236	-0.007507	-1.000000	-1.000000	-1.000000	-1.000000	-1.000000	-1.000000	-1.000000	146.758621	0.000000	-1.000000	-1.000000	342774.000000	1772311344.144334
-16995.915000	-16895.160000	-20139.255000	-12768.030000	0.000000	0.000000	0.000000	0.000000	-12.254617	7.397374	-11.192456	-11.220545	0.000000	0.000000	0.000000	0.000000	1.129240	0.427280	-0.350980	0.021118	0.982236	-0.007507	-1.000000	-1.000000	-1.000000	-1.000000	-1.000000	-1.000000	-1.000000	146.758621	0.000000	-1.000000	-1.000000	342775.000000	1772311344.144337
-17009.730000	-16892.775000	-20151.765000	-12771.990000	0.000000	0.000000	0.000000	0.000000	-9.336818	16.898309	-9.558155	-9.900362	0.000000	0.000000	0.000000	0.000000	2.502640	0.183120	-0.213640	0.020813	0.981504	-0.005249	-1.000000	-1.000000	-1.000000	-1.000000	-1.000000	-1.000000	-1.000000	146.758621	0.000000	-1.000000	-1.000000	342776.000000	1772311344.145958
-16968.690000	-16895.835000	-20113.290000	-12738.915000	0.000000	0.000000	0.000000	0.000000	-3.889477	16.049724	-5.109888	-4.764984	0.000000	0.000000	0.000000	0.000000	2.502640	0.183120	-0.213640	0.020813	0.981504	-0.005249	-1.000000	-1.000000	-1.000000	-1.000000	-1.000000	-1.000000	-1.000000	146.758621	0.000000	-1.000000	-1.000000	342777.000000	1772311344.145968
-16971.570000	-16917.030000	-20119.275000	-12746.745000	0.000000	0.000000	0.000000	0.000000	3.548522	6.512239	1.793241	2.972446	0.000000	0.000000	0.000000	0.000000	2.502640	0.183120	-0.213640	0.020813	0.981504	-0.005249	-1.000000	-1.000000	-1.000000	-1.000000	-1.000000	-1.000000	-1.000000	146.758621	0.000000	-1.000000	-1.000000	342778.000000	1772311344.150284
-16983.855000	-16951.725000	-20129.580000	-12755.295000	0.000000	0.000000	0.000000	0.000000	11.208287	-7.254700	9.296751	10.208997	0.000000	0.000000	0.000000	0.000000	2.502640	0.183120	-0.213640	0.020813	0.981504	-0.005249	-1.000000	-1.000000	-1.000000	-1.000000	-1.000000	-1.000000	-1.000000	146.758621	0.000000	-1.000000	-1.000000	342779.000000	1772311344.150286
-16980.165000	-16970.400000	-20125.845000	-12752.910000	0.000000	0.000000	0.000000	0.000000	14.203857	-19.850274	12.661236	12.322317	0.000000	0.000000	0.000000	0.000000	2.502640	0.183120	-0.213640	0.020813	0.981504	-0.005249	-1.000000	-1.000000	-1.000000	-1.000000	-1.000000	-1.000000	-1.000000	146.758621	0.000000	-1.000000	-1.000000	342780.000000	1772311344.153949
-16981.740000	-16963.290000	-20129.265000	-12757.320000	0.000000	0.000000	0.000000	0.000000	10.431704	-25.312148	9.843762	8.263216	0.000000	0.000000	0.000000	0.000000	2.502640	0.183120	-0.213640	0.020813	0.981504	-0.005249	-1.000000	-1.000000	-1.000000	-1.000000	-1.000000	-1.000000	-1.000000	146.758621	0.000000	-1.000000	-1.000000	342781.000000	1772311344.153952
-16975.215000	-16978.005000	-20123.865000	-12752.145000	0.000000	0.000000	0.000000	0.000000	2.919718	-19.659777	3.417119	1.305223	0.000000	0.000000	0.000000	0.000000	2.502640	0.183120	-0.213640	0.020813	0.981504	-0.005249	-1.000000	-1.000000	-1.000000	-1.000000	-1.000000	-1.000000	-1.000000	146.758621	0.000000	-1.000000	-1.000000	342782.000000	1772311344.157878
-16973.820000	-16989.300000	-20122.965000	-12748.995000	0.000000	0.000000	0.000000	0.000000	-3.773091	-5.285112	-2.611349	-4.332468	0.000000	0.000000	0.000000	0.000000	2.502640	0.183120	-0.213640	0.020813	0.981504	-0.005249	-1.000000	-1.000000	-1.000000	-1.000000	-1.000000	-1.000000	-1.000000	146.758621	0.000000	-1.000000	-1.000000	342783.000000	1772311344.157882
-16974.765000	-16977.825000	-20126.205000	-12751.695000	0.000000	0.000000	0.000000	0.000000	-7.017395	10.451506	-5.780969	-6.345684	0.000000	0.000000	0.000000	0.000000	2.502640	0.183120	-0.213640	0.020813	0.981504	-0.005249	-1.000000	-1.000000	-1.000000	-1.000000	-1.000000	-1.000000	-1.000000	146.758621	0.000000	-1.000000	-1.000000	342784.000000	1772311344.161905
-16965.765000	-16984.890000	-20116.755000	-12742.155000	0.000000	0.000000	0.000000	0.000000	-6.795159	21.267418	-5.906976	-5.091871	0.000000	0.000000	0.000000	0.000000	2.502640	0.183120	-0.213640	0.020813	0.981504	-0.005249	-1.000000	-1.000000	-1.000000	-1.000000	-1.000000	-1.000000	-1.000000	146.758621	0.000000	-1.000000	-1.000000	342785.000000	1772311344.161908
-16942.770000	-16999.065000	-20091.960000	-12721.140000	0.000000	0.000000	0.000000	0.000000	-3.956108	23.995411	-3.464842	-1.819950	0.000000	0.000000	0.000000	0.000000	4.318580	0.137340	-0.412020	0.020630	0.979734	-0.004822	-1.000000	-1.000000	-1.000000	-1.000000	-1.000000	-1.000000	-1.000000	146.758621	0.000000	-1.000000	-1.000000	342786.000000	1772311344.165934
-16934.175000	-16988.130000	-20081.115000	-12713.130000	0.000000	0.000000	0.000000	0.000000	0.619066	18.502171	1.052452	2.434366	0.000000	0.000000	0.000000	0.000000	4.318580	0.137340	-0.412020	0.020630	0.979734	-0.004822	-1.000000	-1.000000	-1.000000	-1.000000	-1.000000	-1.000000	-1.000000	146.758621	0.000000	-1.000000	-1.000000	342787.000000	1772311344.165937
-16969.590000	-16975.125000	-20115.315000	-12747.330000	0.000000	0.000000	0.000000	0.000000	4.126049	8.731296	4.879032	5.107718	0.000000	0.000000	0.000000	0.000000	4.318580	0.137340	-0.412020	0.020630	0.979734	-0.004822	-1.000000	-1.000000	-1.000000	-1.000000	-1.000000	-1.000000	-1.000000	146.758621	0.000000	-1.000000	-1.000000	342788.000000	1772311344.169929
-17009.055000	-16957.755000	-20155.185000	-12784.995000	0.000000	0.000000	0.000000	0.000000	1.893592	0.420469	2.932946	2.077051	0.000000	0.000000	0.000000	0.000000	4.318580	0.137340	-0.412020	0.020630	0.979734	-0.004822	-1.000000	-1.000000	-1.000000	-1.000000	-1.000000	-1.000000	-1.000000	146.758621	0.000000	-1.000000	-1.000000	342789.000000	1772311344.169931
-16999.785000	-16963.470000	-20147.310000	-12777.525000	0.000000	0.000000	0.000000	0.000000	-6.611407	-3.764747	-5.830512	-6.813224	0.000000	0.000000	0.000000	0.000000	4.318580	0.137340	-0.412020	0.020630	0.979734	-0.004822	-1.000000	-1.000000	-1.000000	-1.000000	-1.000000	-1.000000	-1.000000	146.758621	0.000000	-1.000000	-1.000000	342790.000000	1772311344.173961
-16978.680000	-16986.645000	-20127.690000	-12757.140000	0.000000	0.000000	0.000000	0.000000	-13.789376	-5.956014	-13.953401	-14.116832	0.000000	0.000000	0.000000	0.000000	4.318580	0.137340	-0.412020	0.020630	0.979734	-0.004822	-1.000000	-1.000000	-1.000000	-1.000000	-1.000000	-1.000000	-1.000000	146.758621	0.000000	-1.000000	-1.000000	342791.000000	1772311344.173964
-16959.690000	-17005.455000	-20108.070000	-12736.395000	0.000000	0.000000	0.000000	0.000000	-10.961242	-9.715633	-12.324714	-11.438722	0.000000	0.000000	0.000000	0.000000	4.318580	0.137340	-0.412020	0.020630	0.979734	-0.004822	-1.000000	-1.000000	-1.000000	-1.000000	-1.000000	-1.000000	-1.000000	146.758621	0.000000	-1.000000	-1.000000	342792.000000	1772311344.177998
-16920.180000	-17016.975000	-20069.595000	-12704.580000	0.000000	0.000000	0.000000	0.000000	2.364854	-15.083066	0.261533	1.631693	0.000000	0.000000	0.000000	0.000000	4.318580	0.137340	-0.412020	0.020630	0.979734	-0.004822	-1.000000	-1.000000	-1.000000	-1.000000	-1.000000	-1.000000	-1.000000	146.758621	0.000000	-1.000000	-1.000000	342793.000000	1772311344.178001
-16945.290000	-17002.260000	-20092.905000	-12726.900000	0.000000	0.000000	0.000000	0.000000	17.827539	-17.662556	15.887959	16.720615	0.000000	0.000000	0.000000	0.000000	4.318580	0.137340	-0.412020	0.020630	0.979734	-0.004822	-1.000000	-1.000000	-1.000000	-1.000000	-1.000000	-1.000000	-1.000000	146.758621	0.000000	-1.000000	-1.000000	342794.000000	1772311344.182040
-17008.650000	-17005.815000	-20153.790000	-12775.770000	0.000000	0.000000	0.000000	0.000000	23.095296	-13.049210	22.182031	22.048470	0.000000	0.000000	0.000000	0.000000	4.318580	0.137340	-0.412020	0.020630	0.979734	-0.004822	-1.000000	-1.000000	-1.000000	-1.000000	-1.000000	-1.000000	-1.000000	146.758621	0.000000	-1.000000	-1.000000	342795.000000	1772311344.182043
-16997.490000	-17002.215000	-20141.055000	-12757.365000	0.000000	0.000000	0.000000	0.000000	11.686335	-1.992688	12.240470	12.129321	0.000000	0.000000	0.000000	0.000000	4.852680	-0.167860	-0.350980	0.021728	0.980771	-0.007080	-1.000000	-1.000000	-1.000000	-1.000000	-1.000000	-1.000000	-1.000000	146.758621	0.000000	-1.000000	-1.000000	342796.000000	1772311344.185988
