Channel1	Channel2	Channel3	Channel4	Channel5	Channel6	Channel7	Channel8	FilteredChannel1	FilteredChannel2	FilteredChannel3	FilteredChannel4	FilteredChannel5	FilteredChannel6	FilteredChannel7	FilteredChannel8	GyroX	GyroY	GyroZ	AccX	AccY	AccZ	PPG1	PPG2	rawPPG1	rawPPG2	rawPPG3	Hr	Hrv	Battery	Trigger	PhysicalTrigger	AutoTrigger	NumMeasurements	Timestamp
-4705.605000	22833.945000	-18509.760000	-14809.275000	0.000000	0.000000	0.000000	0.000000	-37.680001	-20.588126	-51.805972	-60.008780	-0.000000	0.000000	-0.000001	0.000001	7.782600	0.396760	-0.793520	0.012512	0.722838	0.693297	-1.000000	-1.000000	-1.000000	-1.000000	-1.000000	-1.000000	-1.000000	139.103448	0.000000	-1.000000	-1.000000	435692.000000	1772918900.778478
-4651.020000	22883.400000	-18421.020000	-14718.780000	0.000000	0.000000	0.000000	0.000000	12.027072	22.082949	18.041181	14.398023	-0.000000	0.000000	-0.000001	0.000001	7.782600	0.396760	-0.793520	0.012512	0.722838	0.693297	-1.000000	-1.000000	-1.000000	-1.000000	-1.000000	-1.000000	-1.000000	139.103448	0.000000	-1.000000	-1.000000	435693.000000	1772918900.778481
-4653.450000	22864.590000	-18437.940000	-14734.395000	0.000000	0.000000	0.000000	0.000000	54.755756	56.103964	77.785466	80.471929	-0.000000	0.000000	-0.000001	0.000001	6.424460	-0.320460	-0.747740	0.012695	0.724608	0.693297	-1.000000	-1.000000	-1.000000	-1.000000	-1.000000	-1.000000	-1.000000	139.103448	0.000000	-1.000000	-1.000000	435694.000000	1772918900.790707
-4672.980000	22850.325000	-18512.100000	-14788.845000	0.000000	0.000000	0.000000	0.000000	68.478732	62.404982	94.589313	102.290334	-0.000000	0.000000	-0.000001	0.000001	6.424460	-0.320460	-0.747740	0.012695	0.724608	0.693297	-1.000000	-1.000000	-1.000000	-1.000000	-1.000000	-1.000000	-1.000000	139.103448	0.000000	-1.000000	-1.000000	435695.000000	1772918900.790710
-4733.505000	22815.495000	-18595.035000	-14869.305000	0.000000	0.000000	0.000000	0.000000	46.226743	38.169182	57.289189	67.291439	-0.000000	0.000000	-0.000001	0.000001	6.424460	-0.320460	-0.747740	0.012695	0.724608	0.693297	-1.000000	-1.000000	-1.000000	-1.000000	-1.000000	-1.000000	-1.000000	139.103448	0.000000	-1.000000	-1.000000	435696.000000	1772918900.876461
-4808.340000	22817.790000	-18681.390000	-14977.935000	0.000000	0.000000	0.000000	0.000000	-0.675908	-2.126271	-14.109820	-5.382089	-0.000000	0.000000	-0.000001	0.000001	6.424460	-0.320460	-0.747740	0.012695	0.724608	0.693297	-1.000000	-1.000000	-1.000000	-1.000000	-1.000000	-1.000000	-1.000000	139.103448	0.000000	-1.000000	-1.000000	435697.000000	1772918900.876466
-4797.225000	22766.985000	-18646.200000	-14951.115000	0.000000	0.000000	0.000000	0.000000	-48.233791	-37.082746	-78.785593	-75.851589	-0.000000	0.000000	-0.000001	0.000001	6.424460	-0.320460	-0.747740	0.012695	0.724608	0.693297	-1.000000	-1.000000	-1.000000	-1.000000	-1.000000	-1.000000	-1.000000	139.103448	0.000000	-1.000000	-1.000000	435698.000000	1772918900.876471
-4768.515000	22637.205000	-18573.840000	-14875.740000	0.000000	0.000000	0.000000	0.000000	-70.259096	-54.466020	-98.180018	-103.681506	-0.000000	0.000000	-0.000001	0.000001	6.424460	-0.320460	-0.747740	0.012695	0.724608	0.693297	-1.000000	-1.000000	-1.000000	-1.000000	-1.000000	-1.000000	-1.000000	139.103448	0.000000	-1.000000	-1.000000	435699.000000	1772918900.876474
-4685.490000	22527.855000	-18490.905000	-14788.755000	0.000000	0.000000	0.000000	0.000000	-52.996416	-56.807622	-59.783082	-71.198821	-0.000000	0.000000	-0.000001	0.000001	6.424460	-0.320460	-0.747740	0.012695	0.724608	0.693297	-1.000000	-1.000000	-1.000000	-1.000000	-1.000000	-1.000000	-1.000000	139.103448	0.000000	-1.000000	-1.000000	435700.000000	1772918900.876478
-4559.400000	22474.665000	-18394.920000	-14676.390000	0.000000	0.000000	0.000000	0.000000	-3.784374	-49.341040	14.084718	3.370617	-0.000000	0.000000	-0.000001	0.000001	6.424460	-0.320460	-0.747740	0.012695	0.724608	0.693297	-1.000000	-1.000000	-1.000000	-1.000000	-1.000000	-1.000000	-1.000000	139.103448	0.000000	-1.000000	-1.000000	435701.000000	1772918900.876480
-4592.520000	22580.775000	-18418.995000	-14696.145000	0.000000	0.000000	0.000000	0.000000	51.531300	-27.687986	80.673331	76.900917	-0.000000	0.000000	-0.000001	0.000001	6.424460	-0.320460	-0.747740	0.012695	0.724608	0.693297	-1.000000	-1.000000	-1.000000	-1.000000	-1.000000	-1.000000	-1.000000	139.103448	0.000000	-1.000000	-1.000000	435702.000000	1772918900.876484
-4637.835000	22649.355000	-18463.995000	-14750.595000	0.000000	0.000000	0.000000	0.000000	78.825345	15.548289	101.479347	106.189827	-0.000000	0.000000	-0.000001	0.000001	6.424460	-0.320460	-0.747740	0.012695	0.724608	0.693297	-1.000000	-1.000000	-1.000000	-1.000000	-1.000000	-1.000000	-1.000000	139.103448	0.000000	-1.000000	-1.000000	435703.000000	1772918900.876486
-4683.420000	22661.910000	-18528.030000	-14813.775000	0.000000	0.000000	0.000000	0.000000	58.194404	70.720570	64.716444	73.790052	-0.000000	0.000000	-0.000001	0.000001	6.165040	-0.640920	-1.068200	0.011475	0.723570	0.692137	-1.000000	-1.000000	-1.000000	-1.000000	-1.000000	-1.000000	-1.000000	139.103448	0.000000	-1.000000	-1.000000	435704.000000	1772918900.876489
-4742.955000	22552.020000	-18642.645000	-14918.805000	0.000000	0.000000	0.000000	0.000000	1.713714	105.961640	-8.345668	-0.852851	-0.000000	0.000000	-0.000001	0.000001	6.165040	-0.640920	-1.068200	0.011475	0.723570	0.692137	-1.000000	-1.000000	-1.000000	-1.000000	-1.000000	-1.000000	-1.000000	139.103448	0.000000	-1.000000	-1.000000	435705.000000	1772918900.876492
-4750.695000	22409.190000	-18625.680000	-14917.815000	0.000000	0.000000	0.000000	0.000000	-56.412508	90.414027	-77.995327	-75.496614	-0.000000	0.000000	-0.000001	0.000001	6.165040	-0.640920	-1.068200	0.011475	0.723570	0.692137	-1.000000	-1.000000	-1.000000	-1.000000	-1.000000	-1.000000	-1.000000	139.103448	0.000000	-1.000000	-1.000000	435706.000000	1772918900.876495
-4766.535000	22462.560000	-18571.725000	-14883.390000	0.000000	0.000000	0.000000	0.000000	-84.186493	26.519888	-106.120676	-109.305996	-0.000000	0.000000	-0.000001	0.000001	6.165040	-0.640920	-1.068200	0.011475	0.723570	0.692137	-1.000000	-1.000000	-1.000000	-1.000000	-1.000000	-1.000000	-1.000000	139.103448	0.000000	-1.000000	-1.000000	435707.000000	1772918900.876497
-4711.950000	22498.650000	-18522.585000	-14835.510000	0.000000	0.000000	0.000000	0.000000	-69.110742	-43.518253	-76.564683	-84.620357	-0.000000	0.000000	-0.000001	0.000001	6.165040	-0.640920	-1.068200	0.011475	0.723570	0.692137	-1.000000	-1.000000	-1.000000	-1.000000	-1.000000	-1.000000	-1.000000	139.103448	0.000000	-1.000000	-1.000000	435708.000000	1772918900.876500
-4580.595000	22380.975000	-18425.520000	-14702.805000	0.000000	0.000000	0.000000	0.000000	-19.376864	-76.922632	-6.480164	-15.829111	-0.000000	0.000000	-0.000001	0.000000	6.165040	-0.640920	-1.068200	0.011475	0.723570	0.692137	-1.000000	-1.000000	-1.000000	-1.000000	-1.000000	-1.000000	-1.000000	139.103448	0.000000	-1.000000	-1.000000	435709.000000	1772918900.876502
-4547.565000	22285.395000	-18383.715000	-14650.560000	0.000000	0.000000	0.000000	0.000000	43.054748	-70.235101	66.095991	62.031879	-0.000000	0.000000	-0.000001	0.000000	6.165040	-0.640920	-1.068200	0.011475	0.723570	0.692137	-1.000000	-1.000000	-1.000000	-1.000000	-1.000000	-1.000000	-1.000000	139.103448	0.000000	-1.000000	-1.000000	435710.000000	1772918900.876505
-4600.080000	22300.695000	-18428.580000	-14699.385000	0.000000	0.000000	0.000000	0.000000	86.688519	-45.422200	104.034210	109.758380	-0.000000	0.000000	-0.000001	0.000000	6.165040	-0.640920	-1.068200	0.011475	0.723570	0.692137	-1.000000	-1.000000	-1.000000	-1.000000	-1.000000	-1.000000	-1.000000	139.103448	0.000000	-1.000000	-1.000000	435711.000000	1772918900.876507
-4654.530000	22404.330000	-18497.610000	-14773.320000	0.000000	0.000000	0.000000	0.000000	84.215305	-14.107224	87.534628	100.281997	-0.000000	0.000000	-0.000001	0.000000	6.165040	-0.640920	-1.068200	0.011475	0.723570	0.692137	-1.000000	-1.000000	-1.000000	-1.000000	-1.000000	-1.000000	-1.000000	139.103448	0.000000	-1.000000	-1.000000	435712.000000	1772918900.876511
-4738.185000	22492.080000	-18612.540000	-14898.555000	0.000000	0.000000	0.000000	0.000000	34.389279	25.001816	24.337675	35.862812	-0.000000	0.000000	-0.000001	0.000000	6.165040	-0.640920	-1.068200	0.011475	0.723570	0.692137	-1.000000	-1.000000	-1.000000	-1.000000	-1.000000	-1.000000	-1.000000	139.103448	0.000000	-1.000000	-1.000000	435713.000000	1772918900.876513
-4796.280000	22553.505000	-18668.295000	-14969.025000	0.000000	0.000000	0.000000	0.000000	-35.002581	65.411559	-53.274407	-50.437300	-0.000000	0.000000	-0.000001	0.000000	7.080640	-0.595140	-0.656180	0.011780	0.722593	0.692198	-1.000000	-1.000000	-1.000000	-1.000000	-1.000000	-1.000000	-1.000000	139.103448	0.000000	-1.000000	-1.000000	435714.000000	1772918900.876516
-4778.280000	22593.420000	-18629.190000	-14930.505000	0.000000	0.000000	0.000000	0.000000	-85.490231	87.705138	-104.090562	-111.945716	-0.000000	0.000000	-0.000001	0.000000	7.080640	-0.595140	-0.656180	0.011780	0.722593	0.692198	-1.000000	-1.000000	-1.000000	-1.000000	-1.000000	-1.000000	-1.000000	139.103448	0.000000	-1.000000	-1.000000	435715.000000	1772918900.876518
-4735.485000	22586.985000	-18579.735000	-14876.865000	0.000000	0.000000	0.000000	0.000000	-89.476660	75.190604	-99.281001	-113.412793	-0.000000	0.000000	-0.000001	0.000000	7.080640	-0.595140	-0.656180	0.011780	0.722593	0.692198	-1.000000	-1.000000	-1.000000	-1.000000	-1.000000	-1.000000	-1.000000	139.103448	0.000000	-1.000000	-1.000000	435716.000000	1772918900.876521
-4656.465000	22564.485000	-18477.810000	-14774.040000	0.000000	0.000000	0.000000	0.000000	-45.016643	28.237135	-40.443220	-52.950002	-0.000000	0.000000	-0.000001	0.000000	7.080640	-0.595140	-0.656180	0.011780	0.722593	0.692198	-1.000000	-1.000000	-1.000000	-1.000000	-1.000000	-1.000000	-1.000000	139.103448	0.000000	-1.000000	-1.000000	435717.000000	1772918900.876524
-4593.420000	22535.010000	-18398.295000	-14681.880000	0.000000	0.000000	0.000000	0.000000	23.815556	-34.659865	41.323573	36.925803	-0.000000	0.000000	-0.000001	0.000000	7.080640	-0.595140	-0.656180	0.011780	0.722593	0.692198	-1.000000	-1.000000	-1.000000	-1.000000	-1.000000	-1.000000	-1.000000	139.103448	0.000000	-1.000000	-1.000000	435718.000000	1772918900.876527
-4627.980000	22553.370000	-18438.705000	-14717.520000	0.000000	0.000000	0.000000	0.000000	80.132186	-85.931568	102.936552	108.524627	-0.000000	0.000000	-0.000001	0.000000	7.080640	-0.595140	-0.656180	0.011780	0.722593	0.692198	-1.000000	-1.000000	-1.000000	-1.000000	-1.000000	-1.000000	-1.000000	139.103448	0.000000	-1.000000	-1.000000	435719.000000	1772918900.876529
-4649.220000	22581.180000	-18492.570000	-14769.045000	0.000000	0.000000	0.000000	0.000000	93.417666	-102.475634	110.516997	123.078281	-0.000000	0.000000	-0.000001	0.000000	7.080640	-0.595140	-0.656180	0.011780	0.722593	0.692198	-1.000000	-1.000000	-1.000000	-1.000000	-1.000000	-1.000000	-1.000000	139.103448	0.000000	-1.000000	-1.000000	435720.000000	1772918900.876533
-4716.090000	22494.645000	-18564.120000	-14837.220000	0.000000	0.000000	0.000000	0.000000	57.671295	-80.272030	59.459542	73.001787	-0.000000	0.000000	-0.000001	0.000000	7.080640	-0.595140	-0.656180	0.011780	0.722593	0.692198	-1.000000	-1.000000	-1.000000	-1.000000	-1.000000	-1.000000	-1.000000	139.103448	0.000000	-1.000000	-1.000000	435721.000000	1772918900.876535
-4763.025000	22348.395000	-18628.065000	-14920.875000	0.000000	0.000000	0.000000	0.000000	-5.726633	-39.952561	-21.368993	-12.938149	-0.000000	0.000000	-0.000001	0.000000	7.080640	-0.595140	-0.656180	0.011780	0.722593	0.692198	-1.000000	-1.000000	-1.000000	-1.000000	-1.000000	-1.000000	-1.000000	139.103448	0.000000	-1.000000	-1.000000	435722.000000	1772918900.876539
-4708.395000	22271.625000	-18592.110000	-14891.895000	0.000000	0.000000	0.000000	0.000000	-61.537563	-8.915762	-87.664142	-88.258493	-0.000000	0.000000	-0.000001	0.000000	7.080640	-0.595140	-0.656180	0.011780	0.722593	0.692198	-1.000000	-1.000000	-1.000000	-1.000000	-1.000000	-1.000000	-1.000000	139.103448	0.000000	-1.000000	-1.000000	435723.000000	1772918900.876541
-4684.770000	22196.070000	-18540.990000	-14837.130000	0.000000	0.000000	0.000000	0.000000	-79.682213	4.285059	-104.447079	-113.887771	-0.000000	0.000000	-0.000001	0.000000	7.446880	-0.335720	-0.518840	0.012878	0.723448	0.692869	-1.000000	-1.000000	-1.000000	-1.000000	-1.000000	-1.000000	-1.000000	139.103448	0.000000	-1.000000	-1.000000	435724.000000	1772918900.876544
-4642.155000	22219.605000	-18478.215000	-14771.745000	0.000000	0.000000	0.000000	0.000000	-53.734685	12.014598	-65.361063	-78.705268	-0.000000	0.000000	-0.000001	0.000000	7.446880	-0.335720	-0.518840	0.012878	0.723448	0.692869	-1.000000	-1.000000	-1.000000	-1.000000	-1.000000	-1.000000	-1.000000	139.103448	0.000000	-1.000000	-1.000000	435725.000000	1772918900.876546
-4610.115000	22209.570000	-18375.525000	-14651.955000	0.000000	0.000000	0.000000	0.000000	-3.721753	28.914780	5.319475	-4.739125	-0.000000	0.000000	-0.000001	0.000000	7.446880	-0.335720	-0.518840	0.012878	0.723448	0.692869	-1.000000	-1.000000	-1.000000	-1.000000	-1.000000	-1.000000	-1.000000	139.103448	0.000000	-1.000000	-1.000000	435726.000000	1772918900.876549
-4598.550000	22155.660000	-18379.395000	-14653.845000	0.000000	0.000000	0.000000	0.000000	40.611009	54.097969	69.407039	67.873326	-0.000000	0.000000	-0.000001	0.000000	7.446880	-0.335720	-0.518840	0.012878	0.723448	0.692869	-1.000000	-1.000000	-1.000000	-1.000000	-1.000000	-1.000000	-1.000000	139.103448	0.000000	-1.000000	-1.000000	435727.000000	1772918900.876551
-4590.000000	22168.395000	-18424.035000	-14708.340000	0.000000	0.000000	0.000000	0.000000	58.118189	71.719250	93.690857	100.700614	-0.000000	0.000000	-0.000001	0.000000	7.446880	-0.335720	-0.518840	0.012878	0.723448	0.692869	-1.000000	-1.000000	-1.000000	-1.000000	-1.000000	-1.000000	-1.000000	139.103448	0.000000	-1.000000	-1.000000	435728.000000	1772918900.876554
-4648.995000	22223.925000	-18509.940000	-14790.870000	0.000000	0.000000	0.000000	0.000000	44.098237	70.400418	65.230025	75.620708	-0.000000	0.000000	-0.000001	0.000000	7.446880	-0.335720	-0.518840	0.012878	0.723448	0.692869	-1.000000	-1.000000	-1.000000	-1.000000	-1.000000	-1.000000	-1.000000	139.103448	0.000000	-1.000000	-1.000000	435729.000000	1772918900.876556
-4756.500000	22335.165000	-18657.630000	-14937.480000	0.000000	0.000000	0.000000	0.000000	6.808414	54.959243	-1.662177	5.935199	-0.000000	0.000000	-0.000001	0.000000	7.446880	-0.335720	-0.518840	0.012878	0.723448	0.692869	-1.000000	-1.000000	-1.000000	-1.000000	-1.000000	-1.000000	-1.000000	139.103448	0.000000	-1.000000	-1.000000	435730.000000	1772918900.876559
-4743.405000	22345.965000	-18648.270000	-14945.085000	0.000000	0.000000	0.000000	0.000000	-36.635687	35.728502	-72.199957	-70.695193	-0.000000	0.000000	-0.000001	0.000000	7.446880	-0.335720	-0.518840	0.012878	0.723448	0.692869	-1.000000	-1.000000	-1.000000	-1.000000	-1.000000	-1.000000	-1.000000	139.103448	0.000000	-1.000000	-1.000000	435731.000000	1772918900.876560
-4729.680000	22324.410000	-18592.290000	-14886.945000	0.000000	0.000000	0.000000	0.000000	-62.323365	13.531536	-105.693178	-110.270976	-0.000000	0.000000	-0.000001	0.000000	7.446880	-0.335720	-0.518840	0.012878	0.723448	0.692869	-1.000000	-1.000000	-1.000000	-1.000000	-1.000000	-1.000000	-1.000000	139.103448	0.000000	-1.000000	-1.000000	435732.000000	1772918900.876563
-4721.355000	22364.685000	-18535.545000	-14831.955000	0.000000	0.000000	0.000000	0.000000	-53.536810	-15.983820	-79.190478	-87.236065	-0.000000	0.000000	-0.000001	0.000000	7.446880	-0.335720	-0.518840	0.012878	0.723448	0.692869	-1.000000	-1.000000	-1.000000	-1.000000	-1.000000	-1.000000	-1.000000	139.103448	0.000000	-1.000000	-1.000000	435733.000000	1772918900.876565
-4639.185000	22446.405000	-18439.920000	-14728.995000	0.000000	0.000000	0.000000	0.000000	-14.796146	-46.137904	-6.258131	-13.520170	-0.000000	0.000000	-0.000001	0.000000	5.859840	-0.030520	-0.412020	0.014038	0.725157	0.691466	-1.000000	-1.000000	-1.000000	-1.000000	-1.000000	-1.000000	-1.000000	139.103448	0.000000	-1.000000	-1.000000	435734.000000	1772918900.876568
-4645.170000	22619.205000	-18449.865000	-14725.395000	0.000000	0.000000	0.000000	0.000000	32.898929	-58.896620	71.677364	69.191381	-0.000000	0.000000	-0.000001	0.000000	5.859840	-0.030520	-0.412020	0.014038	0.725157	0.691466	-1.000000	-1.000000	-1.000000	-1.000000	-1.000000	-1.000000	-1.000000	139.103448	0.000000	-1.000000	-1.000000	435735.000000	1772918900.876570
-4672.845000	22649.310000	-18493.155000	-14768.955000	0.000000	0.000000	0.000000	0.000000	63.960934	-44.069148	110.949166	114.942954	-0.000000	0.000000	-0.000001	0.000000	5.859840	-0.030520	-0.412020	0.014038	0.725157	0.691466	-1.000000	-1.000000	-1.000000	-1.000000	-1.000000	-1.000000	-1.000000	139.103448	0.000000	-1.000000	-1.000000	435736.000000	1772918900.876573
-4697.730000	22590.945000	-18531.270000	-14812.605000	0.000000	0.000000	0.000000	0.000000	61.280491	-16.387175	91.076402	99.567975	-0.000000	0.000000	-0.000001	0.000000	5.859840	-0.030520	-0.412020	0.014038	0.725157	0.691466	-1.000000	-1.000000	-1.000000	-1.000000	-1.000000	-1.000000	-1.000000	139.103448	0.000000	-1.000000	-1.000000	435737.000000	1772918900.876575
-4739.400000	22524.435000	-18613.260000	-14907.780000	0.000000	0.000000	0.000000	0.000000	27.885873	-4.755853	26.340257	34.244119	-0.000000	0.000000	-0.000001	0.000000	5.859840	-0.030520	-0.412020	0.014038	0.725157	0.691466	-1.000000	-1.000000	-1.000000	-1.000000	-1.000000	-1.000000	-1.000000	139.103448	0.000000	-1.000000	-1.000000	435738.000000	1772918900.876578
-4776.705000	22464.900000	-18641.745000	-14949.180000	0.000000	0.000000	0.000000	0.000000	-16.442436	-21.305498	-46.685356	-44.556833	-0.000000	0.000000	-0.000000	0.000000	5.859840	-0.030520	-0.412020	0.014038	0.725157	0.691466	-1.000000	-1.000000	-1.000000	-1.000000	-1.000000	-1.000000	-1.000000	139.103448	0.000000	-1.000000	-1.000000	435739.000000	1772918900.876579
-4750.740000	22449.330000	-18607.005000	-14910.660000	0.000000	0.000000	0.000000	0.000000	-48.490270	-49.342290	-90.843846	-96.232703	-0.000000	0.000000	-0.000000	0.000000	5.859840	-0.030520	-0.412020	0.014038	0.725157	0.691466	-1.000000	-1.000000	-1.000000	-1.000000	-1.000000	-1.000000	-1.000000	139.103448	0.000000	-1.000000	-1.000000	435740.000000	1772918900.876582
-4720.455000	22424.355000	-18567.990000	-14858.415000	0.000000	0.000000	0.000000	0.000000	-52.504557	-61.102075	-85.626127	-95.086230	-0.000000	0.000000	-0.000000	0.000000	5.859840	-0.030520	-0.412020	0.014038	0.725157	0.691466	-1.000000	-1.000000	-1.000000	-1.000000	-1.000000	-1.000000	-1.000000	139.103448	0.000000	-1.000000	-1.000000	435741.000000	1772918900.876584
-4640.715000	22416.345000	-18473.130000	-14754.150000	0.000000	0.000000	0.000000	0.000000	-27.235978	-42.032526	-36.714791	-43.587231	-0.000000	0.000000	-0.000000	0.000000	5.859840	-0.030520	-0.412020	0.014038	0.725157	0.691466	-1.000000	-1.000000	-1.000000	-1.000000	-1.000000	-1.000000	-1.000000	139.103448	0.000000	-1.000000	-1.000000	435742.000000	1772918900.877460
-4567.140000	22345.515000	-18392.670000	-14663.790000	0.000000	0.000000	0.000000	0.000000	14.025369	-0.672138	29.350364	30.140438	-0.000000	0.000000	-0.000000	0.000000	5.859840	-0.030520	-0.412020	0.014038	0.725157	0.691466	-1.000000	-1.000000	-1.000000	-1.000000	-1.000000	-1.000000	-1.000000	139.103448	0.000000	-1.000000	-1.000000	435743.000000	1772918900.877463
-4610.385000	22351.770000	-18424.305000	-14704.515000	0.000000	0.000000	0.000000	0.000000	48.912625	40.889194	78.964474	87.187022	-0.000000	0.000000	-0.000000	0.000000	5.768280	0.259420	-0.686700	0.014404	0.725950	0.691282	-1.000000	-1.000000	-1.000000	-1.000000	-1.000000	-1.000000	-1.000000	139.103448	0.000000	-1.000000	-1.000000	435744.000000	1772918900.881454
-4652.820000	22389.345000	-18472.770000	-14757.030000	0.000000	0.000000	0.000000	0.000000	54.981916	66.406603	85.193643	95.471337	-0.000000	0.000000	-0.000000	0.000000	5.768280	0.259420	-0.686700	0.014404	0.725950	0.691282	-1.000000	-1.000000	-1.000000	-1.000000	-1.000000	-1.000000	-1.000000	139.103448	0.000000	-1.000000	-1.000000	435745.000000	1772918900.881456
-4721.445000	22426.020000	-18573.435000	-14859.855000	0.000000	0.000000	0.000000	0.000000	25.110567	74.017295	42.757076	48.532440	-0.000000	0.000000	-0.000000	0.000000	5.768280	0.259420	-0.686700	0.014404	0.725950	0.691282	-1.000000	-1.000000	-1.000000	-1.000000	-1.000000	-1.000000	-1.000000	139.103448	0.000000	-1.000000	-1.000000	435746.000000	1772918900.920501
-4775.175000	22399.560000	-18650.025000	-14950.170000	0.000000	0.000000	0.000000	0.000000	-24.552987	66.831471	-26.563995	-28.642074	-0.000000	0.000000	-0.000000	0.000000	5.768280	0.259420	-0.686700	0.014404	0.725950	0.691282	-1.000000	-1.000000	-1.000000	-1.000000	-1.000000	-1.000000	-1.000000	139.103448	0.000000	-1.000000	-1.000000	435747.000000	1772918900.920507
-4741.965000	22292.865000	-18600.885000	-14900.715000	0.000000	0.000000	0.000000	0.000000	-64.448407	43.426851	-84.448992	-93.236614	-0.000000	0.000000	-0.000000	0.000000	5.768280	0.259420	-0.686700	0.014404	0.725950	0.691282	-1.000000	-1.000000	-1.000000	-1.000000	-1.000000	-1.000000	-1.000000	139.103448	0.000000	-1.000000	-1.000000	435748.000000	1772918900.925757
-4707.180000	22221.810000	-18542.745000	-14848.380000	0.000000	0.000000	0.000000	0.000000	-69.481236	2.895852	-95.992714	-107.172111	-0.000000	0.000000	-0.000000	0.000000	5.768280	0.259420	-0.686700	0.014404	0.725950	0.691282	-1.000000	-1.000000	-1.000000	-1.000000	-1.000000	-1.000000	-1.000000	139.103448	0.000000	-1.000000	-1.000000	435749.000000	1772918900.925760
-4664.565000	22277.520000	-18475.380000	-14781.645000	0.000000	0.000000	0.000000	0.000000	-35.458947	-41.431535	-52.823551	-61.335729	-0.000000	0.000000	-0.000000	0.000000	5.768280	0.259420	-0.686700	0.014404	0.725950	0.691282	-1.000000	-1.000000	-1.000000	-1.000000	-1.000000	-1.000000	-1.000000	139.103448	0.000000	-1.000000	-1.000000	435750.000000	1772918900.925763
-4597.875000	22360.770000	-18418.500000	-14689.035000	0.000000	0.000000	0.000000	0.000000	18.322062	-62.532271	19.528546	17.641839	-0.000000	0.000000	-0.000000	0.000000	5.768280	0.259420	-0.686700	0.014404	0.725950	0.691282	-1.000000	-1.000000	-1.000000	-1.000000	-1.000000	-1.000000	-1.000000	139.103448	0.000000	-1.000000	-1.000000	435751.000000	1772918900.925766
-4612.050000	22395.105000	-18435.915000	-14704.065000	0.000000	0.000000	0.000000	0.000000	62.849075	-44.231600	79.401058	86.258454	-0.000000	0.000000	-0.000000	0.000000	5.768280	0.259420	-0.686700	0.014404	0.725950	0.691282	-1.000000	-1.000000	-1.000000	-1.000000	-1.000000	-1.000000	-1.000000	139.103448	0.000000	-1.000000	-1.000000	435752.000000	1772918900.925768
-4670.730000	22440.960000	-18481.815000	-14759.010000	0.000000	0.000000	0.000000	0.000000	74.358704	-0.028933	94.294911	108.087566	-0.000000	0.000000	-0.000000	0.000000	5.768280	0.259420	-0.686700	0.014404	0.725950	0.691282	-1.000000	-1.000000	-1.000000	-1.000000	-1.000000	-1.000000	-1.000000	139.103448	0.000000	-1.000000	-1.000000	435753.000000	1772918900.925771
-4695.075000	22464.495000	-18549.405000	-14834.250000	0.000000	0.000000	0.000000	0.000000	46.376846	39.451240	58.104545	71.969445	-0.000000	0.000000	-0.000000	0.000000	5.066320	0.137340	-0.854560	0.012939	0.725218	0.690672	-1.000000	-1.000000	-1.000000	-1.000000	-1.000000	-1.000000	-1.000000	139.103448	0.000000	-1.000000	-1.000000	435754.000000	1772918900.925774
-4775.805000	22454.955000	-18653.760000	-14952.105000	0.000000	0.000000	0.000000	0.000000	-5.124845	51.058547	-7.976795	-2.036377	-0.000000	0.000000	-0.000000	0.000000	5.066320	0.137340	-0.854560	0.012939	0.725218	0.690672	-1.000000	-1.000000	-1.000000	-1.000000	-1.000000	-1.000000	-1.000000	139.103448	0.000000	-1.000000	-1.000000	435755.000000	1772918900.925776
-4780.485000	22452.165000	-18643.905000	-14948.055000	0.000000	0.000000	0.000000	0.000000	-52.343788	30.927876	-68.936372	-74.541358	-0.000000	0.000000	-0.000000	0.000000	5.066320	0.137340	-0.854560	0.012939	0.725218	0.690672	-1.000000	-1.000000	-1.000000	-1.000000	-1.000000	-1.000000	-1.000000	139.103448	0.000000	-1.000000	-1.000000	435756.000000	1772918900.925779
-4767.030000	22521.735000	-18624.105000	-14914.080000	0.000000	0.000000	0.000000	0.000000	-71.432060	-5.754273	-92.562414	-106.540943	-0.000000	0.000000	-0.000000	0.000000	5.066320	0.137340	-0.854560	0.012939	0.725218	0.690672	-1.000000	-1.000000	-1.000000	-1.000000	-1.000000	-1.000000	-1.000000	139.103448	0.000000	-1.000000	-1.000000	435757.000000	1772918900.925781
-4714.920000	22463.595000	-18539.235000	-14831.550000	0.000000	0.000000	0.000000	0.000000	-53.107603	-36.512232	-65.696314	-80.017225	-0.000000	0.000000	-0.000000	0.000000	5.066320	0.137340	-0.854560	0.012939	0.725218	0.690672	-1.000000	-1.000000	-1.000000	-1.000000	-1.000000	-1.000000	-1.000000	139.103448	0.000000	-1.000000	-1.000000	435758.000000	1772918900.925784
-4599.810000	22311.990000	-18402.525000	-14684.985000	0.000000	0.000000	0.000000	0.000000	-6.032447	-52.259607	-1.271731	-8.385025	-0.000000	0.000000	-0.000000	0.000000	5.066320	0.137340	-0.854560	0.012939	0.725218	0.690672	-1.000000	-1.000000	-1.000000	-1.000000	-1.000000	-1.000000	-1.000000	139.103448	0.000000	-1.000000	-1.000000	435759.000000	1772918900.925786
-4565.520000	22295.475000	-18406.845000	-14671.170000	0.000000	0.000000	0.000000	0.000000	47.904151	-58.666936	68.358795	71.386171	-0.000000	0.000000	-0.000000	0.000000	5.066320	0.137340	-0.854560	0.012939	0.725218	0.690672	-1.000000	-1.000000	-1.000000	-1.000000	-1.000000	-1.000000	-1.000000	139.103448	0.000000	-1.000000	-1.000000	435760.000000	1772918900.925789
-4604.580000	22325.670000	-18459.675000	-14729.355000	0.000000	0.000000	0.000000	0.000000	80.645328	-54.572171	104.129411	115.207616	-0.000000	0.000000	-0.000000	0.000000	5.066320	0.137340	-0.854560	0.012939	0.725218	0.690672	-1.000000	-1.000000	-1.000000	-1.000000	-1.000000	-1.000000	-1.000000	139.103448	0.000000	-1.000000	-1.000000	435761.000000	1772918900.925791
-4673.790000	22389.345000	-18508.545000	-14794.920000	0.000000	0.000000	0.000000	0.000000	70.569724	-28.978880	82.576113	95.596231	-0.000000	0.000000	-0.000000	0.000000	5.066320	0.137340	-0.854560	0.012939	0.725218	0.690672	-1.000000	-1.000000	-1.000000	-1.000000	-1.000000	-1.000000	-1.000000	139.103448	0.000000	-1.000000	-1.000000	435762.000000	1772918900.925794
-4767.750000	22347.810000	-18613.080000	-14905.620000	0.000000	0.000000	0.000000	0.000000	18.867638	16.685051	14.607046	22.003123	-0.000000	0.000000	-0.000000	0.000000	5.066320	0.137340	-0.854560	0.012939	0.725218	0.690672	-1.000000	-1.000000	-1.000000	-1.000000	-1.000000	-1.000000	-1.000000	139.103448	0.000000	-1.000000	-1.000000	435763.000000	1772918900.925796
-4744.485000	22194.945000	-18628.920000	-14927.940000	0.000000	0.000000	0.000000	0.000000	-46.678540	57.157354	-62.094101	-64.633758	-0.000000	0.000000	-0.000000	0.000000	5.753020	0.305200	-0.442540	0.013000	0.722654	0.692076	-1.000000	-1.000000	-1.000000	-1.000000	-1.000000	-1.000000	-1.000000	139.103448	0.000000	-1.000000	-1.000000	435764.000000	1772918900.925799
-4723.290000	22187.745000	-18566.055000	-14880.870000	0.000000	0.000000	0.000000	0.000000	-86.988460	64.219692	-105.425481	-116.358534	-0.000000	0.000000	-0.000000	0.000000	5.753020	0.305200	-0.442540	0.013000	0.722654	0.692076	-1.000000	-1.000000	-1.000000	-1.000000	-1.000000	-1.000000	-1.000000	139.103448	0.000000	-1.000000	-1.000000	435765.000000	1772918900.925801
-4702.500000	22250.745000	-18526.410000	-14839.695000	0.000000	0.000000	0.000000	0.000000	-78.837048	39.516885	-91.530248	-105.270236	-0.000000	0.000000	-0.000000	0.000000	5.753020	0.305200	-0.442540	0.013000	0.722654	0.692076	-1.000000	-1.000000	-1.000000	-1.000000	-1.000000	-1.000000	-1.000000	139.103448	0.000000	-1.000000	-1.000000	435766.000000	1772918900.925804
-4622.760000	22244.895000	-18448.740000	-14732.865000	0.000000	0.000000	0.000000	0.000000	-30.142158	11.532027	-30.085244	-39.700300	-0.000000	0.000000	-0.000000	0.000000	5.753020	0.305200	-0.442540	0.013000	0.722654	0.692076	-1.000000	-1.000000	-1.000000	-1.000000	-1.000000	-1.000000	-1.000000	139.103448	0.000000	-1.000000	-1.000000	435767.000000	1772918900.925806
-4578.930000	22213.305000	-18382.365000	-14653.755000	0.000000	0.000000	0.000000	0.000000	30.915353	-0.439463	43.715660	44.273018	-0.000000	0.000000	-0.000000	0.000000	5.753020	0.305200	-0.442540	0.013000	0.722654	0.692076	-1.000000	-1.000000	-1.000000	-1.000000	-1.000000	-1.000000	-1.000000	139.103448	0.000000	-1.000000	-1.000000	435768.000000	1772918900.928743
-4603.725000	22160.295000	-18410.490000	-14682.285000	0.000000	0.000000	0.000000	0.000000	73.467711	-1.521348	91.891663	104.052646	-0.000000	0.000000	-0.000000	0.000000	5.753020	0.305200	-0.442540	0.013000	0.722654	0.692076	-1.000000	-1.000000	-1.000000	-1.000000	-1.000000	-1.000000	-1.000000	139.103448	0.000000	-1.000000	-1.000000	435769.000000	1772918900.928746
-4622.220000	22044.285000	-18438.840000	-14718.465000	0.000000	0.000000	0.000000	0.000000	76.799659	-6.031972	91.338733	109.383436	-0.000000	0.000000	-0.000000	0.000000	5.753020	0.305200	-0.442540	0.013000	0.722654	0.692076	-1.000000	-1.000000	-1.000000	-1.000000	-1.000000	-1.000000	-1.000000	139.103448	0.000000	-1.000000	-1.000000	435770.000000	1772918900.934315
-4669.290000	22013.910000	-18551.070000	-14836.095000	0.000000	0.000000	0.000000	0.000000	41.227948	-19.898754	43.476152	57.590215	-0.000000	0.000000	-0.000000	0.000000	5.753020	0.305200	-0.442540	0.013000	0.722654	0.692076	-1.000000	-1.000000	-1.000000	-1.000000	-1.000000	-1.000000	-1.000000	139.103448	0.000000	-1.000000	-1.000000	435771.000000	1772918900.934318
-4739.445000	22005.810000	-18636.480000	-14934.915000	0.000000	0.000000	0.000000	0.000000	-13.084234	-33.674516	-27.700307	-25.043057	-0.000000	0.000000	-0.000000	0.000000	5.753020	0.305200	-0.442540	0.013000	0.722654	0.692076	-1.000000	-1.000000	-1.000000	-1.000000	-1.000000	-1.000000	-1.000000	139.103448	0.000000	-1.000000	-1.000000	435772.000000	1772918900.936824
-4727.340000	21907.845000	-18588.960000	-14887.800000	0.000000	0.000000	0.000000	0.000000	-58.917224	-33.572415	-86.045244	-95.873375	-0.000000	0.000000	-0.000000	0.000000	5.753020	0.305200	-0.442540	0.013000	0.722654	0.692076	-1.000000	-1.000000	-1.000000	-1.000000	-1.000000	-1.000000	-1.000000	139.103448	0.000000	-1.000000	-1.000000	435773.000000	1772918900.936827
-4667.805000	21860.595000	-18533.745000	-14829.480000	0.000000	0.000000	0.000000	0.000000	-73.207027	-18.868639	-98.239117	-115.060196	-0.000000	0.000000	-0.000000	0.000000	8.301440	0.000000	-0.518840	0.012817	0.723082	0.694639	-1.000000	-1.000000	-1.000000	-1.000000	-1.000000	-1.000000	-1.000000	139.103448	0.000000	-1.000000	-1.000000	435774.000000	1772918900.943381
-4579.920000	21814.695000	-18435.645000	-14727.195000	0.000000	0.000000	0.000000	0.000000	-47.060128	0.592299	-54.917874	-70.124979	-0.000000	0.000000	-0.000000	0.000000	8.301440	0.000000	-0.518840	0.012817	0.723082	0.694639	-1.000000	-1.000000	-1.000000	-1.000000	-1.000000	-1.000000	-1.000000	139.103448	0.000000	-1.000000	-1.000000	435775.000000	1772918900.943384
-4493.925000	21792.960000	-18336.870000	-14614.245000	0.000000	0.000000	0.000000	0.000000	6.988764	17.323873	20.766846	14.197770	-0.000000	0.000000	-0.000000	0.000000	8.301440	0.000000	-0.518840	0.012817	0.723082	0.694639	-1.000000	-1.000000	-1.000000	-1.000000	-1.000000	-1.000000	-1.000000	139.103448	0.000000	-1.000000	-1.000000	435776.000000	1772918900.945809
-4545.675000	21844.080000	-18375.345000	-14646.645000	0.000000	0.000000	0.000000	0.000000	58.469703	30.119860	86.822173	91.220788	-0.000000	0.000000	-0.000000	0.000000	8.301440	0.000000	-0.518840	0.012817	0.723082	0.694639	-1.000000	-1.000000	-1.000000	-1.000000	-1.000000	-1.000000	-1.000000	139.103448	0.000000	-1.000000	-1.000000	435777.000000	1772918900.945812
-4633.065000	21914.325000	-18440.055000	-14712.525000	0.000000	0.000000	0.000000	0.000000	73.991635	41.640808	104.669737	117.048561	-0.000000	0.000000	-0.000000	0.000000	8.301440	0.000000	-0.518840	0.012817	0.723082	0.694639	-1.000000	-1.000000	-1.000000	-1.000000	-1.000000	-1.000000	-1.000000	139.103448	0.000000	-1.000000	-1.000000	435778.000000	1772918900.951408
-4698.180000	22026.510000	-18547.695000	-14825.970000	0.000000	0.000000	0.000000	0.000000	40.657893	53.065925	62.013775	75.666108	-0.000000	0.000000	-0.000000	0.000000	8.301440	0.000000	-0.518840	0.012817	0.723082	0.694639	-1.000000	-1.000000	-1.000000	-1.000000	-1.000000	-1.000000	-1.000000	139.103448	0.000000	-1.000000	-1.000000	435779.000000	1772918900.951411
-4779.045000	22001.085000	-18642.420000	-14942.250000	0.000000	0.000000	0.000000	0.000000	-21.348405	57.956400	-17.866218	-10.115385	-0.000000	0.000000	-0.000000	0.000000	8.301440	0.000000	-0.518840	0.012817	0.723082	0.694639	-1.000000	-1.000000	-1.000000	-1.000000	-1.000000	-1.000000	-1.000000	139.103448	0.000000	-1.000000	-1.000000	435780.000000	1772918900.954314
-4780.845000	22041.180000	-18634.860000	-14944.005000	0.000000	0.000000	0.000000	0.000000	-73.550743	44.228221	-89.938443	-92.341929	-0.000000	0.000000	-0.000000	0.000000	8.301440	0.000000	-0.518840	0.012817	0.723082	0.694639	-1.000000	-1.000000	-1.000000	-1.000000	-1.000000	-1.000000	-1.000000	139.103448	0.000000	-1.000000	-1.000000	435781.000000	1772918900.954317
-4736.700000	22121.460000	-18597.330000	-14900.445000	0.000000	0.000000	0.000000	0.000000	-84.541137	9.769221	-113.015816	-124.375993	-0.000000	0.000000	-0.000000	0.000000	8.301440	0.000000	-0.518840	0.012817	0.723082	0.694639	-1.000000	-1.000000	-1.000000	-1.000000	-1.000000	-1.000000	-1.000000	139.103448	0.000000	-1.000000	-1.000000	435782.000000	1772918900.957259
-4661.190000	22042.575000	-18509.130000	-14802.840000	0.000000	0.000000	0.000000	0.000000	-46.706625	-31.832722	-73.635044	-87.243935	-0.000000	0.000000	-0.000000	0.000000	8.301440	0.000000	-0.518840	0.012817	0.723082	0.694639	-1.000000	-1.000000	-1.000000	-1.000000	-1.000000	-1.000000	-1.000000	139.103448	0.000000	-1.000000	-1.000000	435783.000000	1772918900.957261
-4576.815000	21984.210000	-18383.580000	-14662.845000	0.000000	0.000000	0.000000	0.000000	20.647791	-67.546154	7.275348	-0.201745	-0.000000	0.000000	-0.000000	0.000000	8.637160	-0.564620	-1.327620	0.013306	0.723387	0.693846	-1.000000	-1.000000	-1.000000	-1.000000	-1.000000	-1.000000	-1.000000	139.103448	0.000000	-1.000000	-1.000000	435784.000000	1772918900.960874
-4577.895000	22019.310000	-18394.155000	-14658.975000	0.000000	0.000000	0.000000	0.000000	81.923852	-89.340308	87.347334	90.875887	-0.000000	0.000000	-0.000000	0.000000	8.637160	-0.564620	-1.327620	0.013306	0.723387	0.693846	-1.000000	-1.000000	-1.000000	-1.000000	-1.000000	-1.000000	-1.000000	139.103448	0.000000	-1.000000	-1.000000	435785.000000	1772918900.960877
-4596.570000	21996.360000	-18432.810000	-14707.395000	0.000000	0.000000	0.000000	0.000000	103.743590	-87.052737	123.049725	136.000726	-0.000000	0.000000	-0.000000	0.000000	8.637160	-0.564620	-1.327620	0.013306	0.723387	0.693846	-1.000000	-1.000000	-1.000000	-1.000000	-1.000000	-1.000000	-1.000000	139.103448	0.000000	-1.000000	-1.000000	435786.000000	1772918900.964882
-4648.770000	22023.765000	-18491.175000	-14783.670000	0.000000	0.000000	0.000000	0.000000	73.860138	-56.899531	94.013408	108.798948	-0.000000	0.000000	-0.000000	0.000000	8.637160	-0.564620	-1.327620	0.013306	0.723387	0.693846	-1.000000	-1.000000	-1.000000	-1.000000	-1.000000	-1.000000	-1.000000	139.103448	0.000000	-1.000000	-1.000000	435787.000000	1772918900.964885
-4749.525000	22143.510000	-18637.290000	-14941.125000	0.000000	0.000000	0.000000	0.000000	7.552084	-7.654559	15.951931	23.297473	-0.000000	0.000000	-0.000000	0.000000	8.637160	-0.564620	-1.327620	0.013306	0.723387	0.693846	-1.000000	-1.000000	-1.000000	-1.000000	-1.000000	-1.000000	-1.000000	139.103448	0.000000	-1.000000	-1.000000	435788.000000	1772918900.968871
-4779.360000	22099.995000	-18653.130000	-14963.445000	0.000000	0.000000	0.000000	0.000000	-62.861931	44.097091	-70.769765	-75.592729	-0.000000	0.000000	-0.000000	0.000000	8.637160	-0.564620	-1.327620	0.013306	0.723387	0.693846	-1.000000	-1.000000	-1.000000	-1.000000	-1.000000	-1.000000	-1.000000	139.103448	0.000000	-1.000000	-1.000000	435789.000000	1772918900.968874
-4725.945000	22061.340000	-18598.815000	-14907.195000	0.000000	0.000000	0.000000	0.000000	-102.571808	75.428921	-120.789646	-134.829702	-0.000000	0.000000	-0.000000	0.000000	8.637160	-0.564620	-1.327620	0.013306	0.723387	0.693846	-1.000000	-1.000000	-1.000000	-1.000000	-1.000000	-1.000000	-1.000000	139.103448	0.000000	-1.000000	-1.000000	435790.000000	1772918900.972883
-4668.030000	21989.970000	-18520.695000	-14829.480000	0.000000	0.000000	0.000000	0.000000	-90.036093	68.407379	-105.857974	-120.927743	-0.000000	0.000000	-0.000000	0.000000	8.637160	-0.564620	-1.327620	0.013306	0.723387	0.693846	-1.000000	-1.000000	-1.000000	-1.000000	-1.000000	-1.000000	-1.000000	139.103448	0.000000	-1.000000	-1.000000	435791.000000	1772918900.972886
-4602.780000	21802.095000	-18362.925000	-14662.755000	0.000000	0.000000	0.000000	0.000000	-31.864704	25.116344	-33.034562	-41.127145	-0.000000	0.000000	-0.000000	0.000000	8.637160	-0.564620	-1.327620	0.013306	0.723387	0.693846	-1.000000	-1.000000	-1.000000	-1.000000	-1.000000	-1.000000	-1.000000	139.103448	0.000000	-1.000000	-1.000000	435792.000000	1772918900.976924
-4535.100000	21706.065000	-18321.795000	-14601.870000	0.000000	0.000000	0.000000	0.000000	40.021653	-34.188346	58.907171	61.704729	-0.000000	0.000000	-0.000000	0.000000	8.637160	-0.564620	-1.327620	0.013306	0.723387	0.693846	-1.000000	-1.000000	-1.000000	-1.000000	-1.000000	-1.000000	-1.000000	139.103448	0.000000	-1.000000	-1.000000	435793.000000	1772918900.976931
-4567.590000	21796.020000	-18394.200000	-14670.360000	0.000000	0.000000	0.000000	0.000000	88.162440	-76.558552	118.823179	131.412138	-0.000000	0.000000	-0.000000	0.000000	8.194620	-1.007160	-1.205540	0.013855	0.723021	0.691771	-1.000000	-1.000000	-1.000000	-1.000000	-1.000000	-1.000000	-1.000000	139.103448	0.000000	-1.000000	-1.000000	435794.000000	1772918900.982409
-4602.600000	21768.345000	-18442.980000	-14719.815000	0.000000	0.000000	0.000000	0.000000	88.651454	-70.868022	110.877743	127.746579	-0.000000	0.000000	-0.000000	0.000000	8.194620	-1.007160	-1.205540	0.013855	0.723021	0.691771	-1.000000	-1.000000	-1.000000	-1.000000	-1.000000	-1.000000	-1.000000	139.103448	0.000000	-1.000000	-1.000000	435795.000000	1772918900.982414
-4689.990000	21773.925000	-18560.295000	-14848.515000	0.000000	0.000000	0.000000	0.000000	42.510542	-17.481982	39.651620	52.915461	-0.000000	0.000000	-0.000000	0.000000	8.194620	-1.007160	-1.205540	0.013855	0.723021	0.691771	-1.000000	-1.000000	-1.000000	-1.000000	-1.000000	-1.000000	-1.000000	139.103448	0.000000	-1.000000	-1.000000	435796.000000	1772918900.984814
-4761.765000	21780.720000	-18632.160000	-14936.400000	0.000000	0.000000	0.000000	0.000000	-25.597886	49.041847	-53.840480	-50.831206	-0.000000	0.000000	-0.000000	0.000000	8.194620	-1.007160	-1.205540	0.013855	0.723021	0.691771	-1.000000	-1.000000	-1.000000	-1.000000	-1.000000	-1.000000	-1.000000	139.103448	0.000000	-1.000000	-1.000000	435797.000000	1772918900.984819
-4754.655000	21843.720000	-18600.840000	-14901.570000	0.000000	0.000000	0.000000	0.000000	-80.598133	92.362236	-118.808459	-127.865066	-0.000000	0.000000	-0.000000	0.000000	8.194620	-1.007160	-1.205540	0.013855	0.723021	0.691771	-1.000000	-1.000000	-1.000000	-1.000000	-1.000000	-1.000000	-1.000000	139.103448	0.000000	-1.000000	-1.000000	435798.000000	1772918900.988910
-4705.695000	21813.570000	-18545.895000	-14839.515000	0.000000	0.000000	0.000000	0.000000	-93.369801	96.885540	-120.599241	-137.065212	-0.000000	0.000000	-0.000000	0.000000	8.194620	-1.007160	-1.205540	0.013855	0.723021	0.691771	-1.000000	-1.000000	-1.000000	-1.000000	-1.000000	-1.000000	-1.000000	139.103448	0.000000	-1.000000	-1.000000	435799.000000	1772918900.988922
-4615.875000	21730.635000	-18433.485000	-14725.665000	0.000000	0.000000	0.000000	0.000000	-55.943474	64.193957	-58.523636	-73.753759	-0.000000	0.000000	-0.000000	0.000000	8.194620	-1.007160	-1.205540	0.013855	0.723021	0.691771	-1.000000	-1.000000	-1.000000	-1.000000	-1.000000	-1.000000	-1.000000	139.103448	0.000000	-1.000000	-1.000000	435800.000000	1772918900.992689
-4543.740000	21738.735000	-18339.030000	-14622.705000	0.000000	0.000000	0.000000	0.000000	12.685783	7.437244	34.584846	27.752405	-0.000000	0.000000	-0.000000	0.000000	8.194620	-1.007160	-1.205540	0.013855	0.723021	0.691771	-1.000000	-1.000000	-1.000000	-1.000000	-1.000000	-1.000000	-1.000000	139.103448	0.000000	-1.000000	-1.000000	435801.000000	1772918900.992692
-4558.680000	21714.840000	-18363.330000	-14645.250000	0.000000	0.000000	0.000000	0.000000	75.638040	-48.407385	110.365612	113.852267	-0.000000	0.000000	-0.000000	0.000000	8.194620	-1.007160	-1.205540	0.013855	0.723021	0.691771	-1.000000	-1.000000	-1.000000	-1.000000	-1.000000	-1.000000	-1.000000	139.103448	0.000000	-1.000000	-1.000000	435802.000000	1772918901.032563
-4596.390000	21699.180000	-18417.060000	-14703.120000	0.000000	0.000000	0.000000	0.000000	97.738026	-78.497985	128.478322	138.910344	-0.000000	0.000000	-0.000000	0.000000	8.194620	-1.007160	-1.205540	0.013855	0.723021	0.691771	-1.000000	-1.000000	-1.000000	-1.000000	-1.000000	-1.000000	-1.000000	139.103448	0.000000	-1.000000	-1.000000	435803.000000	1772918901.032565
-4670.145000	21723.525000	-18519.705000	-14807.970000	0.000000	0.000000	0.000000	0.000000	66.737776	-73.916025	78.978104	90.170562	-0.000000	0.000000	-0.000000	0.000000	10.727780	-2.258480	-2.014320	0.014404	0.724913	0.694945	-1.000000	-1.000000	-1.000000	-1.000000	-1.000000	-1.000000	-1.000000	139.103448	0.000000	-1.000000	-1.000000	435804.000000	1772918901.032633
-4755.195000	21744.405000	-18631.710000	-14937.120000	0.000000	0.000000	0.000000	0.000000	0.351681	-42.101970	-11.533311	-5.240160	-0.000000	0.000000	-0.000000	0.000000	10.727780	-2.258480	-2.014320	0.014404	0.724913	0.694945	-1.000000	-1.000000	-1.000000	-1.000000	-1.000000	-1.000000	-1.000000	139.103448	0.000000	-1.000000	-1.000000	435805.000000	1772918901.032636
-4747.680000	21773.385000	-18614.385000	-14928.840000	0.000000	0.000000	0.000000	0.000000	-65.206828	0.400771	-95.166409	-96.564254	-0.000000	0.000000	-0.000000	0.000000	10.727780	-2.258480	-2.014320	0.014404	0.724913	0.694945	-1.000000	-1.000000	-1.000000	-1.000000	-1.000000	-1.000000	-1.000000	139.103448	0.000000	-1.000000	-1.000000	435806.000000	1772918901.032665
-4715.595000	21789.360000	-18565.605000	-14878.755000	0.000000	0.000000	0.000000	0.000000	-94.342613	35.282104	-126.923158	-134.860786	-0.000000	0.000000	-0.000000	0.000000	10.727780	-2.258480	-2.014320	0.014404	0.724913	0.694945	-1.000000	-1.000000	-1.000000	-1.000000	-1.000000	-1.000000	-1.000000	139.103448	0.000000	-1.000000	-1.000000	435807.000000	1772918901.032667
-4644.045000	21710.970000	-18468.630000	-14779.890000	0.000000	0.000000	0.000000	0.000000	-71.594919	48.356610	-89.625761	-99.338969	-0.000000	0.000000	-0.000000	0.000000	10.727780	-2.258480	-2.014320	0.014404	0.724913	0.694945	-1.000000	-1.000000	-1.000000	-1.000000	-1.000000	-1.000000	-1.000000	139.103448	0.000000	-1.000000	-1.000000	435808.000000	1772918901.032675
-4553.505000	21682.890000	-18347.805000	-14642.190000	0.000000	0.000000	0.000000	0.000000	-10.323539	34.121414	-4.274341	-9.798857	-0.000000	0.000000	-0.000000	0.000000	10.727780	-2.258480	-2.014320	0.014404	0.724913	0.694945	-1.000000	-1.000000	-1.000000	-1.000000	-1.000000	-1.000000	-1.000000	139.103448	0.000000	-1.000000	-1.000000	435809.000000	1772918901.032677
-4574.880000	21803.535000	-18381.285000	-14660.595000	0.000000	0.000000	0.000000	0.000000	55.419076	4.184563	82.279256	84.998688	-0.000000	0.000000	-0.000000	0.000000	10.727780	-2.258480	-2.014320	0.014404	0.724913	0.694945	-1.000000	-1.000000	-1.000000	-1.000000	-1.000000	-1.000000	-1.000000	139.103448	0.000000	-1.000000	-1.000000	435810.000000	1772918901.032680
-4640.895000	21866.580000	-18442.080000	-14725.935000	0.000000	0.000000	0.000000	0.000000	87.989315	-15.583973	121.312254	132.027311	-0.000000	0.000000	-0.000000	0.000000	10.727780	-2.258480	-2.014320	0.014404	0.724913	0.694945	-1.000000	-1.000000	-1.000000	-1.000000	-1.000000	-1.000000	-1.000000	139.103448	0.000000	-1.000000	-1.000000	435811.000000	1772918901.032683
-4688.235000	21886.335000	-18507.915000	-14800.500000	0.000000	0.000000	0.000000	0.000000	68.504167	-10.905088	91.176695	104.569450	-0.000000	0.000000	-0.000000	0.000000	10.727780	-2.258480	-2.014320	0.014404	0.724913	0.694945	-1.000000	-1.000000	-1.000000	-1.000000	-1.000000	-1.000000	-1.000000	139.103448	0.000000	-1.000000	-1.000000	435812.000000	1772918901.032686
-4720.860000	21740.490000	-18614.655000	-14918.805000	0.000000	0.000000	0.000000	0.000000	11.426369	3.380278	11.917887	20.240586	-0.000000	0.000000	-0.000000	0.000000	10.727780	-2.258480	-2.014320	0.014404	0.724913	0.694945	-1.000000	-1.000000	-1.000000	-1.000000	-1.000000	-1.000000	-1.000000	139.103448	0.000000	-1.000000	-1.000000	435813.000000	1772918901.032688
-4725.000000	21675.060000	-18626.220000	-14941.530000	0.000000	0.000000	0.000000	0.000000	-46.547354	0.734715	-70.476315	-72.468220	-0.000000	0.000000	-0.000000	0.000000	17.274320	-4.349100	-4.440660	0.011658	0.712706	0.698240	-1.000000	-1.000000	-1.000000	-1.000000	-1.000000	-1.000000	-1.000000	139.103448	0.000000	-1.000000	-1.000000	435814.000000	1772918901.032691
-4706.820000	21684.105000	-18585.315000	-14890.770000	0.000000	0.000000	0.000000	0.000000	-72.974777	-23.609309	-111.474785	-123.021670	-0.000000	0.000000	-0.000000	0.000000	17.274320	-4.349100	-4.440660	0.011658	0.712706	0.698240	-1.000000	-1.000000	-1.000000	-1.000000	-1.000000	-1.000000	-1.000000	139.103448	0.000000	-1.000000	-1.000000	435815.000000	1772918901.032693
-4660.470000	21637.395000	-18518.490000	-14815.215000	0.000000	0.000000	0.000000	0.000000	-57.590605	-46.622530	-90.469462	-104.979201	-0.000000	0.000000	-0.000000	0.000000	17.274320	-4.349100	-4.440660	0.011658	0.712706	0.698240	-1.000000	-1.000000	-1.000000	-1.000000	-1.000000	-1.000000	-1.000000	139.103448	0.000000	-1.000000	-1.000000	435816.000000	1772918901.032696
-4570.650000	21580.290000	-18385.560000	-14677.830000	0.000000	0.000000	0.000000	0.000000	-12.408051	-46.925129	-20.470411	-29.722140	-0.000000	0.000000	-0.000000	0.000000	17.274320	-4.349100	-4.440660	0.011658	0.712706	0.698240	-1.000000	-1.000000	-1.000000	-1.000000	-1.000000	-1.000000	-1.000000	139.103448	0.000000	-1.000000	-1.000000	435817.000000	1772918901.032698
-4562.955000	21626.685000	-18366.840000	-14646.060000	0.000000	0.000000	0.000000	0.000000	38.051659	-23.479338	60.800568	61.366251	-0.000000	0.000000	-0.000000	0.000000	17.274320	-4.349100	-4.440660	0.011658	0.712706	0.698240	-1.000000	-1.000000	-1.000000	-1.000000	-1.000000	-1.000000	-1.000000	139.103448	0.000000	-1.000000	-1.000000	435818.000000	1772918901.032701
-4587.345000	21681.720000	-18418.095000	-14700.195000	0.000000	0.000000	0.000000	0.000000	66.914034	14.019191	109.089014	118.237816	-0.000000	0.000000	-0.000000	0.000000	17.274320	-4.349100	-4.440660	0.011658	0.712706	0.698240	-1.000000	-1.000000	-1.000000	-1.000000	-1.000000	-1.000000	-1.000000	139.103448	0.000000	-1.000000	-1.000000	435819.000000	1772918901.032703
-4639.995000	21723.930000	-18475.155000	-14760.945000	0.000000	0.000000	0.000000	0.000000	57.673644	53.013878	96.649905	108.729125	-0.000000	0.000000	-0.000000	0.000000	17.274320	-4.349100	-4.440660	0.011658	0.712706	0.698240	-1.000000	-1.000000	-1.000000	-1.000000	-1.000000	-1.000000	-1.000000	139.103448	0.000000	-1.000000	-1.000000	435820.000000	1772918901.033934
-4704.840000	21738.330000	-18605.880000	-14885.820000	0.000000	0.000000	0.000000	0.000000	15.159277	77.541296	30.286449	38.758620	-0.000000	0.000000	-0.000000	0.000000	17.274320	-4.349100	-4.440660	0.011658	0.712706	0.698240	-1.000000	-1.000000	-1.000000	-1.000000	-1.000000	-1.000000	-1.000000	139.103448	0.000000	-1.000000	-1.000000	435821.000000	1772918901.033937
-4749.795000	21746.295000	-18645.525000	-14961.195000	0.000000	0.000000	0.000000	0.000000	-37.252264	74.405827	-53.555848	-52.807191	-0.000000	0.000000	-0.000000	0.000000	17.274320	-4.349100	-4.440660	0.011658	0.712706	0.698240	-1.000000	-1.000000	-1.000000	-1.000000	-1.000000	-1.000000	-1.000000	139.103448	0.000000	-1.000000	-1.000000	435822.000000	1772918901.037905
-4744.035000	21731.985000	-18590.175000	-14916.690000	0.000000	0.000000	0.000000	0.000000	-71.331642	42.779158	-108.761768	-116.754434	-0.000000	0.000000	-0.000000	0.000000	17.274320	-4.349100	-4.440660	0.011658	0.712706	0.698240	-1.000000	-1.000000	-1.000000	-1.000000	-1.000000	-1.000000	-1.000000	139.103448	0.000000	-1.000000	-1.000000	435823.000000	1772918901.037908
-4693.905000	21725.325000	-18542.655000	-14857.245000	0.000000	0.000000	0.000000	0.000000	-68.368301	-4.299412	-103.738648	-117.793708	-0.000000	0.000000	-0.000000	0.000000	26.216680	-5.112100	0.335720	0.008850	0.709532	0.699217	-1.000000	-1.000000	-1.000000	-1.000000	-1.000000	-1.000000	-1.000000	139.103448	0.000000	-1.000000	-1.000000	435824.000000	1772918901.041794
-4602.285000	21645.990000	-18424.755000	-14726.880000	0.000000	0.000000	0.000000	0.000000	-28.185008	-48.370037	-41.471102	-54.460087	-0.000000	0.000000	-0.000000	0.000000	26.216680	-5.112100	0.335720	0.008850	0.709532	0.699217	-1.000000	-1.000000	-1.000000	-1.000000	-1.000000	-1.000000	-1.000000	139.103448	0.000000	-1.000000	-1.000000	435825.000000	1772918901.041797
-4520.340000	21551.850000	-18329.715000	-14610.105000	0.000000	0.000000	0.000000	0.000000	30.732489	-76.746427	43.849193	40.218142	-0.000000	0.000000	-0.000000	0.000000	26.216680	-5.112100	0.335720	0.008850	0.709532	0.699217	-1.000000	-1.000000	-1.000000	-1.000000	-1.000000	-1.000000	-1.000000	139.103448	0.000000	-1.000000	-1.000000	435826.000000	1772918901.045885
-4568.445000	21527.865000	-18368.505000	-14644.575000	0.000000	0.000000	0.000000	0.000000	78.008249	-84.189884	107.247311	116.644052	-0.000000	0.000000	-0.000000	0.000000	26.216680	-5.112100	0.335720	0.008850	0.709532	0.699217	-1.000000	-1.000000	-1.000000	-1.000000	-1.000000	-1.000000	-1.000000	139.103448	0.000000	-1.000000	-1.000000	435827.000000	1772918901.045887
-4593.825000	21554.010000	-18416.925000	-14704.605000	0.000000	0.000000	0.000000	0.000000	85.299681	-66.812651	113.903456	132.136196	-0.000000	0.000000	-0.000000	0.000000	26.216680	-5.112100	0.335720	0.008850	0.709532	0.699217	-1.000000	-1.000000	-1.000000	-1.000000	-1.000000	-1.000000	-1.000000	139.103448	0.000000	-1.000000	-1.000000	435828.000000	1772918901.049943
-4642.290000	21481.605000	-18509.670000	-14798.295000	0.000000	0.000000	0.000000	0.000000	46.385487	-26.281824	58.953451	76.100913	-0.000000	0.000000	-0.000000	0.000000	26.216680	-5.112100	0.335720	0.008850	0.709532	0.699217	-1.000000	-1.000000	-1.000000	-1.000000	-1.000000	-1.000000	-1.000000	139.103448	0.000000	-1.000000	-1.000000	435829.000000	1772918901.049947
-4736.745000	21424.455000	-18617.220000	-14908.275000	0.000000	0.000000	0.000000	0.000000	-17.422782	20.779869	-28.501630	-21.414001	-0.000000	0.000000	-0.000000	0.000000	26.216680	-5.112100	0.335720	0.008850	0.709532	0.699217	-1.000000	-1.000000	-1.000000	-1.000000	-1.000000	-1.000000	-1.000000	139.103448	0.000000	-1.000000	-1.000000	435830.000000	1772918901.058274
-4720.725000	21398.670000	-18584.145000	-14855.265000	0.000000	0.000000	0.000000	0.000000	-72.901280	52.403803	-102.501015	-107.564414	-0.000000	0.000000	-0.000000	0.000000	26.216680	-5.112100	0.335720	0.008850	0.709532	0.699217	-1.000000	-1.000000	-1.000000	-1.000000	-1.000000	-1.000000	-1.000000	139.103448	0.000000	-1.000000	-1.000000	435831.000000	1772918901.058277
-4678.335000	21391.605000	-18523.845000	-14760.225000	0.000000	0.000000	0.000000	0.000000	-91.403050	60.202967	-122.913913	-134.354004	-0.000000	0.000000	-0.000000	0.000000	26.216680	-5.112100	0.335720	0.008850	0.709532	0.699217	-1.000000	-1.000000	-1.000000	-1.000000	-1.000000	-1.000000	-1.000000	139.103448	0.000000	-1.000000	-1.000000	435832.000000	1772918901.058280
-4607.595000	21360.780000	-18431.280000	-14639.265000	0.000000	0.000000	0.000000	0.000000	-62.262865	50.586935	-77.612206	-85.983615	-0.000000	0.000000	-0.000000	0.000000	26.216680	-5.112100	0.335720	0.008850	0.709532	0.699217	-1.000000	-1.000000	-1.000000	-1.000000	-1.000000	-1.000000	-1.000000	139.103448	0.000000	-1.000000	-1.000000	435833.000000	1772918901.058282
-4508.415000	21365.820000	-18297.855000	-14494.635000	0.000000	0.000000	0.000000	0.000000	-0.156749	33.507210	9.217633	10.004929	-0.000000	0.000000	-0.000000	0.000000	26.857600	-6.195560	-0.595140	0.006958	0.721006	0.695433	-1.000000	-1.000000	-1.000000	-1.000000	-1.000000	-1.000000	-1.000000	139.103448	0.000000	-1.000000	-1.000000	435834.000000	1772918901.061960
-4500.180000	21398.085000	-18316.440000	-14563.440000	0.000000	0.000000	0.000000	0.000000	62.613653	17.109427	91.464493	98.586694	-0.000000	0.000000	-0.000000	0.000000	26.857600	-6.195560	-0.595140	0.006958	0.721006	0.695433	-1.000000	-1.000000	-1.000000	-1.000000	-1.000000	-1.000000	-1.000000	139.103448	0.000000	-1.000000	-1.000000	435835.000000	1772918901.061962
-4539.240000	21437.010000	-18387.135000	-14676.795000	0.000000	0.000000	0.000000	0.000000	92.208545	7.113770	123.934014	126.282621	-0.000000	0.000000	-0.000000	0.000000	26.857600	-6.195560	-0.595140	0.006958	0.721006	0.695433	-1.000000	-1.000000	-1.000000	-1.000000	-1.000000	-1.000000	-1.000000	139.103448	0.000000	-1.000000	-1.000000	435836.000000	1772918901.066070
-4594.770000	21423.915000	-18459.720000	-14751.945000	0.000000	0.000000	0.000000	0.000000	71.564062	3.452689	87.428439	74.953719	-0.000000	0.000000	-0.000000	0.000000	26.857600	-6.195560	-0.595140	0.006958	0.721006	0.695433	-1.000000	-1.000000	-1.000000	-1.000000	-1.000000	-1.000000	-1.000000	139.103448	0.000000	-1.000000	-1.000000	435837.000000	1772918901.066073
-4699.125000	21377.205000	-18582.795000	-14853.870000	0.000000	0.000000	0.000000	0.000000	11.471974	-1.220580	2.738981	-22.285770	-0.000000	0.000000	-0.000000	0.000000	26.857600	-6.195560	-0.595140	0.006958	0.721006	0.695433	-1.000000	-1.000000	-1.000000	-1.000000	-1.000000	-1.000000	-1.000000	139.103448	0.000000	-1.000000	-1.000000	435838.000000	1772918901.069974
-4738.770000	21314.475000	-18606.645000	-14883.390000	0.000000	0.000000	0.000000	0.000000	-56.429263	-14.605673	-83.277385	-106.340216	-0.000000	0.000000	-0.000000	0.000000	26.857600	-6.195560	-0.595140	0.006958	0.721006	0.695433	-1.000000	-1.000000	-1.000000	-1.000000	-1.000000	-1.000000	-1.000000	139.103448	0.000000	-1.000000	-1.000000	435839.000000	1772918901.069977
-4711.950000	21217.635000	-18563.895000	-14817.780000	0.000000	0.000000	0.000000	0.000000	-96.322243	-36.155987	-124.513399	-130.822800	-0.000000	0.000000	-0.000000	0.000000	26.857600	-6.195560	-0.595140	0.006958	0.721006	0.695433	-1.000000	-1.000000	-1.000000	-1.000000	-1.000000	-1.000000	-1.000000	139.103448	0.000000	-1.000000	-1.000000	435840.000000	1772918901.074010
-4659.795000	21215.790000	-18504.765000	-14759.505000	0.000000	0.000000	0.000000	0.000000	-85.864867	-55.234357	-99.133767	-84.069787	-0.000000	0.000000	-0.000000	0.000000	26.857600	-6.195560	-0.595140	0.006958	0.721006	0.695433	-1.000000	-1.000000	-1.000000	-1.000000	-1.000000	-1.000000	-1.000000	139.103448	0.000000	-1.000000	-1.000000	435841.000000	1772918901.074013
-4545.135000	21330.540000	-18370.170000	-14660.640000	0.000000	0.000000	0.000000	0.000000	-29.019882	-54.286597	-21.110382	7.569784	-0.000000	0.000000	-0.000000	0.000000	26.857600	-6.195560	-0.595140	0.006958	0.721006	0.695433	-1.000000	-1.000000	-1.000000	-1.000000	-1.000000	-1.000000	-1.000000	139.103448	0.000000	-1.000000	-1.000000	435842.000000	1772918901.077926
-4494.420000	21406.500000	-18312.885000	-14579.055000	0.000000	0.000000	0.000000	0.000000	45.798821	-20.980709	69.398670	96.888898	-0.000000	0.000000	-0.000000	0.000000	26.857600	-6.195560	-0.595140	0.006958	0.721006	0.695433	-1.000000	-1.000000	-1.000000	-1.000000	-1.000000	-1.000000	-1.000000	139.103448	0.000000	-1.000000	-1.000000	435843.000000	1772918901.077930
-4519.080000	21427.470000	-18375.930000	-14661.180000	0.000000	0.000000	0.000000	0.000000	99.417753	33.467558	125.738288	140.411430	-0.000000	0.000000	-0.000000	0.000000	34.701240	9.537500	-4.547480	0.011963	0.716124	0.693480	-1.000000	-1.000000	-1.000000	-1.000000	-1.000000	-1.000000	-1.000000	139.103448	0.000000	-1.000000	-1.000000	435844.000000	1772918901.083947
-4561.245000	21484.485000	-18457.695000	-14799.015000	0.000000	0.000000	0.000000	0.000000	101.882134	77.069690	116.109732	114.401170	-0.000000	0.000000	-0.000000	0.000000	34.701240	9.537500	-4.547480	0.011963	0.716124	0.693480	-1.000000	-1.000000	-1.000000	-1.000000	-1.000000	-1.000000	-1.000000	139.103448	0.000000	-1.000000	-1.000000	435845.000000	1772918901.083950
-4658.715000	21500.640000	-18579.195000	-14890.995000	0.000000	0.000000	0.000000	0.000000	50.997535	84.163934	43.746410	28.194607	-0.000000	0.000000	-0.000000	0.000000	34.701240	9.537500	-4.547480	0.011963	0.716124	0.693480	-1.000000	-1.000000	-1.000000	-1.000000	-1.000000	-1.000000	-1.000000	139.103448	0.000000	-1.000000	-1.000000	435846.000000	1772918901.086026
-4714.920000	21417.975000	-18664.020000	-14936.040000	0.000000	0.000000	0.000000	0.000000	-26.310907	51.209208	-52.802821	-73.064935	-0.000000	0.000000	-0.000000	0.000000	34.701240	9.537500	-4.547480	0.011963	0.716124	0.693480	-1.000000	-1.000000	-1.000000	-1.000000	-1.000000	-1.000000	-1.000000	139.103448	0.000000	-1.000000	-1.000000	435847.000000	1772918901.086029
-4704.480000	21480.165000	-18676.575000	-14892.030000	0.000000	0.000000	0.000000	0.000000	-89.322580	-5.956701	-122.486605	-132.981827	-0.000000	0.000000	-0.000000	0.000000	34.701240	9.537500	-4.547480	0.011963	0.716124	0.693480	-1.000000	-1.000000	-1.000000	-1.000000	-1.000000	-1.000000	-1.000000	139.103448	0.000000	-1.000000	-1.000000	435848.000000	1772918901.090078
-4670.055000	21534.660000	-18623.970000	-14827.005000	0.000000	0.000000	0.000000	0.000000	-104.957820	-57.229896	-129.102282	-119.610764	-0.000000	0.000000	-0.000000	0.000000	34.701240	9.537500	-4.547480	0.011963	0.716124	0.693480	-1.000000	-1.000000	-1.000000	-1.000000	-1.000000	-1.000000	-1.000000	139.103448	0.000000	-1.000000	-1.000000	435849.000000	1772918901.090081
-4610.520000	21580.020000	-18487.305000	-14751.315000	0.000000	0.000000	0.000000	0.000000	-66.609621	-75.015278	-68.567161	-43.783912	-0.000000	0.000000	-0.000000	0.000000	34.701240	9.537500	-4.547480	0.011963	0.716124	0.693480	-1.000000	-1.000000	-1.000000	-1.000000	-1.000000	-1.000000	-1.000000	139.103448	0.000000	-1.000000	-1.000000	435850.000000	1772918901.094049
-4582.170000	21672.450000	-18426.375000	-14716.440000	0.000000	0.000000	0.000000	0.000000	2.574944	-54.602632	29.420663	50.217341	-0.000000	0.000000	-0.000000	0.000000	34.701240	9.537500	-4.547480	0.011963	0.716124	0.693480	-1.000000	-1.000000	-1.000000	-1.000000	-1.000000	-1.000000	-1.000000	139.103448	0.000000	-1.000000	-1.000000	435851.000000	1772918901.094052
-4601.745000	21777.885000	-18419.670000	-14659.245000	0.000000	0.000000	0.000000	0.000000	64.305310	-11.989657	114.250604	113.488726	-0.000000	0.000000	-0.000000	0.000000	34.701240	9.537500	-4.547480	0.011963	0.716124	0.693480	-1.000000	-1.000000	-1.000000	-1.000000	-1.000000	-1.000000	-1.000000	139.103448	0.000000	-1.000000	-1.000000	435852.000000	1772918901.098011
-4588.965000	21855.285000	-18407.655000	-14650.245000	0.000000	0.000000	0.000000	0.000000	88.004679	30.478449	141.701783	120.090545	-0.000000	0.000000	-0.000000	0.000000	34.701240	9.537500	-4.547480	0.011963	0.716124	0.693480	-1.000000	-1.000000	-1.000000	-1.000000	-1.000000	-1.000000	-1.000000	139.103448	0.000000	-1.000000	-1.000000	435853.000000	1772918901.098014
-4636.305000	21962.520000	-18472.545000	-14738.895000	0.000000	0.000000	0.000000	0.000000	67.609223	54.324138	100.827753	73.442213	-0.000000	0.000000	-0.000000	0.000000	45.047520	14.893760	0.091560	0.019592	0.683348	0.689512	-1.000000	-1.000000	-1.000000	-1.000000	-1.000000	-1.000000	-1.000000	139.103448	0.000000	-1.000000	-1.000000	435854.000000	1772918901.101982
-4760.730000	21968.685000	-18582.930000	-14869.935000	0.000000	0.000000	0.000000	0.000000	17.931579	50.937491	15.031065	-5.057651	-0.000000	0.000000	-0.000000	0.000000	45.047520	14.893760	0.091560	0.019592	0.683348	0.689512	-1.000000	-1.000000	-1.000000	-1.000000	-1.000000	-1.000000	-1.000000	139.103448	0.000000	-1.000000	-1.000000	435855.000000	1772918901.101986
-4793.805000	21906.360000	-18667.080000	-14934.195000	0.000000	0.000000	0.000000	0.000000	-38.260952	20.685125	-76.200026	-84.779048	-0.000000	0.000000	-0.000000	0.000000	45.047520	14.893760	0.091560	0.019592	0.683348	0.689512	-1.000000	-1.000000	-1.000000	-1.000000	-1.000000	-1.000000	-1.000000	139.103448	0.000000	-1.000000	-1.000000	435856.000000	1772918901.105602
-4719.915000	21837.735000	-18665.730000	-14852.160000	0.000000	0.000000	0.000000	0.000000	-74.053188	-28.418535	-133.322925	-129.444622	-0.000000	0.000000	-0.000000	0.000000	45.047520	14.893760	0.091560	0.019592	0.683348	0.689512	-1.000000	-1.000000	-1.000000	-1.000000	-1.000000	-1.000000	-1.000000	139.103448	0.000000	-1.000000	-1.000000	435857.000000	1772918901.105604
-4596.255000	21789.855000	-18541.395000	-14744.970000	0.000000	0.000000	0.000000	0.000000	-65.957061	-77.604815	-128.910507	-111.200640	-0.000000	0.000000	-0.000000	0.000000	45.047520	14.893760	0.091560	0.019592	0.683348	0.689512	-1.000000	-1.000000	-1.000000	-1.000000	-1.000000	-1.000000	-1.000000	139.103448	0.000000	-1.000000	-1.000000	435858.000000	1772918901.143618
-4403.565000	21827.430000	-18278.595000	-14505.705000	0.000000	0.000000	0.000000	0.000000	-11.649809	-101.084222	-58.353934	-31.323026	-0.000000	0.000000	-0.000000	0.000000	45.047520	14.893760	0.091560	0.019592	0.683348	0.689512	-1.000000	-1.000000	-1.000000	-1.000000	-1.000000	-1.000000	-1.000000	139.103448	0.000000	-1.000000	-1.000000	435859.000000	1772918901.143622
-4458.465000	21897.315000	-18302.490000	-14533.830000	0.000000	0.000000	0.000000	0.000000	59.684426	-80.257387	49.282959	72.083258	-0.000000	0.000000	-0.000000	0.000000	45.047520	14.893760	0.091560	0.019592	0.683348	0.689512	-1.000000	-1.000000	-1.000000	-1.000000	-1.000000	-1.000000	-1.000000	139.103448	0.000000	-1.000000	-1.000000	435860.000000	1772918901.143641
-4666.725000	21907.845000	-18504.450000	-14735.430000	0.000000	0.000000	0.000000	0.000000	95.970418	-19.628116	129.722807	135.549680	-0.000000	0.000000	-0.000000	0.000000	45.047520	14.893760	0.091560	0.019592	0.683348	0.689512	-1.000000	-1.000000	-1.000000	-1.000000	-1.000000	-1.000000	-1.000000	139.103448	0.000000	-1.000000	-1.000000	435861.000000	1772918901.143643
-4791.780000	21889.080000	-18642.240000	-14913.090000	0.000000	0.000000	0.000000	0.000000	59.595367	50.158285	123.000198	109.404576	-0.000000	0.000000	-0.000000	0.000000	45.047520	14.893760	0.091560	0.019592	0.683348	0.689512	-1.000000	-1.000000	-1.000000	-1.000000	-1.000000	-1.000000	-1.000000	139.103448	0.000000	-1.000000	-1.000000	435862.000000	1772918901.143659
-4811.265000	21710.655000	-18658.845000	-14972.445000	0.000000	0.000000	0.000000	0.000000	-30.357273	89.364168	32.882923	6.041040	-0.000000	0.000000	-0.000000	0.000000	45.047520	14.893760	0.091560	0.019592	0.683348	0.689512	-1.000000	-1.000000	-1.000000	-1.000000	-1.000000	-1.000000	-1.000000	139.103448	0.000000	-1.000000	-1.000000	435863.000000	1772918901.143662
-4688.190000	21422.925000	-18515.340000	-14821.965000	0.000000	0.000000	0.000000	0.000000	-106.319702	71.858043	-69.397410	-99.791235	-0.000000	0.000000	-0.000000	0.000000	55.653220	10.575180	2.746800	0.018005	0.721678	0.678221	-1.000000	-1.000000	-1.000000	-1.000000	-1.000000	-1.000000	-1.000000	139.103448	0.000000	-1.000000	-1.000000	435864.000000	1772918901.143665
-4654.080000	21357.450000	-18503.370000	-14806.080000	0.000000	0.000000	0.000000	0.000000	-110.604308	5.322716	-109.043245	-131.469852	-0.000000	0.000000	-0.000000	0.000000	55.653220	10.575180	2.746800	0.018005	0.721678	0.678221	-1.000000	-1.000000	-1.000000	-1.000000	-1.000000	-1.000000	-1.000000	139.103448	0.000000	-1.000000	-1.000000	435865.000000	1772918901.143668
-4593.510000	21277.710000	-18435.960000	-14759.640000	0.000000	0.000000	0.000000	0.000000	-43.163238	-63.613765	-69.757217	-74.466093	-0.000000	0.000000	-0.000000	0.000000	55.653220	10.575180	2.746800	0.018005	0.721678	0.678221	-1.000000	-1.000000	-1.000000	-1.000000	-1.000000	-1.000000	-1.000000	139.103448	0.000000	-1.000000	-1.000000	435866.000000	1772918901.143671
-4484.205000	21186.180000	-18296.820000	-14610.330000	0.000000	0.000000	0.000000	0.000000	48.052635	-84.661123	9.275957	24.144864	-0.000000	0.000000	-0.000000	0.000000	55.653220	10.575180	2.746800	0.018005	0.721678	0.678221	-1.000000	-1.000000	-1.000000	-1.000000	-1.000000	-1.000000	-1.000000	139.103448	0.000000	-1.000000	-1.000000	435867.000000	1772918901.143674
-4536.810000	21262.680000	-18338.715000	-14600.790000	0.000000	0.000000	0.000000	0.000000	109.955590	-44.535609	76.646851	105.370855	-0.000000	0.000000	-0.000000	0.000000	55.653220	10.575180	2.746800	0.018005	0.721678	0.678221	-1.000000	-1.000000	-1.000000	-1.000000	-1.000000	-1.000000	-1.000000	139.103448	0.000000	-1.000000	-1.000000	435868.000000	1772918901.143677
-4618.890000	21339.765000	-18425.070000	-14654.430000	0.000000	0.000000	0.000000	0.000000	110.764003	34.887260	94.401887	129.556307	-0.000000	0.000000	-0.000000	0.000000	55.653220	10.575180	2.746800	0.018005	0.721678	0.678221	-1.000000	-1.000000	-1.000000	-1.000000	-1.000000	-1.000000	-1.000000	139.103448	0.000000	-1.000000	-1.000000	435869.000000	1772918901.143679
-4712.445000	21406.995000	-18511.740000	-14724.765000	0.000000	0.000000	0.000000	0.000000	50.650159	115.915250	51.661963	85.959783	-0.000000	0.000000	-0.000000	0.000000	55.653220	10.575180	2.746800	0.018005	0.721678	0.678221	-1.000000	-1.000000	-1.000000	-1.000000	-1.000000	-1.000000	-1.000000	139.103448	0.000000	-1.000000	-1.000000	435870.000000	1772918901.143683
-4789.170000	21419.910000	-18626.040000	-14840.820000	0.000000	0.000000	0.000000	0.000000	-37.087629	159.030546	-26.979622	-2.540296	-0.000000	0.000000	-0.000000	0.000000	55.653220	10.575180	2.746800	0.018005	0.721678	0.678221	-1.000000	-1.000000	-1.000000	-1.000000	-1.000000	-1.000000	-1.000000	139.103448	0.000000	-1.000000	-1.000000	435871.000000	1772918901.143685
-4750.470000	21364.560000	-18651.015000	-14888.070000	0.000000	0.000000	0.000000	0.000000	-103.835203	139.602470	-96.350015	-91.254025	-0.000000	0.000000	-0.000000	0.000000	55.653220	10.575180	2.746800	0.018005	0.721678	0.678221	-1.000000	-1.000000	-1.000000	-1.000000	-1.000000	-1.000000	-1.000000	139.103448	0.000000	-1.000000	-1.000000	435872.000000	1772918901.143689
-4724.235000	21329.910000	-18638.820000	-14853.825000	0.000000	0.000000	0.000000	0.000000	-113.305646	61.928350	-117.553310	-136.151278	-0.000000	0.000000	-0.000000	0.000000	55.653220	10.575180	2.746800	0.018005	0.721678	0.678221	-1.000000	-1.000000	-1.000000	-1.000000	-1.000000	-1.000000	-1.000000	139.103448	0.000000	-1.000000	-1.000000	435873.000000	1772918901.143692
-4741.065000	21382.605000	-18613.665000	-14876.595000	0.000000	0.000000	0.000000	0.000000	-64.210808	-38.807594	-78.745225	-115.908799	-0.000000	0.000000	-0.000000	0.000000	29.558620	-4.486440	-14.252840	0.011108	0.757322	0.646544	-1.000000	-1.000000	-1.000000	-1.000000	-1.000000	-1.000000	-1.000000	139.103448	0.000000	-1.000000	-1.000000	435874.000000	1772918901.143695
-4687.380000	21384.045000	-18524.070000	-14788.080000	0.000000	0.000000	0.000000	0.000000	10.713789	-114.527662	-0.125860	-43.986174	-0.000000	0.000000	-0.000000	0.000000	29.558620	-4.486440	-14.252840	0.011108	0.757322	0.646544	-1.000000	-1.000000	-1.000000	-1.000000	-1.000000	-1.000000	-1.000000	139.103448	0.000000	-1.000000	-1.000000	435875.000000	1772918901.143698
-4506.930000	21446.190000	-18319.995000	-14581.890000	0.000000	0.000000	0.000000	0.000000	74.895662	-134.998306	83.288938	45.940657	-0.000000	0.000000	-0.000000	0.000000	29.558620	-4.486440	-14.252840	0.011108	0.757322	0.646544	-1.000000	-1.000000	-1.000000	-1.000000	-1.000000	-1.000000	-1.000000	139.103448	0.000000	-1.000000	-1.000000	435876.000000	1772918901.146193
-4419.630000	21500.730000	-18244.935000	-14524.245000	0.000000	0.000000	0.000000	0.000000	110.803218	-102.059932	140.952331	120.865815	-0.000000	0.000000	-0.000000	0.000000	29.558620	-4.486440	-14.252840	0.011108	0.757322	0.646544	-1.000000	-1.000000	-1.000000	-1.000000	-1.000000	-1.000000	-1.000000	139.103448	0.000000	-1.000000	-1.000000	435877.000000	1772918901.146195
-4486.455000	21485.430000	-18345.690000	-14602.815000	0.000000	0.000000	0.000000	0.000000	110.198979	-41.605773	147.650703	149.405456	-0.000000	0.000000	-0.000000	0.000000	29.558620	-4.486440	-14.252840	0.011108	0.757322	0.646544	-1.000000	-1.000000	-1.000000	-1.000000	-1.000000	-1.000000	-1.000000	139.103448	0.000000	-1.000000	-1.000000	435878.000000	1772918901.150140
-4685.130000	21520.665000	-18580.680000	-14826.465000	0.000000	0.000000	0.000000	0.000000	62.994260	13.047506	85.891482	107.033879	-0.000000	0.000000	-0.000000	0.000000	29.558620	-4.486440	-14.252840	0.011108	0.757322	0.646544	-1.000000	-1.000000	-1.000000	-1.000000	-1.000000	-1.000000	-1.000000	139.103448	0.000000	-1.000000	-1.000000	435879.000000	1772918901.150143
-4871.745000	21514.230000	-18760.995000	-15052.185000	0.000000	0.000000	0.000000	0.000000	-27.654998	40.398371	-33.001759	-0.904510	-0.000000	0.000000	-0.000000	0.000000	29.558620	-4.486440	-14.252840	0.011108	0.757322	0.646544	-1.000000	-1.000000	-1.000000	-1.000000	-1.000000	-1.000000	-1.000000	139.103448	0.000000	-1.000000	-1.000000	435880.000000	1772918901.154744
-4815.765000	21442.500000	-18686.880000	-14996.070000	0.000000	0.000000	0.000000	0.000000	-124.370513	37.501321	-153.425739	-123.714973	-0.000000	0.000000	-0.000000	0.000000	29.558620	-4.486440	-14.252840	0.011108	0.757322	0.646544	-1.000000	-1.000000	-1.000000	-1.000000	-1.000000	-1.000000	-1.000000	139.103448	0.000000	-1.000000	-1.000000	435881.000000	1772918901.154746
-4797.495000	21422.520000	-18643.995000	-14948.640000	0.000000	0.000000	0.000000	0.000000	-167.648769	13.367151	-201.289411	-185.875907	-0.000000	0.000000	-0.000000	0.000000	29.558620	-4.486440	-14.252840	0.011108	0.757322	0.646544	-1.000000	-1.000000	-1.000000	-1.000000	-1.000000	-1.000000	-1.000000	139.103448	0.000000	-1.000000	-1.000000	435882.000000	1772918901.158472
-4685.085000	21432.780000	-18496.530000	-14787.630000	0.000000	0.000000	0.000000	0.000000	-123.681342	-14.742016	-141.859958	-142.713420	-0.000000	0.000000	-0.000000	0.000000	29.558620	-4.486440	-14.252840	0.011108	0.757322	0.646544	-1.000000	-1.000000	-1.000000	-1.000000	-1.000000	-1.000000	-1.000000	139.103448	0.000000	-1.000000	-1.000000	435883.000000	1772918901.158475
-4555.215000	21541.005000	-18346.140000	-14624.955000	0.000000	0.000000	0.000000	0.000000	-13.333606	-26.107955	-7.100675	-16.055990	-0.000000	0.000000	-0.000000	0.000000	-3.906560	-13.032040	-20.646780	0.004944	0.767454	0.615782	-1.000000	-1.000000	-1.000000	-1.000000	-1.000000	-1.000000	-1.000000	139.103448	0.000000	-1.000000	-1.000000	435884.000000	1772918901.162321
-4600.170000	21580.920000	-18418.905000	-14688.090000	0.000000	0.000000	0.000000	0.000000	103.671033	-9.971972	127.982526	121.277059	-0.000000	0.000000	-0.000000	0.000000	-3.906560	-13.032040	-20.646780	0.004944	0.767454	0.615782	-1.000000	-1.000000	-1.000000	-1.000000	-1.000000	-1.000000	-1.000000	139.103448	0.000000	-1.000000	-1.000000	435885.000000	1772918901.162324
-4682.880000	21541.545000	-18475.245000	-14737.365000	0.000000	0.000000	0.000000	0.000000	162.807075	21.790754	188.503677	189.131446	-0.000000	0.000000	-0.000000	0.000000	-3.906560	-13.032040	-20.646780	0.004944	0.767454	0.615782	-1.000000	-1.000000	-1.000000	-1.000000	-1.000000	-1.000000	-1.000000	139.103448	0.000000	-1.000000	-1.000000	435886.000000	1772918901.166301
-4608.720000	21530.295000	-18416.205000	-14681.430000	0.000000	0.000000	0.000000	0.000000	135.921640	41.960664	147.852863	153.798690	-0.000000	0.000000	-0.000000	0.000000	-3.906560	-13.032040	-20.646780	0.004944	0.767454	0.615782	-1.000000	-1.000000	-1.000000	-1.000000	-1.000000	-1.000000	-1.000000	139.103448	0.000000	-1.000000	-1.000000	435887.000000	1772918901.166304
-4593.330000	21499.020000	-18498.825000	-14750.505000	0.000000	0.000000	0.000000	0.000000	52.401271	33.816056	43.839554	49.287969	-0.000000	0.000000	-0.000000	0.000000	-3.906560	-13.032040	-20.646780	0.004944	0.767454	0.615782	-1.000000	-1.000000	-1.000000	-1.000000	-1.000000	-1.000000	-1.000000	139.103448	0.000000	-1.000000	-1.000000	435888.000000	1772918901.174113
-4617.585000	21300.255000	-18546.930000	-14790.555000	0.000000	0.000000	0.000000	0.000000	-32.688128	1.019785	-61.697124	-61.225956	-0.000000	0.000000	-0.000000	0.000000	-3.906560	-13.032040	-20.646780	0.004944	0.767454	0.615782	-1.000000	-1.000000	-1.000000	-1.000000	-1.000000	-1.000000	-1.000000	139.103448	0.000000	-1.000000	-1.000000	435889.000000	1772918901.174115
-4744.080000	21181.095000	-18605.610000	-14846.670000	0.000000	0.000000	0.000000	0.000000	-85.732221	-43.219729	-125.745312	-130.805121	-0.000000	0.000000	-0.000000	0.000000	-3.906560	-13.032040	-20.646780	0.004944	0.767454	0.615782	-1.000000	-1.000000	-1.000000	-1.000000	-1.000000	-1.000000	-1.000000	139.103448	0.000000	-1.000000	-1.000000	435890.000000	1772918901.174119
-4687.830000	21235.500000	-18485.820000	-14736.825000	0.000000	0.000000	0.000000	0.000000	-101.924091	-76.767192	-130.858184	-139.549105	-0.000000	0.000000	-0.000000	0.000000	-3.906560	-13.032040	-20.646780	0.004944	0.767454	0.615782	-1.000000	-1.000000	-1.000000	-1.000000	-1.000000	-1.000000	-1.000000	139.103448	0.000000	-1.000000	-1.000000	435891.000000	1772918901.174121
-4491.180000	21286.485000	-18288.540000	-14559.120000	0.000000	0.000000	0.000000	0.000000	-81.262447	-70.936550	-77.218963	-87.819845	-0.000000	0.000000	-0.000000	0.000000	-3.906560	-13.032040	-20.646780	0.004944	0.767454	0.615782	-1.000000	-1.000000	-1.000000	-1.000000	-1.000000	-1.000000	-1.000000	139.103448	0.000000	-1.000000	-1.000000	435892.000000	1772918901.178286
-4591.620000	21208.320000	-18402.390000	-14656.275000	0.000000	0.000000	0.000000	0.000000	-27.253366	-19.221138	11.201772	0.044186	-0.000000	0.000000	-0.000000	0.000000	-3.906560	-13.032040	-20.646780	0.004944	0.767454	0.615782	-1.000000	-1.000000	-1.000000	-1.000000	-1.000000	-1.000000	-1.000000	139.103448	0.000000	-1.000000	-1.000000	435893.000000	1772918901.178289
-4620.870000	21025.260000	-18427.950000	-14699.025000	0.000000	0.000000	0.000000	0.000000	31.602761	43.899460	82.693793	73.539639	-0.000000	0.000000	-0.000000	0.000000	-30.962540	-11.216100	-10.407320	0.014465	0.826048	0.623900	-1.000000	-1.000000	-1.000000	-1.000000	-1.000000	-1.000000	-1.000000	139.103448	0.000000	-1.000000	-1.000000	435894.000000	1772918901.182202
-4528.080000	21029.985000	-18268.560000	-14580.180000	0.000000	0.000000	0.000000	0.000000	60.397207	74.142423	97.930480	93.000579	-0.000000	0.000000	-0.000000	0.000000	-30.962540	-11.216100	-10.407320	0.014465	0.826048	0.623900	-1.000000	-1.000000	-1.000000	-1.000000	-1.000000	-1.000000	-1.000000	139.103448	0.000000	-1.000000	-1.000000	435895.000000	1772918901.182205
-4814.460000	21094.245000	-18564.120000	-14859.270000	0.000000	0.000000	0.000000	0.000000	49.558502	64.171885	61.489295	60.367104	-0.000000	0.000000	-0.000000	0.000000	-30.962540	-11.216100	-10.407320	0.014465	0.826048	0.623900	-1.000000	-1.000000	-1.000000	-1.000000	-1.000000	-1.000000	-1.000000	139.103448	0.000000	-1.000000	-1.000000	435896.000000	1772918901.186308
-4871.295000	21068.460000	-18687.645000	-14965.650000	0.000000	0.000000	0.000000	0.000000	7.036556	40.740405	-5.215779	-2.693852	-0.000000	0.000000	-0.000000	0.000000	-30.962540	-11.216100	-10.407320	0.014465	0.826048	0.623900	-1.000000	-1.000000	-1.000000	-1.000000	-1.000000	-1.000000	-1.000000	139.103448	0.000000	-1.000000	-1.000000	435897.000000	1772918901.186310
-4656.285000	21018.105000	-18570.780000	-14832.180000	0.000000	0.000000	0.000000	0.000000	-40.514280	23.303577	-73.643867	-65.031267	-0.000000	0.000000	-0.000000	0.000000	-30.962540	-11.216100	-10.407320	0.014465	0.826048	0.623900	-1.000000	-1.000000	-1.000000	-1.000000	-1.000000	-1.000000	-1.000000	139.103448	0.000000	-1.000000	-1.000000	435898.000000	1772918901.190322
-4646.250000	21075.255000	-18487.170000	-14757.975000	0.000000	0.000000	0.000000	0.000000	-50.079930	11.044873	-98.940626	-83.148430	-0.000000	0.000000	-0.000000	0.000000	-30.962540	-11.216100	-10.407320	0.014465	0.826048	0.623900	-1.000000	-1.000000	-1.000000	-1.000000	-1.000000	-1.000000	-1.000000	139.103448	0.000000	-1.000000	-1.000000	435899.000000	1772918901.190325
-4581.315000	21044.430000	-18338.670000	-14610.555000	0.000000	0.000000	0.000000	0.000000	-8.973880	0.413827	-55.428741	-36.890591	-0.000000	0.000000	-0.000000	0.000000	-30.962540	-11.216100	-10.407320	0.014465	0.826048	0.623900	-1.000000	-1.000000	-1.000000	-1.000000	-1.000000	-1.000000	-1.000000	139.103448	0.000000	-1.000000	-1.000000	435900.000000	1772918901.194335
-4483.980000	21039.480000	-18252.180000	-14500.665000	0.000000	0.000000	0.000000	0.000000	49.770962	-9.132877	32.464246	46.302305	-0.000000	0.000000	-0.000000	0.000000	-30.962540	-11.216100	-10.407320	0.014465	0.826048	0.623900	-1.000000	-1.000000	-1.000000	-1.000000	-1.000000	-1.000000	-1.000000	139.103448	0.000000	-1.000000	-1.000000	435901.000000	1772918901.194338
-4648.635000	21098.385000	-18422.415000	-14578.740000	0.000000	0.000000	0.000000	0.000000	82.693722	-17.068974	105.864763	112.194006	-0.000000	0.000000	-0.000000	0.000000	-30.962540	-11.216100	-10.407320	0.014465	0.826048	0.623900	-1.000000	-1.000000	-1.000000	-1.000000	-1.000000	-1.000000	-1.000000	139.103448	0.000000	-1.000000	-1.000000	435902.000000	1772918901.198242
-4754.520000	21208.995000	-18461.250000	-14668.200000	0.000000	0.000000	0.000000	0.000000	62.214843	-18.029594	111.598295	113.996562	-0.000000	0.000000	-0.000000	0.000000	-30.962540	-11.216100	-10.407320	0.014465	0.826048	0.623900	-1.000000	-1.000000	-1.000000	-1.000000	-1.000000	-1.000000	-1.000000	139.103448	0.000000	-1.000000	-1.000000	435903.000000	1772918901.198245
-4711.455000	21234.870000	-18506.160000	-14815.305000	0.000000	0.000000	0.000000	0.000000	-3.700069	-7.620509	45.562135	43.364609	-0.000000	0.000000	-0.000000	0.000000	-39.782820	-24.019240	9.964780	0.001343	0.871702	0.659239	-1.000000	-1.000000	-1.000000	-1.000000	-1.000000	-1.000000	-1.000000	139.103448	0.000000	-1.000000	-1.000000	435904.000000	1772918901.202298
-4559.445000	21026.205000	-18422.595000	-14728.995000	0.000000	0.000000	0.000000	0.000000	-66.505032	2.372660	-42.378263	-58.625667	-0.000000	0.000000	-0.000000	0.000000	-39.782820	-24.019240	9.964780	0.001343	0.871702	0.659239	-1.000000	-1.000000	-1.000000	-1.000000	-1.000000	-1.000000	-1.000000	139.103448	0.000000	-1.000000	-1.000000	435905.000000	1772918901.202302
-4470.390000	20836.935000	-18395.280000	-14696.145000	0.000000	0.000000	0.000000	0.000000	-76.923317	-12.182732	-92.836912	-126.566377	-0.000000	0.000000	-0.000000	0.000000	-39.782820	-24.019240	9.964780	0.001343	0.871702	0.659239	-1.000000	-1.000000	-1.000000	-1.000000	-1.000000	-1.000000	-1.000000	139.103448	0.000000	-1.000000	-1.000000	435906.000000	1772918901.206344
-4622.580000	20704.725000	-18508.455000	-14716.170000	0.000000	0.000000	0.000000	0.000000	-35.089307	-56.170152	-85.056365	-121.258203	-0.000000	0.000000	-0.000000	0.000000	-39.782820	-24.019240	9.964780	0.001343	0.871702	0.659239	-1.000000	-1.000000	-1.000000	-1.000000	-1.000000	-1.000000	-1.000000	139.103448	0.000000	-1.000000	-1.000000	435907.000000	1772918901.206347
-4650.480000	20695.905000	-18468.315000	-14642.685000	0.000000	0.000000	0.000000	0.000000	11.897887	-97.545937	-42.992982	-56.841512	-0.000000	0.000000	-0.000000	0.000000	-39.782820	-24.019240	9.964780	0.001343	0.871702	0.659239	-1.000000	-1.000000	-1.000000	-1.000000	-1.000000	-1.000000	-1.000000	139.103448	0.000000	-1.000000	-1.000000	435908.000000	1772918901.209461
-4584.780000	20735.820000	-18369.495000	-14615.595000	0.000000	0.000000	0.000000	0.000000	26.758553	-93.155205	2.787309	23.381061	-0.000000	0.000000	-0.000000	0.000000	-39.782820	-24.019240	9.964780	0.001343	0.871702	0.659239	-1.000000	-1.000000	-1.000000	-1.000000	-1.000000	-1.000000	-1.000000	139.103448	0.000000	-1.000000	-1.000000	435909.000000	1772918901.209464
-4603.815000	20737.890000	-18367.920000	-14623.515000	0.000000	0.000000	0.000000	0.000000	15.393079	-29.846842	39.513156	80.054741	-0.000000	0.000000	-0.000000	0.000000	-39.782820	-24.019240	9.964780	0.001343	0.871702	0.659239	-1.000000	-1.000000	-1.000000	-1.000000	-1.000000	-1.000000	-1.000000	139.103448	0.000000	-1.000000	-1.000000	435910.000000	1772918901.214907
-4595.040000	20769.345000	-18413.595000	-14711.175000	0.000000	0.000000	0.000000	0.000000	0.751479	61.935474	58.817167	90.629760	-0.000000	0.000000	-0.000000	0.000000	-39.782820	-24.019240	9.964780	0.001343	0.871702	0.659239	-1.000000	-1.000000	-1.000000	-1.000000	-1.000000	-1.000000	-1.000000	139.103448	0.000000	-1.000000	-1.000000	435911.000000	1772918901.214910
-4672.395000	20828.070000	-18531.810000	-14837.130000	0.000000	0.000000	0.000000	0.000000	-6.858768	133.989884	49.493749	53.572339	-0.000000	0.000000	-0.000000	0.000000	-39.782820	-24.019240	9.964780	0.001343	0.871702	0.659239	-1.000000	-1.000000	-1.000000	-1.000000	-1.000000	-1.000000	-1.000000	139.103448	0.000000	-1.000000	-1.000000	435912.000000	1772918901.221386
-4763.745000	20866.545000	-18570.555000	-14944.590000	0.000000	0.000000	0.000000	0.000000	-11.338415	154.872446	11.719224	-11.319618	-0.000000	0.000000	-0.000000	0.000000	-39.782820	-24.019240	9.964780	0.001343	0.871702	0.659239	-1.000000	-1.000000	-1.000000	-1.000000	-1.000000	-1.000000	-1.000000	139.103448	0.000000	-1.000000	-1.000000	435913.000000	1772918901.221390
-4614.390000	20717.505000	-18342.045000	-14776.560000	0.000000	0.000000	0.000000	0.000000	-14.722695	118.518028	-29.118991	-66.093652	-0.000000	0.000000	-0.000000	0.000000	-4.150720	-28.337820	17.503220	0.007690	0.828489	0.715696	-1.000000	-1.000000	-1.000000	-1.000000	-1.000000	-1.000000	-1.000000	139.103448	0.000000	-1.000000	-1.000000	435914.000000	1772918901.224222
-4633.515000	20656.035000	-18355.995000	-14763.195000	0.000000	0.000000	0.000000	0.000000	-7.461048	37.090807	-37.510109	-72.155334	-0.000000	0.000000	-0.000000	0.000000	-4.150720	-28.337820	17.503220	0.007690	0.828489	0.715696	-1.000000	-1.000000	-1.000000	-1.000000	-1.000000	-1.000000	-1.000000	139.103448	0.000000	-1.000000	-1.000000	435915.000000	1772918901.224225
-4654.620000	20684.205000	-18474.975000	-14777.325000	0.000000	0.000000	0.000000	0.000000	12.888875	-56.913176	-11.238531	-25.797036	-0.000000	0.000000	-0.000000	0.000000	-4.150720	-28.337820	17.503220	0.007690	0.828489	0.715696	-1.000000	-1.000000	-1.000000	-1.000000	-1.000000	-1.000000	-1.000000	139.103448	0.000000	-1.000000	-1.000000	435916.000000	1772918901.248864
-4482.225000	20732.400000	-18327.330000	-14562.990000	0.000000	0.000000	0.000000	0.000000	33.649370	-117.478780	16.960809	38.689449	-0.000000	0.000000	-0.000000	0.000000	-4.150720	-28.337820	17.503220	0.007690	0.828489	0.715696	-1.000000	-1.000000	-1.000000	-1.000000	-1.000000	-1.000000	-1.000000	139.103448	0.000000	-1.000000	-1.000000	435917.000000	1772918901.248869
-4448.205000	20808.180000	-18162.000000	-14482.440000	0.000000	0.000000	0.000000	0.000000	46.409944	-115.658313	29.886958	87.588448	-0.000000	0.000000	-0.000000	0.000000	-4.150720	-28.337820	17.503220	0.007690	0.828489	0.715696	-1.000000	-1.000000	-1.000000	-1.000000	-1.000000	-1.000000	-1.000000	139.103448	0.000000	-1.000000	-1.000000	435918.000000	1772918901.248874
-4577.625000	20864.430000	-18256.635000	-14662.980000	0.000000	0.000000	0.000000	0.000000	44.943408	-60.405214	33.826687	98.970022	-0.000000	0.000000	-0.000000	0.000000	-4.150720	-28.337820	17.503220	0.007690	0.828489	0.715696	-1.000000	-1.000000	-1.000000	-1.000000	-1.000000	-1.000000	-1.000000	139.103448	0.000000	-1.000000	-1.000000	435919.000000	1772918901.248877
-4671.765000	20918.160000	-18380.385000	-14768.010000	0.000000	0.000000	0.000000	0.000000	16.835626	11.625509	23.326497	55.769293	-0.000000	0.000000	-0.000000	0.000000	-4.150720	-28.337820	17.503220	0.007690	0.828489	0.715696	-1.000000	-1.000000	-1.000000	-1.000000	-1.000000	-1.000000	-1.000000	139.103448	0.000000	-1.000000	-1.000000	435920.000000	1772918901.248880
-4779.225000	20989.305000	-18682.020000	-14989.140000	0.000000	0.000000	0.000000	0.000000	-36.402760	62.621386	-17.241413	-33.895536	-0.000000	0.000000	-0.000000	0.000000	-4.150720	-28.337820	17.503220	0.007690	0.828489	0.715696	-1.000000	-1.000000	-1.000000	-1.000000	-1.000000	-1.000000	-1.000000	139.103448	0.000000	-1.000000	-1.000000	435921.000000	1772918901.248882
-4800.240000	20999.160000	-18794.970000	-15044.940000	0.000000	0.000000	0.000000	0.000000	-87.398846	73.751675	-82.039469	-126.702581	-0.000000	0.000000	-0.000000	0.000000	-4.150720	-28.337820	17.503220	0.007690	0.828489	0.715696	-1.000000	-1.000000	-1.000000	-1.000000	-1.000000	-1.000000	-1.000000	139.103448	0.000000	-1.000000	-1.000000	435922.000000	1772918901.248885
-4758.570000	20998.305000	-18663.975000	-14929.605000	0.000000	0.000000	0.000000	0.000000	-101.435392	47.284353	-128.923994	-166.255987	-0.000000	0.000000	-0.000000	0.000000	-4.150720	-28.337820	17.503220	0.007690	0.828489	0.715696	-1.000000	-1.000000	-1.000000	-1.000000	-1.000000	-1.000000	-1.000000	139.103448	0.000000	-1.000000	-1.000000	435923.000000	1772918901.248887
-4737.330000	20996.280000	-18580.995000	-14858.865000	0.000000	0.000000	0.000000	0.000000	-63.378599	-0.291553	-106.389147	-118.498860	-0.000000	0.000000	-0.000000	0.000000	33.236280	-48.221600	15.458380	0.008789	0.734007	0.765684	-1.000000	-1.000000	-1.000000	-1.000000	-1.000000	-1.000000	-1.000000	139.103448	0.000000	-1.000000	-1.000000	435924.000000	1772918901.248890
-4619.970000	21017.475000	-18452.925000	-14721.615000	0.000000	0.000000	0.000000	0.000000	10.606472	-45.583903	-7.391888	-1.388453	-0.000000	0.000000	-0.000000	0.000000	33.236280	-48.221600	15.458380	0.008789	0.734007	0.765684	-1.000000	-1.000000	-1.000000	-1.000000	-1.000000	-1.000000	-1.000000	139.103448	0.000000	-1.000000	-1.000000	435925.000000	1772918901.248892
-4554.540000	21084.480000	-18400.050000	-14650.245000	0.000000	0.000000	0.000000	0.000000	85.596104	-67.460531	115.758724	123.684301	-0.000000	0.000000	-0.000000	0.000000	33.236280	-48.221600	15.458380	0.008789	0.734007	0.765684	-1.000000	-1.000000	-1.000000	-1.000000	-1.000000	-1.000000	-1.000000	139.103448	0.000000	-1.000000	-1.000000	435926.000000	1772918901.248895
-4531.365000	21086.955000	-18394.290000	-14692.545000	0.000000	0.000000	0.000000	0.000000	127.465344	-57.657078	192.013500	191.519023	-0.000000	0.000000	-0.000000	0.000000	33.236280	-48.221600	15.458380	0.008789	0.734007	0.765684	-1.000000	-1.000000	-1.000000	-1.000000	-1.000000	-1.000000	-1.000000	139.103448	0.000000	-1.000000	-1.000000	435927.000000	1772918901.248897
-4375.350000	21144.645000	-18288.810000	-14608.215000	0.000000	0.000000	0.000000	0.000000	119.449537	-25.612631	181.993415	170.433103	-0.000000	0.000000	-0.000000	0.000000	33.236280	-48.221600	15.458380	0.008789	0.734007	0.765684	-1.000000	-1.000000	-1.000000	-1.000000	-1.000000	-1.000000	-1.000000	139.103448	0.000000	-1.000000	-1.000000	435928.000000	1772918901.250563
-4572.990000	21121.245000	-18487.530000	-14813.955000	0.000000	0.000000	0.000000	0.000000	67.550083	9.221174	95.931947	76.267199	-0.000000	0.000000	-0.000000	0.000000	33.236280	-48.221600	15.458380	0.008789	0.734007	0.765684	-1.000000	-1.000000	-1.000000	-1.000000	-1.000000	-1.000000	-1.000000	138.827586	0.000000	-1.000000	-1.000000	435929.000000	1772918901.250566
-4833.000000	21031.560000	-18702.450000	-15047.325000	0.000000	0.000000	0.000000	0.000000	-15.966312	28.045199	-29.810873	-49.670980	-0.000000	0.000000	-0.000000	0.000000	33.236280	-48.221600	15.458380	0.008789	0.734007	0.765684	-1.000000	-1.000000	-1.000000	-1.000000	-1.000000	-1.000000	-1.000000	138.827586	0.000000	-1.000000	-1.000000	435930.000000	1772918901.254441
-4718.205000	20989.305000	-18620.955000	-14968.935000	0.000000	0.000000	0.000000	0.000000	-109.121328	21.360009	-148.223046	-159.046995	-0.000000	0.000000	-0.000000	0.000000	33.236280	-48.221600	15.458380	0.008789	0.734007	0.765684	-1.000000	-1.000000	-1.000000	-1.000000	-1.000000	-1.000000	-1.000000	138.827586	0.000000	-1.000000	-1.000000	435931.000000	1772918901.254444
-4734.855000	20937.195000	-18622.485000	-14887.800000	0.000000	0.000000	0.000000	0.000000	-163.404381	-2.867455	-203.173249	-197.968110	-0.000000	0.000000	-0.000000	0.000000	33.236280	-48.221600	15.458380	0.008789	0.734007	0.765684	-1.000000	-1.000000	-1.000000	-1.000000	-1.000000	-1.000000	-1.000000	138.827586	0.000000	-1.000000	-1.000000	435932.000000	1772918901.259150
-4588.965000	20836.395000	-18450.000000	-14710.995000	0.000000	0.000000	0.000000	0.000000	-137.898333	-25.736426	-161.940223	-137.233196	-0.000000	0.000000	-0.000000	0.000000	33.236280	-48.221600	15.458380	0.008789	0.734007	0.765684	-1.000000	-1.000000	-1.000000	-1.000000	-1.000000	-1.000000	-1.000000	138.827586	0.000000	-1.000000	-1.000000	435933.000000	1772918901.259152
-4477.995000	20780.370000	-18341.910000	-14609.475000	0.000000	0.000000	0.000000	0.000000	-41.384590	-33.932498	-44.817655	-5.463686	-0.000000	0.000000	-0.000000	0.000000	59.208800	-53.516820	35.098000	-0.025207	0.718626	0.790708	-1.000000	-1.000000	-1.000000	-1.000000	-1.000000	-1.000000	-1.000000	138.827586	0.000000	-1.000000	-1.000000	435934.000000	1772918901.262553
-4511.655000	20787.705000	-18363.735000	-14656.050000	0.000000	0.000000	0.000000	0.000000	73.253166	-23.394307	85.572482	123.559631	-0.000000	0.000000	-0.000000	0.000000	59.208800	-53.516820	35.098000	-0.025207	0.718626	0.790708	-1.000000	-1.000000	-1.000000	-1.000000	-1.000000	-1.000000	-1.000000	138.827586	0.000000	-1.000000	-1.000000	435935.000000	1772918901.262556
-4597.740000	20811.150000	-18439.200000	-14731.470000	0.000000	0.000000	0.000000	0.000000	140.836402	4.711578	158.623582	176.763740	-0.000000	0.000000	-0.000000	0.000000	59.208800	-53.516820	35.098000	-0.025207	0.718626	0.790708	-1.000000	-1.000000	-1.000000	-1.000000	-1.000000	-1.000000	-1.000000	138.827586	0.000000	-1.000000	-1.000000	435936.000000	1772918901.268161
-4686.030000	20789.145000	-18494.145000	-14792.715000	0.000000	0.000000	0.000000	0.000000	125.077672	41.127074	139.381534	129.694413	-0.000000	0.000000	-0.000000	0.000000	59.208800	-53.516820	35.098000	-0.025207	0.718626	0.790708	-1.000000	-1.000000	-1.000000	-1.000000	-1.000000	-1.000000	-1.000000	138.827586	0.000000	-1.000000	-1.000000	435937.000000	1772918901.268164
-4693.545000	20672.640000	-18499.230000	-14837.895000	0.000000	0.000000	0.000000	0.000000	44.299728	66.048649	51.399085	20.082268	-0.000000	0.000000	-0.000000	0.000000	59.208800	-53.516820	35.098000	-0.025207	0.718626	0.790708	-1.000000	-1.000000	-1.000000	-1.000000	-1.000000	-1.000000	-1.000000	138.827586	0.000000	-1.000000	-1.000000	435938.000000	1772918901.270746
-4689.045000	20629.260000	-18563.625000	-14880.780000	0.000000	0.000000	0.000000	0.000000	-44.933645	61.046639	-46.385680	-85.082819	-0.000000	0.000000	-0.000000	0.000000	59.208800	-53.516820	35.098000	-0.025207	0.718626	0.790708	-1.000000	-1.000000	-1.000000	-1.000000	-1.000000	-1.000000	-1.000000	138.827586	0.000000	-1.000000	-1.000000	435939.000000	1772918901.270748
-4736.250000	20607.705000	-18633.690000	-14922.495000	0.000000	0.000000	0.000000	0.000000	-92.195042	28.302717	-105.179675	-135.244854	-0.000000	0.000000	-0.000000	0.000000	59.208800	-53.516820	35.098000	-0.025207	0.718626	0.790708	-1.000000	-1.000000	-1.000000	-1.000000	-1.000000	-1.000000	-1.000000	138.827586	0.000000	-1.000000	-1.000000	435940.000000	1772918901.274616
-4571.550000	20560.185000	-18517.905000	-14766.570000	0.000000	0.000000	0.000000	0.000000	-81.583544	-10.068878	-107.366033	-115.721177	-0.000000	0.000000	-0.000000	0.000000	59.208800	-53.516820	35.098000	-0.025207	0.718626	0.790708	-1.000000	-1.000000	-1.000000	-1.000000	-1.000000	-1.000000	-1.000000	138.827586	0.000000	-1.000000	-1.000000	435941.000000	1772918901.274619
-4414.770000	20616.795000	-18380.925000	-14576.805000	0.000000	0.000000	0.000000	0.000000	-24.529923	-31.902308	-57.119687	-39.104325	-0.000000	0.000000	-0.000000	0.000000	59.208800	-53.516820	35.098000	-0.025207	0.718626	0.790708	-1.000000	-1.000000	-1.000000	-1.000000	-1.000000	-1.000000	-1.000000	138.827586	0.000000	-1.000000	-1.000000	435942.000000	1772918901.278586
-4455.540000	20667.960000	-18364.095000	-14559.615000	0.000000	0.000000	0.000000	0.000000	48.466606	-27.248435	22.649076	60.008438	-0.000000	0.000000	-0.000000	0.000000	59.208800	-53.516820	35.098000	-0.025207	0.718626	0.790708	-1.000000	-1.000000	-1.000000	-1.000000	-1.000000	-1.000000	-1.000000	138.827586	0.000000	-1.000000	-1.000000	435943.000000	1772918901.278589
-4478.670000	20617.785000	-18437.445000	-14652.630000	0.000000	0.000000	0.000000	0.000000	92.260792	-3.011361	88.140476	127.318984	-0.000000	0.000000	-0.000000	0.000000	-46.665080	-68.715780	51.197300	-0.026916	0.814146	0.740965	-1.000000	-1.000000	-1.000000	-1.000000	-1.000000	-1.000000	-1.000000	138.827586	0.000000	-1.000000	-1.000000	435944.000000	1772918901.282425
-4656.960000	20580.345000	-18668.205000	-14812.830000	0.000000	0.000000	0.000000	0.000000	74.540154	18.681314	95.648618	117.646143	-0.000000	0.000000	-0.000000	0.000000	-46.665080	-68.715780	51.197300	-0.026916	0.814146	0.740965	-1.000000	-1.000000	-1.000000	-1.000000	-1.000000	-1.000000	-1.000000	138.827586	0.000000	-1.000000	-1.000000	435945.000000	1772918901.282428
-4668.930000	20459.475000	-18597.555000	-14809.455000	0.000000	0.000000	0.000000	0.000000	3.436934	17.521441	38.572304	34.790546	-0.000000	0.000000	-0.000000	0.000000	-46.665080	-68.715780	51.197300	-0.026916	0.814146	0.740965	-1.000000	-1.000000	-1.000000	-1.000000	-1.000000	-1.000000	-1.000000	138.827586	0.000000	-1.000000	-1.000000	435946.000000	1772918901.286606
-4592.475000	20464.425000	-18623.250000	-14897.295000	0.000000	0.000000	0.000000	0.000000	-73.563698	-7.029402	-38.816632	-66.605323	-0.000000	0.000000	-0.000000	0.000000	-46.665080	-68.715780	51.197300	-0.026916	0.814146	0.740965	-1.000000	-1.000000	-1.000000	-1.000000	-1.000000	-1.000000	-1.000000	138.827586	0.000000	-1.000000	-1.000000	435947.000000	1772918901.286609
-4674.375000	20496.150000	-18708.165000	-14943.060000	0.000000	0.000000	0.000000	0.000000	-105.019857	-33.815985	-82.122215	-126.472823	-0.000000	0.000000	-0.000000	0.000000	-46.665080	-68.715780	51.197300	-0.026916	0.814146	0.740965	-1.000000	-1.000000	-1.000000	-1.000000	-1.000000	-1.000000	-1.000000	138.827586	0.000000	-1.000000	-1.000000	435948.000000	1772918901.293432
-4664.565000	20496.330000	-18507.870000	-14771.880000	0.000000	0.000000	0.000000	0.000000	-78.805278	-38.550285	-71.089655	-117.045990	-0.000000	0.000000	-0.000000	0.000000	-46.665080	-68.715780	51.197300	-0.026916	0.814146	0.740965	-1.000000	-1.000000	-1.000000	-1.000000	-1.000000	-1.000000	-1.000000	138.827586	0.000000	-1.000000	-1.000000	435949.000000	1772918901.293435
-4423.095000	20380.320000	-18180.360000	-14464.170000	0.000000	0.000000	0.000000	0.000000	-16.810642	-19.353168	-10.897269	-40.637658	-0.000000	0.000000	-0.000000	0.000000	-46.665080	-68.715780	51.197300	-0.026916	0.814146	0.740965	-1.000000	-1.000000	-1.000000	-1.000000	-1.000000	-1.000000	-1.000000	138.827586	0.000000	-1.000000	-1.000000	435950.000000	1772918901.293439
-4408.740000	20167.380000	-18235.890000	-14464.665000	0.000000	0.000000	0.000000	0.000000	55.102792	0.015126	74.479980	71.386137	-0.000000	0.000000	-0.000000	0.000000	-46.665080	-68.715780	51.197300	-0.026916	0.814146	0.740965	-1.000000	-1.000000	-1.000000	-1.000000	-1.000000	-1.000000	-1.000000	138.827586	0.000000	-1.000000	-1.000000	435951.000000	1772918901.293441
-4476.510000	20105.100000	-18362.385000	-14608.935000	0.000000	0.000000	0.000000	0.000000	105.524173	-2.480036	128.927078	152.812002	-0.000000	0.000000	-0.000000	0.000000	-46.665080	-68.715780	51.197300	-0.026916	0.814146	0.740965	-1.000000	-1.000000	-1.000000	-1.000000	-1.000000	-1.000000	-1.000000	138.827586	0.000000	-1.000000	-1.000000	435952.000000	1772918901.298703
-4532.715000	20055.870000	-18389.430000	-14681.295000	0.000000	0.000000	0.000000	0.000000	101.838856	-19.626455	101.455980	142.215817	-0.000000	0.000000	-0.000000	0.000000	-46.665080	-68.715780	51.197300	-0.026916	0.814146	0.740965	-1.000000	-1.000000	-1.000000	-1.000000	-1.000000	-1.000000	-1.000000	138.827586	0.000000	-1.000000	-1.000000	435953.000000	1772918901.298706
-4574.430000	19934.775000	-18387.045000	-14706.855000	0.000000	0.000000	0.000000	0.000000	42.120259	-26.430069	4.820036	43.506316	-0.000000	0.000000	-0.000000	0.000000	-115.319820	-41.705580	25.987780	0.023376	0.871153	0.655455	-1.000000	-1.000000	-1.000000	-1.000000	-1.000000	-1.000000	-1.000000	138.827586	0.000000	-1.000000	-1.000000	435954.000000	1772918901.302661
-4719.600000	19745.640000	-18589.185000	-14853.420000	0.000000	0.000000	0.000000	0.000000	-39.712390	-14.307702	-98.976497	-78.262031	-0.000000	0.000000	-0.000000	0.000000	-115.319820	-41.705580	25.987780	0.023376	0.871153	0.655455	-1.000000	-1.000000	-1.000000	-1.000000	-1.000000	-1.000000	-1.000000	138.827586	0.000000	-1.000000	-1.000000	435955.000000	1772918901.302664
-4632.165000	19743.885000	-18537.390000	-14774.445000	0.000000	0.000000	0.000000	0.000000	-100.329475	5.793588	-156.710096	-154.280689	-0.000000	0.000000	-0.000000	0.000000	-115.319820	-41.705580	25.987780	0.023376	0.871153	0.655455	-1.000000	-1.000000	-1.000000	-1.000000	-1.000000	-1.000000	-1.000000	138.827586	0.000000	-1.000000	-1.000000	435956.000000	1772918901.306710
-4459.680000	19711.935000	-18309.555000	-14616.900000	0.000000	0.000000	0.000000	0.000000	-105.299376	26.912572	-141.628180	-147.143821	-0.000000	0.000000	-0.000000	0.000000	-115.319820	-41.705580	25.987780	0.023376	0.871153	0.655455	-1.000000	-1.000000	-1.000000	-1.000000	-1.000000	-1.000000	-1.000000	138.827586	0.000000	-1.000000	-1.000000	435957.000000	1772918901.306713
-4342.365000	19698.075000	-18204.930000	-14526.495000	0.000000	0.000000	0.000000	0.000000	-45.559447	49.212947	-53.247585	-61.238101	-0.000000	0.000000	-0.000000	0.000000	-115.319820	-41.705580	25.987780	0.023376	0.871153	0.655455	-1.000000	-1.000000	-1.000000	-1.000000	-1.000000	-1.000000	-1.000000	138.827586	0.000000	-1.000000	-1.000000	435958.000000	1772918901.309841
-4467.195000	19731.240000	-18348.480000	-14498.190000	0.000000	0.000000	0.000000	0.000000	42.932935	67.876935	63.632269	54.431732	-0.000000	0.000000	-0.000000	0.000000	-115.319820	-41.705580	25.987780	0.023376	0.871153	0.655455	-1.000000	-1.000000	-1.000000	-1.000000	-1.000000	-1.000000	-1.000000	138.827586	0.000000	-1.000000	-1.000000	435959.000000	1772918901.309844
-4451.175000	19846.485000	-18418.995000	-14512.815000	0.000000	0.000000	0.000000	0.000000	97.770031	76.251846	134.066083	132.998435	-0.000000	0.000000	-0.000000	0.000000	-115.319820	-41.705580	25.987780	0.023376	0.871153	0.655455	-1.000000	-1.000000	-1.000000	-1.000000	-1.000000	-1.000000	-1.000000	138.827586	0.000000	-1.000000	-1.000000	435960.000000	1772918901.317269
-4455.450000	19939.005000	-18376.875000	-14619.285000	0.000000	0.000000	0.000000	0.000000	86.215803	72.964397	118.868374	133.407368	-0.000000	0.000000	-0.000000	0.000000	-115.319820	-41.705580	25.987780	0.023376	0.871153	0.655455	-1.000000	-1.000000	-1.000000	-1.000000	-1.000000	-1.000000	-1.000000	138.827586	0.000000	-1.000000	-1.000000	435961.000000	1772918901.317271
-4496.130000	19926.810000	-18373.275000	-14624.190000	0.000000	0.000000	0.000000	0.000000	27.859734	56.229645	47.134396	62.891193	-0.000000	0.000000	-0.000000	0.000000	-115.319820	-41.705580	25.987780	0.023376	0.871153	0.655455	-1.000000	-1.000000	-1.000000	-1.000000	-1.000000	-1.000000	-1.000000	138.827586	0.000000	-1.000000	-1.000000	435962.000000	1772918901.320220
-4541.445000	19718.235000	-18424.215000	-14664.150000	0.000000	0.000000	0.000000	0.000000	-36.415433	16.767853	-25.081731	-31.829312	-0.000000	0.000000	-0.000000	0.000000	-115.319820	-41.705580	25.987780	0.023376	0.871153	0.655455	-1.000000	-1.000000	-1.000000	-1.000000	-1.000000	-1.000000	-1.000000	138.827586	0.000000	-1.000000	-1.000000	435963.000000	1772918901.320222
-4638.240000	19636.020000	-18541.980000	-14760.855000	0.000000	0.000000	0.000000	0.000000	-77.147684	-50.297270	-66.069519	-99.307592	-0.000000	0.000000	-0.000000	0.000000	-183.486240	-13.627180	-18.052580	0.087524	0.786802	0.548277	-1.000000	-1.000000	-1.000000	-1.000000	-1.000000	-1.000000	-1.000000	138.827586	0.000000	-1.000000	-1.000000	435964.000000	1772918901.323148
-4586.265000	19608.750000	-18534.420000	-14756.895000	0.000000	0.000000	0.000000	0.000000	-83.087210	-122.278746	-74.223581	-114.961084	-0.000000	0.000000	-0.000000	0.000000	-183.486240	-13.627180	-18.052580	0.087524	0.786802	0.548277	-1.000000	-1.000000	-1.000000	-1.000000	-1.000000	-1.000000	-1.000000	138.827586	0.000000	-1.000000	-1.000000	435965.000000	1772918901.323150
-4498.380000	19602.090000	-18365.175000	-14638.995000	0.000000	0.000000	0.000000	0.000000	-53.186991	-155.815308	-53.258619	-79.812856	-0.000000	0.000000	-0.000000	0.000000	-183.486240	-13.627180	-18.052580	0.087524	0.786802	0.548277	-1.000000	-1.000000	-1.000000	-1.000000	-1.000000	-1.000000	-1.000000	138.827586	0.000000	-1.000000	-1.000000	435966.000000	1772918901.334139
-4381.740000	19658.205000	-18096.840000	-14457.285000	0.000000	0.000000	0.000000	0.000000	4.926471	-124.544635	-0.802504	-6.922195	-0.000000	0.000000	-0.000000	0.000000	-183.486240	-13.627180	-18.052580	0.087524	0.786802	0.548277	-1.000000	-1.000000	-1.000000	-1.000000	-1.000000	-1.000000	-1.000000	138.827586	0.000000	-1.000000	-1.000000	435967.000000	1772918901.334142
-4376.295000	19571.445000	-18112.860000	-14575.365000	0.000000	0.000000	0.000000	0.000000	67.867948	-42.722642	70.610917	74.187903	-0.000000	0.000000	-0.000000	0.000000	-183.486240	-13.627180	-18.052580	0.087524	0.786802	0.548277	-1.000000	-1.000000	-1.000000	-1.000000	-1.000000	-1.000000	-1.000000	138.827586	0.000000	-1.000000	-1.000000	435968.000000	1772918901.334146
-4466.475000	19507.635000	-18162.405000	-14594.040000	0.000000	0.000000	0.000000	0.000000	100.433629	43.918468	117.180641	117.491395	-0.000000	0.000000	-0.000000	0.000000	-183.486240	-13.627180	-18.052580	0.087524	0.786802	0.548277	-1.000000	-1.000000	-1.000000	-1.000000	-1.000000	-1.000000	-1.000000	138.827586	0.000000	-1.000000	-1.000000	435969.000000	1772918901.334149
-4452.345000	19540.440000	-18305.055000	-14506.920000	0.000000	0.000000	0.000000	0.000000	79.864792	93.528500	95.079944	97.450633	-0.000000	0.000000	-0.000000	0.000000	-183.486240	-13.627180	-18.052580	0.087524	0.786802	0.548277	-1.000000	-1.000000	-1.000000	-1.000000	-1.000000	-1.000000	-1.000000	138.827586	0.000000	-1.000000	-1.000000	435970.000000	1772918901.334153
-4611.240000	19520.280000	-18598.815000	-14714.865000	0.000000	0.000000	0.000000	0.000000	16.590445	97.397143	2.446022	32.518964	-0.000000	0.000000	-0.000000	0.000000	-183.486240	-13.627180	-18.052580	0.087524	0.786802	0.548277	-1.000000	-1.000000	-1.000000	-1.000000	-1.000000	-1.000000	-1.000000	138.827586	0.000000	-1.000000	-1.000000	435971.000000	1772918901.334155
-4702.050000	19429.155000	-18560.205000	-14852.655000	0.000000	0.000000	0.000000	0.000000	-56.775110	70.167691	-114.312914	-44.584208	-0.000000	0.000000	-0.000000	0.000000	-183.486240	-13.627180	-18.052580	0.087524	0.786802	0.548277	-1.000000	-1.000000	-1.000000	-1.000000	-1.000000	-1.000000	-1.000000	138.827586	0.000000	-1.000000	-1.000000	435972.000000	1772918901.337831
-4539.285000	19398.645000	-18290.520000	-14785.920000	0.000000	0.000000	0.000000	0.000000	-102.928735	28.092043	-178.293107	-104.431729	-0.000000	0.000000	-0.000000	0.000000	-183.486240	-13.627180	-18.052580	0.087524	0.786802	0.548277	-1.000000	-1.000000	-1.000000	-1.000000	-1.000000	-1.000000	-1.000000	138.827586	0.000000	-1.000000	-1.000000	435973.000000	1772918901.337834
-4552.920000	19455.210000	-18278.820000	-14713.335000	0.000000	0.000000	0.000000	0.000000	-92.524220	-11.632706	-134.086780	-114.815403	-0.000000	0.000000	-0.000000	0.000000	-119.882560	3.769220	-15.961960	0.114685	0.659239	0.569640	-1.000000	-1.000000	-1.000000	-1.000000	-1.000000	-1.000000	-1.000000	138.827586	0.000000	-1.000000	-1.000000	435974.000000	1772918901.343463
-4557.915000	19525.905000	-18403.785000	-14660.820000	0.000000	0.000000	0.000000	0.000000	-31.004899	-29.758462	-10.383857	-62.725233	-0.000000	0.000000	-0.000000	0.000000	-119.882560	3.769220	-15.961960	0.114685	0.659239	0.569640	-1.000000	-1.000000	-1.000000	-1.000000	-1.000000	-1.000000	-1.000000	138.827586	0.000000	-1.000000	-1.000000	435975.000000	1772918901.343466
-4429.935000	19675.350000	-18472.680000	-14583.780000	0.000000	0.000000	0.000000	0.000000	42.009992	-17.229104	100.393244	24.565653	-0.000000	0.000000	-0.000000	0.000000	-119.882560	3.769220	-15.961960	0.114685	0.659239	0.569640	-1.000000	-1.000000	-1.000000	-1.000000	-1.000000	-1.000000	-1.000000	138.827586	0.000000	-1.000000	-1.000000	435976.000000	1772918901.346588
-4296.195000	19721.295000	-18296.235000	-14497.875000	0.000000	0.000000	0.000000	0.000000	92.447071	15.474031	135.758885	99.838691	-0.000000	0.000000	-0.000000	0.000000	-119.882560	3.769220	-15.961960	0.114685	0.659239	0.569640	-1.000000	-1.000000	-1.000000	-1.000000	-1.000000	-1.000000	-1.000000	138.827586	0.000000	-1.000000	-1.000000	435977.000000	1772918901.346591
-4448.655000	19645.965000	-18365.535000	-14586.570000	0.000000	0.000000	0.000000	0.000000	104.726158	40.494212	105.961968	126.399061	-0.000000	0.000000	-0.000000	0.000000	-119.882560	3.769220	-15.961960	0.114685	0.659239	0.569640	-1.000000	-1.000000	-1.000000	-1.000000	-1.000000	-1.000000	-1.000000	138.827586	0.000000	-1.000000	-1.000000	435978.000000	1772918901.350679
-4594.545000	19637.100000	-18544.995000	-14818.995000	0.000000	0.000000	0.000000	0.000000	67.852110	30.867420	46.763972	87.973931	-0.000000	0.000000	-0.000000	0.000000	-119.882560	3.769220	-15.961960	0.114685	0.659239	0.569640	-1.000000	-1.000000	-1.000000	-1.000000	-1.000000	-1.000000	-1.000000	138.827586	0.000000	-1.000000	-1.000000	435979.000000	1772918901.350681
-4628.115000	19590.840000	-18565.605000	-14854.725000	0.000000	0.000000	0.000000	0.000000	-11.333567	-13.450416	-20.260095	-3.066690	-0.000000	0.000000	-0.000000	0.000000	-119.882560	3.769220	-15.961960	0.114685	0.659239	0.569640	-1.000000	-1.000000	-1.000000	-1.000000	-1.000000	-1.000000	-1.000000	138.827586	0.000000	-1.000000	-1.000000	435980.000000	1772918901.354623
-4679.595000	19624.770000	-18488.250000	-14768.955000	0.000000	0.000000	0.000000	0.000000	-92.121162	-63.750588	-71.982563	-95.858871	-0.000000	0.000000	-0.000000	0.000000	-119.882560	3.769220	-15.961960	0.114685	0.659239	0.569640	-1.000000	-1.000000	-1.000000	-1.000000	-1.000000	-1.000000	-1.000000	138.827586	0.000000	-1.000000	-1.000000	435981.000000	1772918901.354626
-4656.690000	19671.210000	-18445.500000	-14817.240000	0.000000	0.000000	0.000000	0.000000	-126.715518	-86.446302	-80.455378	-130.800730	-0.000000	0.000000	-0.000000	0.000000	-119.882560	3.769220	-15.961960	0.114685	0.659239	0.569640	-1.000000	-1.000000	-1.000000	-1.000000	-1.000000	-1.000000	-1.000000	138.827586	0.000000	-1.000000	-1.000000	435982.000000	1772918901.359594
-4506.210000	19693.395000	-18303.525000	-14653.620000	0.000000	0.000000	0.000000	0.000000	-94.711664	-67.175988	-39.902782	-89.827245	-0.000000	0.000000	-0.000000	0.000000	-119.882560	3.769220	-15.961960	0.114685	0.659239	0.569640	-1.000000	-1.000000	-1.000000	-1.000000	-1.000000	-1.000000	-1.000000	138.827586	0.000000	-1.000000	-1.000000	435983.000000	1772918901.359597
-4480.830000	19831.140000	-18124.920000	-14471.775000	0.000000	0.000000	0.000000	0.000000	-11.890674	-17.185391	27.387135	0.410095	-0.000000	0.000000	-0.000000	0.000000	-55.149640	6.348160	0.961380	0.103576	0.579649	0.632506	-1.000000	-1.000000	-1.000000	-1.000000	-1.000000	-1.000000	-1.000000	138.827586	0.000000	-1.000000	-1.000000	435984.000000	1772918901.362917
-4413.510000	19897.155000	-18313.515000	-14554.305000	0.000000	0.000000	0.000000	0.000000	77.459826	39.498809	82.606096	91.994861	-0.000000	0.000000	-0.000000	0.000000	-55.149640	6.348160	0.961380	0.103576	0.579649	0.632506	-1.000000	-1.000000	-1.000000	-1.000000	-1.000000	-1.000000	-1.000000	138.827586	0.000000	-1.000000	-1.000000	435985.000000	1772918901.362920
-4531.860000	19929.645000	-18617.400000	-14791.275000	0.000000	0.000000	0.000000	0.000000	123.948587	78.009378	79.971643	128.427890	-0.000000	0.000000	-0.000000	0.000000	-55.149640	6.348160	0.961380	0.103576	0.579649	0.632506	-1.000000	-1.000000	-1.000000	-1.000000	-1.000000	-1.000000	-1.000000	138.827586	0.000000	-1.000000	-1.000000	435986.000000	1772918901.366809
-4834.485000	19926.585000	-18694.530000	-14878.980000	0.000000	0.000000	0.000000	0.000000	97.927625	79.867945	3.007344	78.230595	-0.000000	0.000000	-0.000000	0.000000	-55.149640	6.348160	0.961380	0.103576	0.579649	0.632506	-1.000000	-1.000000	-1.000000	-1.000000	-1.000000	-1.000000	-1.000000	138.827586	0.000000	-1.000000	-1.000000	435987.000000	1772918901.366811
-4641.795000	19971.180000	-18432.630000	-14758.110000	0.000000	0.000000	0.000000	0.000000	11.805312	44.532287	-94.738766	-23.953770	-0.000000	0.000000	-0.000000	0.000000	-55.149640	6.348160	0.961380	0.103576	0.579649	0.632506	-1.000000	-1.000000	-1.000000	-1.000000	-1.000000	-1.000000	-1.000000	138.827586	0.000000	-1.000000	-1.000000	435988.000000	1772918901.370826
-4493.565000	19923.300000	-18402.525000	-14707.170000	0.000000	0.000000	0.000000	0.000000	-69.862897	-8.735374	-126.899026	-98.941871	-0.000000	0.000000	-0.000000	0.000000	-55.149640	6.348160	0.961380	0.103576	0.579649	0.632506	-1.000000	-1.000000	-1.000000	-1.000000	-1.000000	-1.000000	-1.000000	138.827586	0.000000	-1.000000	-1.000000	435989.000000	1772918901.370828
-4523.490000	19888.290000	-18367.920000	-14677.380000	0.000000	0.000000	0.000000	0.000000	-84.289668	-56.089587	-65.902104	-97.314356	-0.000000	0.000000	-0.000000	0.000000	-55.149640	6.348160	0.961380	0.103576	0.579649	0.632506	-1.000000	-1.000000	-1.000000	-1.000000	-1.000000	-1.000000	-1.000000	138.827586	0.000000	-1.000000	-1.000000	435990.000000	1772918901.374986
-4739.400000	19824.615000	-18557.730000	-14820.930000	0.000000	0.000000	0.000000	0.000000	-40.577340	-82.297003	31.443314	-38.608526	-0.000000	0.000000	-0.000000	0.000000	-55.149640	6.348160	0.961380	0.103576	0.579649	0.632506	-1.000000	-1.000000	-1.000000	-1.000000	-1.000000	-1.000000	-1.000000	138.827586	0.000000	-1.000000	-1.000000	435991.000000	1772918901.374989
-4623.345000	19772.910000	-18431.865000	-14669.145000	0.000000	0.000000	0.000000	0.000000	4.440659	-82.305847	90.677522	23.535255	-0.000000	0.000000	-0.000000	0.000000	-55.149640	6.348160	0.961380	0.103576	0.579649	0.632506	-1.000000	-1.000000	-1.000000	-1.000000	-1.000000	-1.000000	-1.000000	138.827586	0.000000	-1.000000	-1.000000	435992.000000	1772918901.378978
-4600.350000	19725.480000	-18403.515000	-14644.890000	0.000000	0.000000	0.000000	0.000000	22.374026	-59.099991	89.270478	57.996544	-0.000000	0.000000	-0.000000	0.000000	-55.149640	6.348160	0.961380	0.103576	0.579649	0.632506	-1.000000	-1.000000	-1.000000	-1.000000	-1.000000	-1.000000	-1.000000	138.827586	0.000000	-1.000000	-1.000000	435993.000000	1772918901.378981
-4649.535000	19687.185000	-18465.435000	-14670.180000	0.000000	0.000000	0.000000	0.000000	23.487629	-21.335214	52.253133	63.763140	-0.000000	0.000000	-0.000000	0.000000	-62.398140	17.732120	13.444060	0.102783	0.633360	0.660094	-1.000000	-1.000000	-1.000000	-1.000000	-1.000000	-1.000000	-1.000000	138.827586	0.000000	-1.000000	-1.000000	435994.000000	1772918901.383603
-4708.170000	19685.565000	-18510.345000	-14720.940000	0.000000	0.000000	0.000000	0.000000	17.365473	19.916646	6.226280	44.815512	-0.000000	0.000000	-0.000000	0.000000	-62.398140	17.732120	13.444060	0.102783	0.633360	0.660094	-1.000000	-1.000000	-1.000000	-1.000000	-1.000000	-1.000000	-1.000000	138.827586	0.000000	-1.000000	-1.000000	435995.000000	1772918901.383607
-4647.330000	19706.490000	-18588.780000	-14840.505000	0.000000	0.000000	0.000000	0.000000	5.873857	54.987232	-35.143509	5.694021	-0.000000	0.000000	-0.000000	0.000000	-62.398140	17.732120	13.444060	0.102783	0.633360	0.660094	-1.000000	-1.000000	-1.000000	-1.000000	-1.000000	-1.000000	-1.000000	138.827586	0.000000	-1.000000	-1.000000	435996.000000	1772918901.393447
-4554.540000	19598.985000	-18431.370000	-14767.965000	0.000000	0.000000	0.000000	0.000000	-1.758637	74.927447	-58.566370	-38.508861	-0.000000	0.000000	-0.000000	0.000000	-62.398140	17.732120	13.444060	0.102783	0.633360	0.660094	-1.000000	-1.000000	-1.000000	-1.000000	-1.000000	-1.000000	-1.000000	138.827586	0.000000	-1.000000	-1.000000	435997.000000	1772918901.393450
-4617.135000	19553.355000	-18450.495000	-14705.460000	0.000000	0.000000	0.000000	0.000000	2.851840	70.432496	-50.462325	-61.496008	-0.000000	0.000000	-0.000000	0.000000	-62.398140	17.732120	13.444060	0.102783	0.633360	0.660094	-1.000000	-1.000000	-1.000000	-1.000000	-1.000000	-1.000000	-1.000000	138.827586	0.000000	-1.000000	-1.000000	435998.000000	1772918901.412790
-4583.205000	19570.905000	-18407.880000	-14587.470000	0.000000	0.000000	0.000000	0.000000	11.904042	42.771189	-14.718052	-44.175523	-0.000000	0.000000	-0.000000	0.000000	-62.398140	17.732120	13.444060	0.102783	0.633360	0.660094	-1.000000	-1.000000	-1.000000	-1.000000	-1.000000	-1.000000	-1.000000	138.827586	0.000000	-1.000000	-1.000000	435999.000000	1772918901.412792
-4396.185000	19636.020000	-18234.990000	-14410.215000	0.000000	0.000000	0.000000	0.000000	15.828838	10.810968	27.283949	7.121626	-0.000000	0.000000	-0.000000	0.000000	-62.398140	17.732120	13.444060	0.102783	0.633360	0.660094	-1.000000	-1.000000	-1.000000	-1.000000	-1.000000	-1.000000	-1.000000	138.827586	0.000000	-1.000000	-1.000000	436000.000000	1772918901.412797
-4363.380000	19727.325000	-18192.870000	-14481.450000	0.000000	0.000000	0.000000	0.000000	18.620235	-3.983297	57.857060	62.060460	-0.000000	0.000000	-0.000000	0.000000	-62.398140	17.732120	13.444060	0.102783	0.633360	0.660094	-1.000000	-1.000000	-1.000000	-1.000000	-1.000000	-1.000000	-1.000000	138.827586	0.000000	-1.000000	-1.000000	436001.000000	1772918901.412800
-4422.195000	19825.155000	-18221.085000	-14619.645000	0.000000	0.000000	0.000000	0.000000	19.696664	3.993128	64.674013	79.154996	-0.000000	0.000000	-0.000000	0.000000	-62.398140	17.732120	13.444060	0.102783	0.633360	0.660094	-1.000000	-1.000000	-1.000000	-1.000000	-1.000000	-1.000000	-1.000000	138.827586	0.000000	-1.000000	-1.000000	436002.000000	1772918901.412804
-4545.405000	19921.095000	-18372.600000	-14796.315000	0.000000	0.000000	0.000000	0.000000	3.931305	22.551439	36.047929	34.011604	-0.000000	0.000000	-0.000000	0.000000	-62.398140	17.732120	13.444060	0.102783	0.633360	0.660094	-1.000000	-1.000000	-1.000000	-1.000000	-1.000000	-1.000000	-1.000000	138.827586	0.000000	-1.000000	-1.000000	436003.000000	1772918901.412806
-4917.690000	19890.180000	-18737.190000	-15068.700000	0.000000	0.000000	0.000000	0.000000	-40.590821	31.258983	-30.372408	-56.203980	-0.000000	0.000000	-0.000000	0.000000	-78.375360	35.021700	6.088740	0.103149	0.683226	0.664610	-1.000000	-1.000000	-1.000000	-1.000000	-1.000000	-1.000000	-1.000000	138.827586	0.000000	-1.000000	-1.000000	436004.000000	1772918901.412810
-4955.805000	19838.880000	-18621.045000	-14876.325000	0.000000	0.000000	0.000000	0.000000	-102.909880	13.163088	-111.277761	-136.906164	-0.000000	0.000000	-0.000000	0.000000	-78.375360	35.021700	6.088740	0.103149	0.683226	0.664610	-1.000000	-1.000000	-1.000000	-1.000000	-1.000000	-1.000000	-1.000000	138.827586	0.000000	-1.000000	-1.000000	436005.000000	1772918901.412812
-4652.865000	19722.285000	-18375.660000	-14810.940000	0.000000	0.000000	0.000000	0.000000	-135.166698	-32.998968	-147.644323	-144.410416	-0.000000	0.000000	-0.000000	0.000000	-78.375360	35.021700	6.088740	0.103149	0.683226	0.664610	-1.000000	-1.000000	-1.000000	-1.000000	-1.000000	-1.000000	-1.000000	138.827586	0.000000	-1.000000	-1.000000	436006.000000	1772918901.412815
-4622.220000	19603.260000	-18220.905000	-14722.245000	0.000000	0.000000	0.000000	0.000000	-84.075501	-88.783879	-88.262851	-58.440254	-0.000000	0.000000	-0.000000	0.000000	-78.375360	35.021700	6.088740	0.103149	0.683226	0.664610	-1.000000	-1.000000	-1.000000	-1.000000	-1.000000	-1.000000	-1.000000	138.827586	0.000000	-1.000000	-1.000000	436007.000000	1772918901.412818
-4614.480000	19575.765000	-17914.230000	-14510.160000	0.000000	0.000000	0.000000	0.000000	37.590636	-124.869708	48.106953	74.400797	-0.000000	0.000000	-0.000000	0.000000	-78.375360	35.021700	6.088740	0.103149	0.683226	0.664610	-1.000000	-1.000000	-1.000000	-1.000000	-1.000000	-1.000000	-1.000000	138.827586	0.000000	-1.000000	-1.000000	436008.000000	1772918901.412821
-4571.505000	19567.485000	-18115.020000	-14566.815000	0.000000	0.000000	0.000000	0.000000	151.020096	-115.962340	177.778270	179.805131	-0.000000	0.000000	-0.000000	0.000000	-78.375360	35.021700	6.088740	0.103149	0.683226	0.664610	-1.000000	-1.000000	-1.000000	-1.000000	-1.000000	-1.000000	-1.000000	138.827586	0.000000	-1.000000	-1.000000	436009.000000	1772918901.412824
-4669.020000	19520.370000	-18553.590000	-14817.690000	0.000000	0.000000	0.000000	0.000000	186.814685	-58.725074	203.690344	196.344700	-0.000000	0.000000	-0.000000	0.000000	-78.375360	35.021700	6.088740	0.103149	0.683226	0.664610	-1.000000	-1.000000	-1.000000	-1.000000	-1.000000	-1.000000	-1.000000	138.827586	0.000000	-1.000000	-1.000000	436010.000000	1772918901.413883
-4649.670000	19530.540000	-18595.620000	-14798.520000	0.000000	0.000000	0.000000	0.000000	132.229678	22.129077	88.140619	107.327643	-0.000000	0.000000	-0.000000	0.000000	-78.375360	35.021700	6.088740	0.103149	0.683226	0.664610	-1.000000	-1.000000	-1.000000	-1.000000	-1.000000	-1.000000	-1.000000	138.827586	0.000000	-1.000000	-1.000000	436011.000000	1772918901.413885
-4666.455000	19570.995000	-18636.885000	-14835.915000	0.000000	0.000000	0.000000	0.000000	26.938923	92.231357	-94.281365	-34.367651	-0.000000	0.000000	-0.000000	0.000000	-78.375360	35.021700	6.088740	0.103149	0.683226	0.664610	-1.000000	-1.000000	-1.000000	-1.000000	-1.000000	-1.000000	-1.000000	138.827586	0.000000	-1.000000	-1.000000	436012.000000	1772918901.419778
-4702.005000	19479.780000	-18725.805000	-14883.660000	0.000000	0.000000	0.000000	0.000000	-70.523373	126.752147	-216.616787	-143.623095	-0.000000	0.000000	-0.000000	0.000000	-78.375360	35.021700	6.088740	0.103149	0.683226	0.664610	-1.000000	-1.000000	-1.000000	-1.000000	-1.000000	-1.000000	-1.000000	138.827586	0.000000	-1.000000	-1.000000	436013.000000	1772918901.419781
-4690.980000	19384.335000	-18534.870000	-14768.100000	0.000000	0.000000	0.000000	0.000000	-120.526670	113.713376	-207.958612	-168.499984	-0.000000	0.000000	-0.000000	0.000000	-90.797000	34.243440	0.152600	0.090759	0.666136	0.708860	-1.000000	-1.000000	-1.000000	-1.000000	-1.000000	-1.000000	-1.000000	138.827586	0.000000	-1.000000	-1.000000	436014.000000	1772918901.425587
