Channel1	Channel2	Channel3	Channel4	Channel5	Channel6	Channel7	Channel8	FilteredChannel1	FilteredChannel2	FilteredChannel3	FilteredChannel4	FilteredChannel5	FilteredChannel6	FilteredChannel7	FilteredChannel8	GyroX	GyroY	GyroZ	AccX	AccY	AccZ	PPG1	PPG2	rawPPG1	rawPPG2	rawPPG3	Hr	Hrv	Battery	Trigger	PhysicalTrigger	AutoTrigger	NumMeasurements	Timestamp
-4354.245000	22706.370000	-18571.590000	-14695.155000	0.000000	0.000000	0.000000	0.000000	-7.259097	14.089513	-3.306851	-12.290276	-0.000000	0.000000	-0.000000	-0.000000	4.639040	-1.037680	3.876040	0.008728	0.796995	0.601744	-1.000000	-1.000000	-1.000000	-1.000000	-1.000000	-1.000000	-1.000000	138.965517	0.000000	-1.000000	-1.000000	447795.000000	1772918925.188475
-4317.840000	22523.355000	-18545.220000	-14662.980000	0.000000	0.000000	0.000000	0.000000	56.417608	7.290217	83.947601	89.832675	-0.000000	0.000000	-0.000000	-0.000000	4.639040	-1.037680	3.876040	0.008728	0.796995	0.601744	-1.000000	-1.000000	-1.000000	-1.000000	-1.000000	-1.000000	-1.000000	138.965517	0.000000	-1.000000	-1.000000	447796.000000	1772918925.188480
-4342.770000	22401.180000	-18591.165000	-14714.055000	0.000000	0.000000	0.000000	0.000000	93.308925	-28.895089	129.059688	145.970752	-0.000000	0.000000	-0.000000	-0.000000	3.769220	0.717220	-0.564620	0.010925	0.794920	0.601805	-1.000000	-1.000000	-1.000000	-1.000000	-1.000000	-1.000000	-1.000000	138.965517	0.000000	-1.000000	-1.000000	447797.000000	1772918925.188522
-4398.660000	22434.615000	-18675.045000	-14800.365000	0.000000	0.000000	0.000000	0.000000	80.567205	-65.075449	104.870851	123.005560	-0.000000	0.000000	-0.000000	-0.000000	3.769220	0.717220	-0.564620	0.010925	0.794920	0.601805	-1.000000	-1.000000	-1.000000	-1.000000	-1.000000	-1.000000	-1.000000	138.965517	0.000000	-1.000000	-1.000000	447798.000000	1772918925.188524
-4539.555000	22568.805000	-18828.810000	-14967.720000	0.000000	0.000000	0.000000	0.000000	21.287271	-59.502020	21.700060	31.370199	-0.000000	0.000000	-0.000000	-0.000000	3.769220	0.717220	-0.564620	0.010925	0.794920	0.601805	-1.000000	-1.000000	-1.000000	-1.000000	-1.000000	-1.000000	-1.000000	138.965517	0.000000	-1.000000	-1.000000	447799.000000	1772918925.188527
-4603.275000	22671.135000	-18859.545000	-15012.585000	0.000000	0.000000	0.000000	0.000000	-56.279701	3.249277	-77.421217	-80.797172	-0.000000	0.000000	-0.000000	-0.000000	3.769220	0.717220	-0.564620	0.010925	0.794920	0.601805	-1.000000	-1.000000	-1.000000	-1.000000	-1.000000	-1.000000	-1.000000	138.965517	0.000000	-1.000000	-1.000000	447800.000000	1772918925.188529
-4544.235000	22734.630000	-18819.945000	-14967.495000	0.000000	0.000000	0.000000	0.000000	-110.785698	92.730300	-138.639405	-152.926730	-0.000000	0.000000	-0.000000	-0.000000	3.769220	0.717220	-0.564620	0.010925	0.794920	0.601805	-1.000000	-1.000000	-1.000000	-1.000000	-1.000000	-1.000000	-1.000000	138.965517	0.000000	-1.000000	-1.000000	447801.000000	1772918925.188532
-4489.335000	22755.960000	-18755.145000	-14895.855000	0.000000	0.000000	0.000000	0.000000	-108.209921	153.318234	-126.962794	-144.526862	-0.000000	0.000000	-0.000000	-0.000000	3.769220	0.717220	-0.564620	0.010925	0.794920	0.601805	-1.000000	-1.000000	-1.000000	-1.000000	-1.000000	-1.000000	-1.000000	138.965517	0.000000	-1.000000	-1.000000	447802.000000	1772918925.188534
-4398.075000	22651.515000	-18602.955000	-14733.675000	0.000000	0.000000	0.000000	0.000000	-46.546450	144.211241	-48.119155	-59.831237	-0.000000	0.000000	-0.000000	-0.000000	3.769220	0.717220	-0.564620	0.010925	0.794920	0.601805	-1.000000	-1.000000	-1.000000	-1.000000	-1.000000	-1.000000	-1.000000	138.965517	0.000000	-1.000000	-1.000000	447803.000000	1772918925.188537
-4344.165000	22583.430000	-18545.580000	-14662.665000	0.000000	0.000000	0.000000	0.000000	40.469572	64.029613	56.354487	56.103788	-0.000000	0.000000	-0.000000	-0.000000	3.769220	0.717220	-0.564620	0.010925	0.794920	0.601805	-1.000000	-1.000000	-1.000000	-1.000000	-1.000000	-1.000000	-1.000000	138.965517	0.000000	-1.000000	-1.000000	447804.000000	1772918925.188539
-4377.735000	22630.275000	-18609.165000	-14728.365000	0.000000	0.000000	0.000000	0.000000	105.181978	-46.715720	130.870334	141.452934	-0.000000	0.000000	-0.000000	-0.000000	3.769220	0.717220	-0.564620	0.010925	0.794920	0.601805	-1.000000	-1.000000	-1.000000	-1.000000	-1.000000	-1.000000	-1.000000	138.965517	0.000000	-1.000000	-1.000000	447805.000000	1772918925.188542
-4413.015000	22710.960000	-18685.305000	-14813.055000	0.000000	0.000000	0.000000	0.000000	113.550915	-126.852348	133.802765	148.914384	-0.000000	0.000000	-0.000000	-0.000000	3.769220	0.717220	-0.564620	0.010925	0.794920	0.601805	-1.000000	-1.000000	-1.000000	-1.000000	-1.000000	-1.000000	-1.000000	138.965517	0.000000	-1.000000	-1.000000	447806.000000	1772918925.188544
-4512.510000	22776.255000	-18815.895000	-14948.190000	0.000000	0.000000	0.000000	0.000000	63.609411	-135.817428	63.801739	75.026901	-0.000000	0.000000	-0.000000	-0.000000	2.075360	0.518840	-0.686700	0.012451	0.795957	0.601988	-1.000000	-1.000000	-1.000000	-1.000000	-1.000000	-1.000000	-1.000000	138.965517	0.000000	-1.000000	-1.000000	447807.000000	1772918925.188547
-4570.200000	22738.275000	-18873.135000	-15016.770000	0.000000	0.000000	0.000000	0.000000	-15.928924	-82.118533	-38.699889	-37.008523	-0.000000	0.000000	-0.000000	-0.000000	2.075360	0.518840	-0.686700	0.012451	0.795957	0.601988	-1.000000	-1.000000	-1.000000	-1.000000	-1.000000	-1.000000	-1.000000	138.965517	0.000000	-1.000000	-1.000000	447808.000000	1772918925.188549
-4516.155000	22612.365000	-18810.540000	-14952.240000	0.000000	0.000000	0.000000	0.000000	-82.052367	-13.040575	-115.614300	-123.504757	-0.000000	0.000000	-0.000000	-0.000000	2.075360	0.518840	-0.686700	0.012451	0.795957	0.601988	-1.000000	-1.000000	-1.000000	-1.000000	-1.000000	-1.000000	-1.000000	138.965517	0.000000	-1.000000	-1.000000	447809.000000	1772918925.188552
-4480.965000	22625.190000	-18760.275000	-14898.960000	0.000000	0.000000	0.000000	0.000000	-99.239907	26.363882	-124.176842	-136.655093	-0.000000	0.000000	-0.000000	-0.000000	2.075360	0.518840	-0.686700	0.012451	0.795957	0.601988	-1.000000	-1.000000	-1.000000	-1.000000	-1.000000	-1.000000	-1.000000	138.965517	0.000000	-1.000000	-1.000000	447810.000000	1772918925.188554
-4429.800000	22689.720000	-18659.430000	-14792.670000	0.000000	0.000000	0.000000	0.000000	-61.473522	29.696072	-63.067502	-73.211605	-0.000000	0.000000	-0.000000	-0.000000	2.075360	0.518840	-0.686700	0.012451	0.795957	0.601988	-1.000000	-1.000000	-1.000000	-1.000000	-1.000000	-1.000000	-1.000000	138.965517	0.000000	-1.000000	-1.000000	447811.000000	1772918925.188557
-4378.005000	22779.180000	-18575.595000	-14694.615000	0.000000	0.000000	0.000000	0.000000	4.934167	22.984237	29.745073	27.030945	-0.000000	0.000000	-0.000000	-0.000000	2.075360	0.518840	-0.686700	0.012451	0.795957	0.601988	-1.000000	-1.000000	-1.000000	-1.000000	-1.000000	-1.000000	-1.000000	138.965517	0.000000	-1.000000	-1.000000	447812.000000	1772918925.188558
-4401.315000	22839.345000	-18619.155000	-14732.775000	0.000000	0.000000	0.000000	0.000000	61.371242	28.104289	102.534340	108.351103	-0.000000	0.000000	-0.000000	-0.000000	2.075360	0.518840	-0.686700	0.012451	0.795957	0.601988	-1.000000	-1.000000	-1.000000	-1.000000	-1.000000	-1.000000	-1.000000	138.965517	0.000000	-1.000000	-1.000000	447813.000000	1772918925.188561
-4446.810000	22885.155000	-18685.980000	-14799.015000	0.000000	0.000000	0.000000	0.000000	78.714454	42.404706	116.181748	127.429601	-0.000000	0.000000	-0.000000	-0.000000	2.075360	0.518840	-0.686700	0.012451	0.795957	0.601988	-1.000000	-1.000000	-1.000000	-1.000000	-1.000000	-1.000000	-1.000000	138.965517	0.000000	-1.000000	-1.000000	447814.000000	1772918925.188563
-4526.550000	22958.505000	-18790.650000	-14907.510000	0.000000	0.000000	0.000000	0.000000	50.627690	49.342267	64.475006	75.370335	-0.000000	0.000000	-0.000000	-0.000000	2.075360	0.518840	-0.686700	0.012451	0.795957	0.601988	-1.000000	-1.000000	-1.000000	-1.000000	-1.000000	-1.000000	-1.000000	138.965517	0.000000	-1.000000	-1.000000	447815.000000	1772918925.188566
-4611.510000	23010.030000	-18901.665000	-15040.710000	0.000000	0.000000	0.000000	0.000000	-5.147617	38.500431	-22.787715	-18.028673	-0.000000	0.000000	-0.000000	-0.000000	2.075360	0.518840	-0.686700	0.012451	0.795957	0.601988	-1.000000	-1.000000	-1.000000	-1.000000	-1.000000	-1.000000	-1.000000	138.965517	0.000000	-1.000000	-1.000000	447816.000000	1772918925.188568
-4595.940000	23029.650000	-18874.845000	-15025.815000	0.000000	0.000000	0.000000	0.000000	-57.096395	12.027701	-97.588242	-102.230409	-0.000000	0.000000	-0.000000	-0.000000	1.724380	0.381500	-0.778260	0.010864	0.797483	0.604124	-1.000000	-1.000000	-1.000000	-1.000000	-1.000000	-1.000000	-1.000000	138.965517	0.000000	-1.000000	-1.000000	447817.000000	1772918925.188571
-4558.770000	23073.255000	-18819.585000	-14963.670000	0.000000	0.000000	0.000000	0.000000	-75.221659	-20.528065	-118.244154	-130.903027	-0.000000	0.000000	-0.000000	-0.000000	1.724380	0.381500	-0.778260	0.010864	0.797483	0.604124	-1.000000	-1.000000	-1.000000	-1.000000	-1.000000	-1.000000	-1.000000	138.965517	0.000000	-1.000000	-1.000000	447818.000000	1772918925.188573
-4479.795000	22999.950000	-18721.215000	-14860.620000	0.000000	0.000000	0.000000	0.000000	-47.963946	-48.828939	-72.522185	-86.777410	-0.000000	0.000000	-0.000000	-0.000000	1.724380	0.381500	-0.778260	0.010864	0.797483	0.604124	-1.000000	-1.000000	-1.000000	-1.000000	-1.000000	-1.000000	-1.000000	138.965517	0.000000	-1.000000	-1.000000	447819.000000	1772918925.188663
-4377.105000	22890.870000	-18590.805000	-14708.880000	0.000000	0.000000	0.000000	0.000000	10.379319	-68.578548	14.813431	7.119387	-0.000000	0.000000	-0.000000	-0.000000	1.724380	0.381500	-0.778260	0.010864	0.797483	0.604124	-1.000000	-1.000000	-1.000000	-1.000000	-1.000000	-1.000000	-1.000000	138.965517	0.000000	-1.000000	-1.000000	447820.000000	1772918925.188665
-4375.305000	22856.175000	-18596.115000	-14699.610000	0.000000	0.000000	0.000000	0.000000	68.084865	-78.930013	97.020579	100.971974	-0.000000	0.000000	-0.000000	-0.000000	1.724380	0.381500	-0.778260	0.010864	0.797483	0.604124	-1.000000	-1.000000	-1.000000	-1.000000	-1.000000	-1.000000	-1.000000	138.965517	0.000000	-1.000000	-1.000000	447821.000000	1772918925.188697
-4412.745000	22845.510000	-18647.370000	-14757.930000	0.000000	0.000000	0.000000	0.000000	91.759562	-72.937986	128.896503	143.269279	-0.000000	0.000000	-0.000000	-0.000000	1.724380	0.381500	-0.778260	0.010864	0.797483	0.604124	-1.000000	-1.000000	-1.000000	-1.000000	-1.000000	-1.000000	-1.000000	138.965517	0.000000	-1.000000	-1.000000	447822.000000	1772918925.188699
-4463.865000	22854.105000	-18720.540000	-14836.815000	0.000000	0.000000	0.000000	0.000000	65.469607	-42.368335	91.528845	108.772053	-0.000000	0.000000	-0.000000	-0.000000	1.724380	0.381500	-0.778260	0.010864	0.797483	0.604124	-1.000000	-1.000000	-1.000000	-1.000000	-1.000000	-1.000000	-1.000000	138.965517	0.000000	-1.000000	-1.000000	447823.000000	1772918925.188708
-4516.740000	22656.420000	-18813.690000	-14947.110000	0.000000	0.000000	0.000000	0.000000	2.787703	4.680463	5.356848	15.808393	-0.000000	0.000000	-0.000000	-0.000000	1.724380	0.381500	-0.778260	0.010864	0.797483	0.604124	-1.000000	-1.000000	-1.000000	-1.000000	-1.000000	-1.000000	-1.000000	138.965517	0.000000	-1.000000	-1.000000	447824.000000	1772918925.188710
-4506.390000	22446.180000	-18801.990000	-14938.740000	0.000000	0.000000	0.000000	0.000000	-61.391770	39.854283	-82.354162	-84.509266	-0.000000	0.000000	-0.000000	-0.000000	1.724380	0.381500	-0.778260	0.010864	0.797483	0.604124	-1.000000	-1.000000	-1.000000	-1.000000	-1.000000	-1.000000	-1.000000	138.965517	0.000000	-1.000000	-1.000000	447825.000000	1772918925.188712
-4491.630000	22485.285000	-18764.235000	-14893.155000	0.000000	0.000000	0.000000	0.000000	-92.595489	43.732452	-124.673726	-137.823139	-0.000000	0.000000	-0.000000	-0.000000	1.724380	0.381500	-0.778260	0.010864	0.797483	0.604124	-1.000000	-1.000000	-1.000000	-1.000000	-1.000000	-1.000000	-1.000000	138.965517	0.000000	-1.000000	-1.000000	447826.000000	1772918925.188714
-4452.345000	22531.050000	-18707.040000	-14848.830000	0.000000	0.000000	0.000000	0.000000	-76.941805	33.490224	-101.402919	-117.946093	-0.000000	0.000000	-0.000000	-0.000000	5.737760	-0.350980	-0.350980	0.009155	0.793699	0.606749	-1.000000	-1.000000	-1.000000	-1.000000	-1.000000	-1.000000	-1.000000	138.965517	0.000000	-1.000000	-1.000000	447827.000000	1772918925.188717
-4358.790000	22548.105000	-18581.850000	-14721.930000	0.000000	0.000000	0.000000	0.000000	-25.955961	38.802606	-28.677293	-40.633052	-0.000000	0.000000	-0.000000	-0.000000	5.737760	-0.350980	-0.350980	0.009155	0.793699	0.606749	-1.000000	-1.000000	-1.000000	-1.000000	-1.000000	-1.000000	-1.000000	138.965517	0.000000	-1.000000	-1.000000	447828.000000	1772918925.188719
-4338.630000	22614.030000	-18552.330000	-14673.870000	0.000000	0.000000	0.000000	0.000000	33.793315	62.825451	54.356970	51.327592	-0.000000	0.000000	-0.000000	-0.000000	5.737760	-0.350980	-0.350980	0.009155	0.793699	0.606749	-1.000000	-1.000000	-1.000000	-1.000000	-1.000000	-1.000000	-1.000000	138.965517	0.000000	-1.000000	-1.000000	447829.000000	1772918925.188722
-4359.375000	22537.665000	-18581.490000	-14704.605000	0.000000	0.000000	0.000000	0.000000	72.779217	82.425523	105.400535	111.778785	-0.000000	0.000000	-0.000000	-0.000000	5.737760	-0.350980	-0.350980	0.009155	0.793699	0.606749	-1.000000	-1.000000	-1.000000	-1.000000	-1.000000	-1.000000	-1.000000	138.965517	0.000000	-1.000000	-1.000000	447830.000000	1772918925.188724
-4405.320000	22508.820000	-18647.955000	-14770.935000	0.000000	0.000000	0.000000	0.000000	71.359316	72.098706	98.391718	111.046319	-0.000000	0.000000	-0.000000	-0.000000	5.737760	-0.350980	-0.350980	0.009155	0.793699	0.606749	-1.000000	-1.000000	-1.000000	-1.000000	-1.000000	-1.000000	-1.000000	138.965517	0.000000	-1.000000	-1.000000	447831.000000	1772918925.188727
-4515.030000	22583.160000	-18803.880000	-14927.625000	0.000000	0.000000	0.000000	0.000000	30.843940	28.585643	37.376534	50.475213	-0.000000	0.000000	-0.000000	-0.000000	5.737760	-0.350980	-0.350980	0.009155	0.793699	0.606749	-1.000000	-1.000000	-1.000000	-1.000000	-1.000000	-1.000000	-1.000000	138.965517	0.000000	-1.000000	-1.000000	447832.000000	1772918925.188729
-4571.415000	22635.405000	-18870.345000	-15009.705000	0.000000	0.000000	0.000000	0.000000	-27.575621	-22.815309	-46.250971	-38.490911	-0.000000	0.000000	-0.000000	-0.000000	5.737760	-0.350980	-0.350980	0.009155	0.793699	0.606749	-1.000000	-1.000000	-1.000000	-1.000000	-1.000000	-1.000000	-1.000000	138.965517	0.000000	-1.000000	-1.000000	447833.000000	1772918925.188930
-4546.755000	22687.290000	-18827.505000	-14966.055000	0.000000	0.000000	0.000000	0.000000	-72.329366	-53.172302	-107.347877	-108.006003	-0.000000	0.000000	-0.000000	-0.000000	5.737760	-0.350980	-0.350980	0.009155	0.793699	0.606749	-1.000000	-1.000000	-1.000000	-1.000000	-1.000000	-1.000000	-1.000000	138.965517	0.000000	-1.000000	-1.000000	447834.000000	1772918925.188939
-4491.720000	22648.005000	-18755.100000	-14885.910000	0.000000	0.000000	0.000000	0.000000	-76.302656	-55.954261	-108.832789	-116.644723	-0.000000	0.000000	-0.000000	-0.000000	5.737760	-0.350980	-0.350980	0.009155	0.793699	0.606749	-1.000000	-1.000000	-1.000000	-1.000000	-1.000000	-1.000000	-1.000000	138.965517	0.000000	-1.000000	-1.000000	447835.000000	1772918925.188948
-4392.675000	22576.860000	-18625.995000	-14746.275000	0.000000	0.000000	0.000000	0.000000	-34.282234	-46.563809	-46.460586	-56.165807	-0.000000	0.000000	-0.000000	-0.000000	5.737760	-0.350980	-0.350980	0.009155	0.793699	0.606749	-1.000000	-1.000000	-1.000000	-1.000000	-1.000000	-1.000000	-1.000000	138.965517	0.000000	-1.000000	-1.000000	447836.000000	1772918925.188950
-4323.645000	22561.155000	-18538.875000	-14641.155000	0.000000	0.000000	0.000000	0.000000	32.086028	-41.749994	46.686678	41.226183	-0.000000	0.000000	-0.000000	-0.000000	7.416360	-0.854560	0.427280	0.008240	0.789244	0.606932	-1.000000	-1.000000	-1.000000	-1.000000	-1.000000	-1.000000	-1.000000	138.965517	0.000000	-1.000000	-1.000000	447837.000000	1772918925.188953
-4362.660000	22599.135000	-18589.635000	-14688.270000	0.000000	0.000000	0.000000	0.000000	85.564035	-40.983622	118.816798	120.824705	-0.000000	0.000000	-0.000000	-0.000000	7.416360	-0.854560	0.427280	0.008240	0.789244	0.606932	-1.000000	-1.000000	-1.000000	-1.000000	-1.000000	-1.000000	-1.000000	138.965517	0.000000	-1.000000	-1.000000	447838.000000	1772918925.188955
-4405.320000	22587.345000	-18648.855000	-14755.995000	0.000000	0.000000	0.000000	0.000000	93.631347	-31.622879	127.532073	135.149819	-0.000000	0.000000	-0.000000	-0.000000	7.416360	-0.854560	0.427280	0.008240	0.789244	0.606932	-1.000000	-1.000000	-1.000000	-1.000000	-1.000000	-1.000000	-1.000000	138.965517	0.000000	-1.000000	-1.000000	447839.000000	1772918925.188958
-4482.045000	22586.940000	-18758.070000	-14887.890000	0.000000	0.000000	0.000000	0.000000	49.825231	-9.083189	66.400232	73.407981	-0.000000	0.000000	-0.000000	-0.000000	7.416360	-0.854560	0.427280	0.008240	0.789244	0.606932	-1.000000	-1.000000	-1.000000	-1.000000	-1.000000	-1.000000	-1.000000	138.965517	0.000000	-1.000000	-1.000000	447840.000000	1772918925.188962
-4551.255000	22534.605000	-18851.220000	-15001.830000	0.000000	0.000000	0.000000	0.000000	-21.624433	16.552039	-30.797198	-31.176553	-0.000000	0.000000	-0.000000	-0.000000	7.416360	-0.854560	0.427280	0.008240	0.789244	0.606932	-1.000000	-1.000000	-1.000000	-1.000000	-1.000000	-1.000000	-1.000000	138.965517	0.000000	-1.000000	-1.000000	447841.000000	1772918925.188965
-4535.280000	22514.085000	-18816.840000	-14957.910000	0.000000	0.000000	0.000000	0.000000	-81.749665	31.393601	-111.212648	-121.139966	-0.000000	0.000000	-0.000000	-0.000000	7.416360	-0.854560	0.427280	0.008240	0.789244	0.606932	-1.000000	-1.000000	-1.000000	-1.000000	-1.000000	-1.000000	-1.000000	138.965517	0.000000	-1.000000	-1.000000	447842.000000	1772918925.188967
-4498.020000	22534.785000	-18765.720000	-14908.140000	0.000000	0.000000	0.000000	0.000000	-98.310587	31.033559	-131.347479	-145.775799	-0.000000	0.000000	-0.000000	-0.000000	7.416360	-0.854560	0.427280	0.008240	0.789244	0.606932	-1.000000	-1.000000	-1.000000	-1.000000	-1.000000	-1.000000	-1.000000	138.965517	0.000000	-1.000000	-1.000000	447843.000000	1772918925.188970
-4442.985000	22593.555000	-18686.205000	-14826.015000	0.000000	0.000000	0.000000	0.000000	-63.469877	23.870788	-81.702158	-91.881775	-0.000000	0.000000	-0.000000	-0.000000	7.416360	-0.854560	0.427280	0.008240	0.789244	0.606932	-1.000000	-1.000000	-1.000000	-1.000000	-1.000000	-1.000000	-1.000000	138.965517	0.000000	-1.000000	-1.000000	447844.000000	1772918925.188972
-4344.795000	22587.480000	-18558.360000	-14689.125000	0.000000	0.000000	0.000000	0.000000	2.821727	20.026350	8.859867	8.991625	-0.000000	0.000000	-0.000000	-0.000000	7.416360	-0.854560	0.427280	0.008240	0.789244	0.606932	-1.000000	-1.000000	-1.000000	-1.000000	-1.000000	-1.000000	-1.000000	138.965517	0.000000	-1.000000	-1.000000	447845.000000	1772918925.189036
-4359.330000	22641.930000	-18584.730000	-14707.170000	0.000000	0.000000	0.000000	0.000000	65.866305	20.097555	92.221203	102.947710	-0.000000	0.000000	-0.000000	-0.000000	7.416360	-0.854560	0.427280	0.008240	0.789244	0.606932	-1.000000	-1.000000	-1.000000	-1.000000	-1.000000	-1.000000	-1.000000	138.965517	0.000000	-1.000000	-1.000000	447846.000000	1772918925.189039
-4404.465000	22681.305000	-18647.190000	-14770.125000	0.000000	0.000000	0.000000	0.000000	92.723963	18.959393	124.387694	141.041483	-0.000000	0.000000	-0.000000	-0.000000	8.209880	0.335720	0.686700	0.008911	0.786497	0.603941	-1.000000	-1.000000	-1.000000	-1.000000	-1.000000	-1.000000	-1.000000	138.965517	0.000000	-1.000000	-1.000000	447847.000000	1772918925.189050
-4470.480000	22712.580000	-18731.160000	-14857.515000	0.000000	0.000000	0.000000	0.000000	68.892741	13.538619	88.133669	103.605028	-0.000000	0.000000	-0.000000	-0.000000	8.209880	0.335720	0.686700	0.008911	0.786497	0.603941	-1.000000	-1.000000	-1.000000	-1.000000	-1.000000	-1.000000	-1.000000	138.965517	0.000000	-1.000000	-1.000000	447848.000000	1772918925.189054
-4568.850000	22735.350000	-18862.830000	-15003.090000	0.000000	0.000000	0.000000	0.000000	7.916098	3.286814	4.406491	12.214482	-0.000000	0.000000	-0.000000	-0.000000	8.209880	0.335720	0.686700	0.008911	0.786497	0.603941	-1.000000	-1.000000	-1.000000	-1.000000	-1.000000	-1.000000	-1.000000	138.965517	0.000000	-1.000000	-1.000000	447849.000000	1772918925.189137
-4580.055000	22771.755000	-18870.165000	-15017.940000	0.000000	0.000000	0.000000	0.000000	-56.807669	-10.029159	-80.901277	-83.905074	-0.000000	0.000000	-0.000000	-0.000000	8.209880	0.335720	0.686700	0.008911	0.786497	0.603941	-1.000000	-1.000000	-1.000000	-1.000000	-1.000000	-1.000000	-1.000000	138.965517	0.000000	-1.000000	-1.000000	447850.000000	1772918925.189139
-4547.160000	22824.630000	-18810.180000	-14958.180000	0.000000	0.000000	0.000000	0.000000	-89.883069	-21.463057	-121.183671	-133.300559	-0.000000	0.000000	-0.000000	-0.000000	8.209880	0.335720	0.686700	0.008911	0.786497	0.603941	-1.000000	-1.000000	-1.000000	-1.000000	-1.000000	-1.000000	-1.000000	138.965517	0.000000	-1.000000	-1.000000	447851.000000	1772918925.189143
-4489.380000	22836.105000	-18737.145000	-14873.580000	0.000000	0.000000	0.000000	0.000000	-72.817352	-26.103065	-93.658121	-108.765537	-0.000000	0.000000	-0.000000	-0.000000	8.209880	0.335720	0.686700	0.008911	0.786497	0.603941	-1.000000	-1.000000	-1.000000	-1.000000	-1.000000	-1.000000	-1.000000	138.965517	0.000000	-1.000000	-1.000000	447852.000000	1772918925.189145
-4390.380000	22827.285000	-18604.530000	-14719.950000	0.000000	0.000000	0.000000	0.000000	-15.010007	-24.455002	-13.695117	-23.941056	-0.000000	0.000000	-0.000000	-0.000000	8.209880	0.335720	0.686700	0.008911	0.786497	0.603941	-1.000000	-1.000000	-1.000000	-1.000000	-1.000000	-1.000000	-1.000000	138.965517	0.000000	-1.000000	-1.000000	447853.000000	1772918925.189148
-4339.080000	22675.095000	-18550.170000	-14646.465000	0.000000	0.000000	0.000000	0.000000	52.823654	-24.018394	75.514128	75.798366	-0.000000	0.000000	-0.000000	-0.000000	8.209880	0.335720	0.686700	0.008911	0.786497	0.603941	-1.000000	-1.000000	-1.000000	-1.000000	-1.000000	-1.000000	-1.000000	138.965517	0.000000	-1.000000	-1.000000	447854.000000	1772918925.189150
-4364.550000	22582.980000	-18589.590000	-14695.470000	0.000000	0.000000	0.000000	0.000000	94.920576	-32.959859	126.580632	137.306175	-0.000000	0.000000	-0.000000	-0.000000	8.209880	0.335720	0.686700	0.008911	0.786497	0.603941	-1.000000	-1.000000	-1.000000	-1.000000	-1.000000	-1.000000	-1.000000	138.965517	0.000000	-1.000000	-1.000000	447855.000000	1772918925.189153
-4408.020000	22546.080000	-18653.130000	-14771.430000	0.000000	0.000000	0.000000	0.000000	87.871723	-46.893148	111.192495	125.507742	-0.000000	0.000000	-0.000000	-0.000000	8.209880	0.335720	0.686700	0.008911	0.786497	0.603941	-1.000000	-1.000000	-1.000000	-1.000000	-1.000000	-1.000000	-1.000000	138.965517	0.000000	-1.000000	-1.000000	447856.000000	1772918925.189155
-4495.005000	22482.810000	-18771.300000	-14879.880000	0.000000	0.000000	0.000000	0.000000	34.232564	-48.208234	36.403078	45.006877	-0.000000	0.000000	-0.000000	-0.000000	6.119260	-0.457800	1.144500	0.008850	0.785887	0.599974	-1.000000	-1.000000	-1.000000	-1.000000	-1.000000	-1.000000	-1.000000	138.965517	0.000000	-1.000000	-1.000000	447857.000000	1772918925.189158
-4533.795000	22445.235000	-18813.645000	-14924.835000	0.000000	0.000000	0.000000	0.000000	-38.239180	-25.505173	-58.687017	-60.537139	-0.000000	0.000000	-0.000000	-0.000000	6.119260	-0.457800	1.144500	0.008850	0.785887	0.599974	-1.000000	-1.000000	-1.000000	-1.000000	-1.000000	-1.000000	-1.000000	138.965517	0.000000	-1.000000	-1.000000	447858.000000	1772918925.189160
-4533.795000	22445.235000	-18813.645000	-14924.835000	0.000000	0.000000	0.000000	0.000000	-91.841992	15.117105	-124.365269	-134.451656	-0.000000	0.000000	-0.000000	-0.000000	6.119260	-0.457800	1.144500	0.008850	0.785887	0.599974	-1.000000	-1.000000	-1.000000	-1.000000	-1.000000	-1.000000	-1.000000	138.965517	0.000000	-1.000000	-1.000000	447859.000000	1772918925.192524
-4533.795000	22445.235000	-18813.645000	-14924.835000	0.000000	0.000000	0.000000	0.000000	-99.822580	57.609311	-128.016591	-140.440351	-0.000000	0.000000	-0.000000	-0.000000	6.119260	-0.457800	1.144500	0.008850	0.785887	0.599974	-1.000000	-1.000000	-1.000000	-1.000000	-1.000000	-1.000000	-1.000000	138.965517	0.000000	-1.000000	-1.000000	447860.000000	1772918925.192526
-4533.795000	22445.235000	-18813.645000	-14924.835000	0.000000	0.000000	0.000000	0.000000	-61.921164	85.633298	-73.074755	-82.352190	-0.000000	0.000000	-0.000000	-0.000000	6.119260	-0.457800	1.144500	0.008850	0.785887	0.599974	-1.000000	-1.000000	-1.000000	-1.000000	-1.000000	-1.000000	-1.000000	138.965517	0.000000	-1.000000	-1.000000	447861.000000	1772918925.192528
-4533.795000	22445.235000	-18813.645000	-14924.835000	0.000000	0.000000	0.000000	0.000000	-1.963095	88.725609	6.802676	3.469562	-0.000000	0.000000	-0.000000	-0.000000	6.119260	-0.457800	1.144500	0.008850	0.785887	0.599974	-1.000000	-1.000000	-1.000000	-1.000000	-1.000000	-1.000000	-1.000000	138.965517	0.000000	-1.000000	-1.000000	447862.000000	1772918925.192529
-4533.795000	22445.235000	-18813.645000	-14924.835000	0.000000	0.000000	0.000000	0.000000	49.840916	66.550580	72.144778	74.531376	-0.000000	0.000000	-0.000000	-0.000000	6.119260	-0.457800	1.144500	0.008850	0.785887	0.599974	-1.000000	-1.000000	-1.000000	-1.000000	-1.000000	-1.000000	-1.000000	138.965517	0.000000	-1.000000	-1.000000	447863.000000	1772918925.192531
-4533.795000	22445.235000	-18813.645000	-14924.835000	0.000000	0.000000	0.000000	0.000000	73.796026	28.561969	99.023409	104.907487	-0.000000	0.000000	-0.000000	-0.000000	6.119260	-0.457800	1.144500	0.008850	0.785887	0.599974	-1.000000	-1.000000	-1.000000	-1.000000	-1.000000	-1.000000	-1.000000	138.965517	0.000000	-1.000000	-1.000000	447864.000000	1772918925.192533
-4530.330000	22525.920000	-18816.975000	-14965.380000	0.000000	0.000000	0.000000	0.000000	67.050146	-9.755749	85.777764	91.740956	-0.000000	0.000000	-0.000000	-0.000000	-0.396760	2.411080	0.213640	0.010559	0.790098	0.601622	-1.000000	-1.000000	-1.000000	-1.000000	-1.000000	-1.000000	-1.000000	138.965517	0.000000	-1.000000	-1.000000	447867.000000	1772918925.196326
-4484.610000	22509.630000	-18762.435000	-14899.770000	0.000000	0.000000	0.000000	0.000000	40.682030	-34.178116	48.090373	50.487997	-0.000000	0.000000	-0.000000	-0.000000	-0.396760	2.411080	0.213640	0.010559	0.790098	0.601622	-1.000000	-1.000000	-1.000000	-1.000000	-1.000000	-1.000000	-1.000000	138.965517	0.000000	-1.000000	-1.000000	447868.000000	1772918925.196328
-4431.690000	22571.505000	-18684.045000	-14803.200000	0.000000	0.000000	0.000000	0.000000	11.829232	-40.752996	9.093293	7.394547	-0.000000	0.000000	-0.000000	-0.000000	-0.396760	2.411080	0.213640	0.010559	0.790098	0.601622	-1.000000	-1.000000	-1.000000	-1.000000	-1.000000	-1.000000	-1.000000	138.965517	0.000000	-1.000000	-1.000000	447869.000000	1772918925.200379
-4348.215000	22657.635000	-18570.240000	-14674.230000	0.000000	0.000000	0.000000	0.000000	-6.013714	-33.663495	-12.776286	-14.222766	-0.000000	0.000000	-0.000000	-0.000000	-0.396760	2.411080	0.213640	0.010559	0.790098	0.601622	-1.000000	-1.000000	-1.000000	-1.000000	-1.000000	-1.000000	-1.000000	138.965517	0.000000	-1.000000	-1.000000	447870.000000	1772918925.200383
-4364.145000	22711.635000	-18561.285000	-14649.750000	0.000000	0.000000	0.000000	0.000000	-10.864086	-18.052383	-14.760227	-10.827295	-0.000000	0.000000	-0.000000	-0.000000	-0.396760	2.411080	0.213640	0.010559	0.790098	0.601622	-1.000000	-1.000000	-1.000000	-1.000000	-1.000000	-1.000000	-1.000000	138.965517	0.000000	-1.000000	-1.000000	447871.000000	1772918925.228695
-4448.970000	22770.810000	-18618.615000	-14702.895000	0.000000	0.000000	0.000000	0.000000	-13.891382	-1.253816	-11.920753	-1.881458	-0.000000	0.000000	-0.000000	-0.000000	-0.396760	2.411080	0.213640	0.010559	0.790098	0.601622	-1.000000	-1.000000	-1.000000	-1.000000	-1.000000	-1.000000	-1.000000	138.965517	0.000000	-1.000000	-1.000000	447872.000000	1772918925.228699
-4511.790000	22791.735000	-18721.530000	-14811.840000	0.000000	0.000000	0.000000	0.000000	-28.089624	7.630720	-23.531944	-12.099828	-0.000000	0.000000	-0.000000	-0.000000	-0.396760	2.411080	0.213640	0.010559	0.790098	0.601622	-1.000000	-1.000000	-1.000000	-1.000000	-1.000000	-1.000000	-1.000000	138.965517	0.000000	-1.000000	-1.000000	447873.000000	1772918925.235939
-4560.480000	22738.455000	-18861.480000	-15009.210000	0.000000	0.000000	0.000000	0.000000	-51.300867	2.271140	-53.965795	-49.116468	-0.000000	0.000000	-0.000000	-0.000000	-0.396760	2.411080	0.213640	0.010559	0.790098	0.601622	-1.000000	-1.000000	-1.000000	-1.000000	-1.000000	-1.000000	-1.000000	138.965517	0.000000	-1.000000	-1.000000	447874.000000	1772918925.235943
-4573.890000	22730.805000	-18865.890000	-15054.345000	0.000000	0.000000	0.000000	0.000000	-65.791114	-17.105826	-85.874557	-95.175162	-0.000000	0.000000	-0.000000	-0.000000	-0.396760	2.411080	0.213640	0.010559	0.790098	0.601622	-1.000000	-1.000000	-1.000000	-1.000000	-1.000000	-1.000000	-1.000000	138.965517	0.000000	-1.000000	-1.000000	447875.000000	1772918925.235948
-4550.760000	22663.845000	-18786.015000	-14926.860000	0.000000	0.000000	0.000000	0.000000	-54.668855	-40.952337	-89.119011	-112.827553	-0.000000	0.000000	-0.000000	-0.000000	-0.396760	2.411080	0.213640	0.010559	0.790098	0.601622	-1.000000	-1.000000	-1.000000	-1.000000	-1.000000	-1.000000	-1.000000	138.965517	0.000000	-1.000000	-1.000000	447876.000000	1772918925.235951
-4491.720000	22618.575000	-18716.850000	-14812.245000	0.000000	0.000000	0.000000	0.000000	-15.556802	-55.634785	-44.477493	-69.775329	-0.000000	0.000000	-0.000000	-0.000000	11.521300	7.980980	-3.464020	0.015686	0.795042	0.618346	-1.000000	-1.000000	-1.000000	-1.000000	-1.000000	-1.000000	-1.000000	138.965517	0.000000	-1.000000	-1.000000	447877.000000	1772918925.235954
-4373.865000	22581.225000	-18611.010000	-14682.375000	0.000000	0.000000	0.000000	0.000000	38.572097	-52.287854	34.869075	26.838700	-0.000000	0.000000	-0.000000	-0.000000	11.521300	7.980980	-3.464020	0.015686	0.795042	0.618346	-1.000000	-1.000000	-1.000000	-1.000000	-1.000000	-1.000000	-1.000000	138.965517	0.000000	-1.000000	-1.000000	447878.000000	1772918925.235956
-4343.985000	22604.805000	-18598.815000	-14683.590000	0.000000	0.000000	0.000000	0.000000	86.008134	-29.125952	109.115963	126.553752	-0.000000	0.000000	-0.000000	-0.000000	11.521300	7.980980	-3.464020	0.015686	0.795042	0.618346	-1.000000	-1.000000	-1.000000	-1.000000	-1.000000	-1.000000	-1.000000	138.965517	0.000000	-1.000000	-1.000000	447879.000000	1772918925.235959
-4362.210000	22612.095000	-18633.465000	-14758.965000	0.000000	0.000000	0.000000	0.000000	103.146460	8.762511	137.334638	169.265005	-0.000000	0.000000	-0.000000	-0.000000	11.521300	7.980980	-3.464020	0.015686	0.795042	0.618346	-1.000000	-1.000000	-1.000000	-1.000000	-1.000000	-1.000000	-1.000000	138.965517	0.000000	-1.000000	-1.000000	447880.000000	1772918925.235961
-4401.495000	22598.685000	-18702.855000	-14824.440000	0.000000	0.000000	0.000000	0.000000	76.152853	48.283025	102.016714	126.932671	-0.000000	0.000000	-0.000000	-0.000000	11.521300	7.980980	-3.464020	0.015686	0.795042	0.618346	-1.000000	-1.000000	-1.000000	-1.000000	-1.000000	-1.000000	-1.000000	138.965517	0.000000	-1.000000	-1.000000	447881.000000	1772918925.235965
-4504.545000	22567.095000	-18831.870000	-14930.280000	0.000000	0.000000	0.000000	0.000000	12.797935	71.923411	19.041600	22.754535	-0.000000	0.000000	-0.000000	-0.000000	11.521300	7.980980	-3.464020	0.015686	0.795042	0.618346	-1.000000	-1.000000	-1.000000	-1.000000	-1.000000	-1.000000	-1.000000	138.965517	0.000000	-1.000000	-1.000000	447882.000000	1772918925.235967
-4547.115000	22594.320000	-18840.825000	-14956.785000	0.000000	0.000000	0.000000	0.000000	-59.706720	69.497252	-71.475478	-86.609410	-0.000000	0.000000	-0.000000	-0.000000	11.521300	7.980980	-3.464020	0.015686	0.795042	0.618346	-1.000000	-1.000000	-1.000000	-1.000000	-1.000000	-1.000000	-1.000000	138.965517	0.000000	-1.000000	-1.000000	447883.000000	1772918925.235970
-4536.315000	22733.865000	-18785.610000	-14912.055000	0.000000	0.000000	0.000000	0.000000	-107.255452	48.730580	-123.734240	-145.836877	-0.000000	0.000000	-0.000000	-0.000000	11.521300	7.980980	-3.464020	0.015686	0.795042	0.618346	-1.000000	-1.000000	-1.000000	-1.000000	-1.000000	-1.000000	-1.000000	138.965517	0.000000	-1.000000	-1.000000	447884.000000	1772918925.235972
-4513.365000	22772.025000	-18738.855000	-14834.250000	0.000000	0.000000	0.000000	0.000000	-105.725085	28.073188	-110.579653	-128.550543	-0.000000	0.000000	-0.000000	-0.000000	11.521300	7.980980	-3.464020	0.015686	0.795042	0.618346	-1.000000	-1.000000	-1.000000	-1.000000	-1.000000	-1.000000	-1.000000	138.965517	0.000000	-1.000000	-1.000000	447885.000000	1772918925.363760
-4425.345000	22725.585000	-18670.140000	-14724.765000	0.000000	0.000000	0.000000	0.000000	-55.579581	13.908039	-42.477087	-48.702335	-0.000000	0.000000	-0.000000	-0.000000	11.521300	7.980980	-3.464020	0.015686	0.795042	0.618346	-1.000000	-1.000000	-1.000000	-1.000000	-1.000000	-1.000000	-1.000000	138.965517	0.000000	-1.000000	-1.000000	447886.000000	1772918925.363767
-4357.080000	22689.540000	-18591.435000	-14627.565000	0.000000	0.000000	0.000000	0.000000	18.980591	-4.605794	41.141440	50.198535	-0.000000	0.000000	-0.000000	-0.000000	19.639620	-4.700080	-3.174080	0.012695	0.788084	0.612975	-1.000000	-1.000000	-1.000000	-1.000000	-1.000000	-1.000000	-1.000000	138.965517	0.000000	-1.000000	-1.000000	447887.000000	1772918925.363789
-4391.325000	22761.675000	-18601.605000	-14664.555000	0.000000	0.000000	0.000000	0.000000	82.020129	-32.115864	98.182812	118.406749	-0.000000	0.000000	-0.000000	-0.000000	19.639620	-4.700080	-3.174080	0.012695	0.788084	0.612975	-1.000000	-1.000000	-1.000000	-1.000000	-1.000000	-1.000000	-1.000000	138.965517	0.000000	-1.000000	-1.000000	447888.000000	1772918925.363791
-4476.105000	22822.155000	-18688.860000	-14720.805000	0.000000	0.000000	0.000000	0.000000	100.787372	-53.398581	102.233133	122.005296	-0.000000	0.000000	-0.000000	-0.000000	19.639620	-4.700080	-3.174080	0.012695	0.788084	0.612975	-1.000000	-1.000000	-1.000000	-1.000000	-1.000000	-1.000000	-1.000000	138.965517	0.000000	-1.000000	-1.000000	447889.000000	1772918925.363808
-4533.840000	22851.900000	-18813.330000	-14935.095000	0.000000	0.000000	0.000000	0.000000	65.078772	-51.639395	51.257766	58.244454	-0.000000	0.000000	-0.000000	-0.000000	19.639620	-4.700080	-3.174080	0.012695	0.788084	0.612975	-1.000000	-1.000000	-1.000000	-1.000000	-1.000000	-1.000000	-1.000000	138.965517	0.000000	-1.000000	-1.000000	447890.000000	1772918925.363810
-4611.690000	22894.020000	-18899.595000	-15034.050000	0.000000	0.000000	0.000000	0.000000	-3.166209	-28.644481	-29.541810	-42.512857	-0.000000	0.000000	-0.000000	-0.000000	19.639620	-4.700080	-3.174080	0.012695	0.788084	0.612975	-1.000000	-1.000000	-1.000000	-1.000000	-1.000000	-1.000000	-1.000000	138.965517	0.000000	-1.000000	-1.000000	447891.000000	1772918925.363828
-4613.040000	22932.135000	-18875.250000	-14981.265000	0.000000	0.000000	0.000000	0.000000	-64.359127	-0.188071	-96.534675	-126.428295	-0.000000	0.000000	-0.000000	-0.000000	19.639620	-4.700080	-3.174080	0.012695	0.788084	0.612975	-1.000000	-1.000000	-1.000000	-1.000000	-1.000000	-1.000000	-1.000000	138.965517	0.000000	-1.000000	-1.000000	447892.000000	1772918925.363830
-4582.080000	23017.095000	-18833.985000	-14949.270000	0.000000	0.000000	0.000000	0.000000	-85.680224	20.139754	-110.629558	-142.192336	-0.000000	0.000000	-0.000000	-0.000000	19.639620	-4.700080	-3.174080	0.012695	0.788084	0.612975	-1.000000	-1.000000	-1.000000	-1.000000	-1.000000	-1.000000	-1.000000	138.965517	0.000000	-1.000000	-1.000000	447893.000000	1772918925.363847
-4484.520000	23026.860000	-18718.965000	-14784.615000	0.000000	0.000000	0.000000	0.000000	-57.163791	27.555043	-62.199763	-77.021643	-0.000000	0.000000	-0.000000	-0.000000	19.639620	-4.700080	-3.174080	0.012695	0.788084	0.612975	-1.000000	-1.000000	-1.000000	-1.000000	-1.000000	-1.000000	-1.000000	138.965517	0.000000	-1.000000	-1.000000	447894.000000	1772918925.363850
-4328.640000	22947.300000	-18589.905000	-14593.320000	0.000000	0.000000	0.000000	0.000000	6.522664	20.172889	23.786785	36.147140	-0.000000	0.000000	-0.000000	-0.000000	19.639620	-4.700080	-3.174080	0.012695	0.788084	0.612975	-1.000000	-1.000000	-1.000000	-1.000000	-1.000000	-1.000000	-1.000000	138.965517	0.000000	-1.000000	-1.000000	447895.000000	1772918925.363858
-4356.630000	22959.135000	-18615.195000	-14617.305000	0.000000	0.000000	0.000000	0.000000	72.853220	-2.248841	102.209108	139.509260	-0.000000	0.000000	-0.000000	-0.000000	19.639620	-4.700080	-3.174080	0.012695	0.788084	0.612975	-1.000000	-1.000000	-1.000000	-1.000000	-1.000000	-1.000000	-1.000000	138.965517	0.000000	-1.000000	-1.000000	447896.000000	1772918925.363860
-4445.865000	22929.210000	-18680.130000	-14734.935000	0.000000	0.000000	0.000000	0.000000	101.706755	-29.658523	128.544518	174.161752	-0.000000	0.000000	-0.000000	-0.000000	20.814640	-1.266580	-5.783540	0.006775	0.768614	0.605223	-1.000000	-1.000000	-1.000000	-1.000000	-1.000000	-1.000000	-1.000000	138.965517	0.000000	-1.000000	-1.000000	447897.000000	1772918925.363878
-4467.150000	22910.355000	-18724.680000	-14892.210000	0.000000	0.000000	0.000000	0.000000	70.463093	-45.480299	85.646559	112.850184	-0.000000	0.000000	-0.000000	-0.000000	20.814640	-1.266580	-5.783540	0.006775	0.768614	0.605223	-1.000000	-1.000000	-1.000000	-1.000000	-1.000000	-1.000000	-1.000000	138.965517	0.000000	-1.000000	-1.000000	447898.000000	1772918925.363880
-4545.720000	22984.965000	-18829.980000	-15005.790000	0.000000	0.000000	0.000000	0.000000	-3.321375	-39.377771	-2.236343	-14.835257	-0.000000	0.000000	-0.000000	-0.000000	20.814640	-1.266580	-5.783540	0.006775	0.768614	0.605223	-1.000000	-1.000000	-1.000000	-1.000000	-1.000000	-1.000000	-1.000000	138.965517	0.000000	-1.000000	-1.000000	447899.000000	1772918925.363899
-4514.805000	22961.835000	-18796.095000	-14916.105000	0.000000	0.000000	0.000000	0.000000	-74.874616	-12.281649	-86.443326	-135.347222	-0.000000	0.000000	-0.000000	-0.000000	20.814640	-1.266580	-5.783540	0.006775	0.768614	0.605223	-1.000000	-1.000000	-1.000000	-1.000000	-1.000000	-1.000000	-1.000000	138.965517	0.000000	-1.000000	-1.000000	447900.000000	1772918925.363901
-4458.240000	22886.595000	-18727.740000	-14860.620000	0.000000	0.000000	0.000000	0.000000	-103.721351	20.630102	-122.131545	-177.129722	-0.000000	0.000000	-0.000000	-0.000000	20.814640	-1.266580	-5.783540	0.006775	0.768614	0.605223	-1.000000	-1.000000	-1.000000	-1.000000	-1.000000	-1.000000	-1.000000	138.965517	0.000000	-1.000000	-1.000000	447901.000000	1772918925.363909
-4448.250000	22874.625000	-18684.090000	-14810.670000	0.000000	0.000000	0.000000	0.000000	-77.111826	38.088000	-92.462373	-120.487816	-0.000000	0.000000	-0.000000	-0.000000	20.814640	-1.266580	-5.783540	0.006775	0.768614	0.605223	-1.000000	-1.000000	-1.000000	-1.000000	-1.000000	-1.000000	-1.000000	138.965517	0.000000	-1.000000	-1.000000	447902.000000	1772918925.363911
-4421.970000	22972.095000	-18633.465000	-14752.845000	0.000000	0.000000	0.000000	0.000000	-16.301244	35.138996	-19.310627	-8.044033	-0.000000	0.000000	-0.000000	-0.000000	20.814640	-1.266580	-5.783540	0.006775	0.768614	0.605223	-1.000000	-1.000000	-1.000000	-1.000000	-1.000000	-1.000000	-1.000000	138.965517	0.000000	-1.000000	-1.000000	447903.000000	1772918925.363927
-4470.525000	23039.505000	-18674.280000	-14752.440000	0.000000	0.000000	0.000000	0.000000	40.655427	27.249828	52.506550	93.104823	-0.000000	0.000000	-0.000000	-0.000000	20.814640	-1.266580	-5.783540	0.006775	0.768614	0.605223	-1.000000	-1.000000	-1.000000	-1.000000	-1.000000	-1.000000	-1.000000	138.965517	0.000000	-1.000000	-1.000000	447904.000000	1772918925.363929
-4473.270000	23015.655000	-18702.360000	-14780.565000	0.000000	0.000000	0.000000	0.000000	64.987584	26.107442	84.498896	134.380869	-0.000000	0.000000	-0.000000	-0.000000	20.814640	-1.266580	-5.783540	0.006775	0.768614	0.605223	-1.000000	-1.000000	-1.000000	-1.000000	-1.000000	-1.000000	-1.000000	138.965517	0.000000	-1.000000	-1.000000	447905.000000	1772918925.363948
-4427.145000	22909.635000	-18728.145000	-14787.720000	0.000000	0.000000	0.000000	0.000000	53.547253	22.640899	66.387282	106.289025	-0.000000	0.000000	-0.000000	-0.000000	20.814640	-1.266580	-5.783540	0.006775	0.768614	0.605223	-1.000000	-1.000000	-1.000000	-1.000000	-1.000000	-1.000000	-1.000000	138.965517	0.000000	-1.000000	-1.000000	447906.000000	1772918925.363950
-4527.945000	22861.530000	-18884.340000	-14955.615000	0.000000	0.000000	0.000000	0.000000	23.282615	1.979386	15.679174	33.081009	-0.000000	0.000000	-0.000000	-0.000000	13.062560	-5.463080	1.464960	0.002258	0.794065	0.593993	-1.000000	-1.000000	-1.000000	-1.000000	-1.000000	-1.000000	-1.000000	138.965517	0.000000	-1.000000	-1.000000	447907.000000	1772918925.363958
-4574.790000	22857.930000	-18934.830000	-15022.935000	0.000000	0.000000	0.000000	0.000000	-9.668745	-31.553244	-40.370273	-49.036579	-0.000000	0.000000	-0.000000	-0.000000	13.062560	-5.463080	1.464960	0.002258	0.794065	0.593993	-1.000000	-1.000000	-1.000000	-1.000000	-1.000000	-1.000000	-1.000000	138.965517	0.000000	-1.000000	-1.000000	447908.000000	1772918925.363960
-4614.480000	22893.930000	-18883.620000	-14954.490000	0.000000	0.000000	0.000000	0.000000	-35.908957	-54.285686	-74.141526	-103.683815	-0.000000	0.000000	-0.000000	-0.000000	13.062560	-5.463080	1.464960	0.002258	0.794065	0.593993	-1.000000	-1.000000	-1.000000	-1.000000	-1.000000	-1.000000	-1.000000	138.965517	0.000000	-1.000000	-1.000000	447909.000000	1772918925.363969
-4553.010000	22929.615000	-18783.000000	-14889.780000	0.000000	0.000000	0.000000	0.000000	-45.096684	-46.734871	-63.420837	-102.060054	-0.000000	0.000000	-0.000000	-0.000000	13.062560	-5.463080	1.464960	0.002258	0.794065	0.593993	-1.000000	-1.000000	-1.000000	-1.000000	-1.000000	-1.000000	-1.000000	138.965517	0.000000	-1.000000	-1.000000	447910.000000	1772918925.363971
-4404.780000	22987.170000	-18630.945000	-14754.690000	0.000000	0.000000	0.000000	0.000000	-27.086762	-11.091928	-7.226487	-42.460658	-0.000000	0.000000	-0.000000	-0.000000	13.062560	-5.463080	1.464960	0.002258	0.794065	0.593993	-1.000000	-1.000000	-1.000000	-1.000000	-1.000000	-1.000000	-1.000000	138.965517	0.000000	-1.000000	-1.000000	447911.000000	1772918925.363990
-4397.580000	22983.885000	-18596.565000	-14647.815000	0.000000	0.000000	0.000000	0.000000	15.364016	31.659881	66.245131	43.937040	-0.000000	0.000000	-0.000000	-0.000000	13.062560	-5.463080	1.464960	0.002258	0.794065	0.593993	-1.000000	-1.000000	-1.000000	-1.000000	-1.000000	-1.000000	-1.000000	138.965517	0.000000	-1.000000	-1.000000	447912.000000	1772918925.363992
-4462.380000	22849.155000	-18630.450000	-14688.630000	0.000000	0.000000	0.000000	0.000000	56.135847	54.153099	112.147649	110.051688	-0.000000	0.000000	-0.000000	-0.000000	13.062560	-5.463080	1.464960	0.002258	0.794065	0.593993	-1.000000	-1.000000	-1.000000	-1.000000	-1.000000	-1.000000	-1.000000	138.965517	0.000000	-1.000000	-1.000000	447913.000000	1772918925.364000
-4491.495000	22859.415000	-18660.105000	-14734.395000	0.000000	0.000000	0.000000	0.000000	62.500043	40.066564	98.175494	116.975957	-0.000000	0.000000	-0.000000	-0.000000	13.062560	-5.463080	1.464960	0.002258	0.794065	0.593993	-1.000000	-1.000000	-1.000000	-1.000000	-1.000000	-1.000000	-1.000000	138.965517	0.000000	-1.000000	-1.000000	447914.000000	1772918925.364002
-4546.080000	22905.315000	-18784.665000	-14899.365000	0.000000	0.000000	0.000000	0.000000	27.280941	2.038452	28.454348	56.949507	-0.000000	0.000000	-0.000000	-0.000000	13.062560	-5.463080	1.464960	0.002258	0.794065	0.593993	-1.000000	-1.000000	-1.000000	-1.000000	-1.000000	-1.000000	-1.000000	138.965517	0.000000	-1.000000	-1.000000	447915.000000	1772918925.364018
-4622.310000	22907.520000	-18933.660000	-15006.555000	0.000000	0.000000	0.000000	0.000000	-26.861913	-28.111402	-62.917994	-40.851757	-0.000000	0.000000	-0.000000	-0.000000	13.062560	-5.463080	1.464960	0.002258	0.794065	0.593993	-1.000000	-1.000000	-1.000000	-1.000000	-1.000000	-1.000000	-1.000000	138.965517	0.000000	-1.000000	-1.000000	447916.000000	1772918925.364020
-4628.115000	22930.920000	-18900.090000	-14916.195000	0.000000	0.000000	0.000000	0.000000	-68.815073	-31.618686	-132.251418	-123.364206	-0.000000	0.000000	-0.000000	-0.000000	-21.882840	-9.354380	-1.052940	-0.011780	0.829771	0.556029	-1.000000	-1.000000	-1.000000	-1.000000	-1.000000	-1.000000	-1.000000	139.103448	0.000000	-1.000000	-1.000000	447917.000000	1772918925.364037
-4436.865000	22992.390000	-18717.345000	-14814.945000	0.000000	0.000000	0.000000	0.000000	-73.334426	-13.168204	-139.607060	-139.218263	-0.000000	0.000000	-0.000000	-0.000000	-21.882840	-9.354380	-1.052940	-0.011780	0.829771	0.556029	-1.000000	-1.000000	-1.000000	-1.000000	-1.000000	-1.000000	-1.000000	139.103448	0.000000	-1.000000	-1.000000	447918.000000	1772918925.364039
-4285.125000	23088.735000	-18586.800000	-14692.680000	0.000000	0.000000	0.000000	0.000000	-29.399875	13.467923	-70.068881	-74.534730	-0.000000	0.000000	-0.000000	-0.000000	-21.882840	-9.354380	-1.052940	-0.011780	0.829771	0.556029	-1.000000	-1.000000	-1.000000	-1.000000	-1.000000	-1.000000	-1.000000	139.103448	0.000000	-1.000000	-1.000000	447919.000000	1772918925.364042
-4382.460000	23188.410000	-18593.910000	-14597.145000	0.000000	0.000000	0.000000	0.000000	41.601605	36.662890	42.296221	33.251210	-0.000000	0.000000	-0.000000	-0.000000	-21.882840	-9.354380	-1.052940	-0.011780	0.829771	0.556029	-1.000000	-1.000000	-1.000000	-1.000000	-1.000000	-1.000000	-1.000000	139.103448	0.000000	-1.000000	-1.000000	447920.000000	1772918925.364044
-4419.855000	23139.585000	-18569.160000	-14581.575000	0.000000	0.000000	0.000000	0.000000	87.917017	45.736831	129.586705	121.920002	-0.000000	0.000000	-0.000000	-0.000000	-21.882840	-9.354380	-1.052940	-0.011780	0.829771	0.556029	-1.000000	-1.000000	-1.000000	-1.000000	-1.000000	-1.000000	-1.000000	139.103448	0.000000	-1.000000	-1.000000	447921.000000	1772918925.364047
-4360.140000	23060.205000	-18552.105000	-14607.045000	0.000000	0.000000	0.000000	0.000000	75.191913	28.949916	143.351576	143.751916	-0.000000	0.000000	-0.000000	-0.000000	-21.882840	-9.354380	-1.052940	-0.011780	0.829771	0.556029	-1.000000	-1.000000	-1.000000	-1.000000	-1.000000	-1.000000	-1.000000	139.103448	0.000000	-1.000000	-1.000000	447922.000000	1772918925.364049
-4391.190000	23061.285000	-18676.215000	-14811.570000	0.000000	0.000000	0.000000	0.000000	19.582651	-13.998361	84.721231	88.068265	-0.000000	0.000000	-0.000000	-0.000000	-21.882840	-9.354380	-1.052940	-0.011780	0.829771	0.556029	-1.000000	-1.000000	-1.000000	-1.000000	-1.000000	-1.000000	-1.000000	139.103448	0.000000	-1.000000	-1.000000	447923.000000	1772918925.364052
-4327.515000	23054.445000	-18658.485000	-14862.465000	0.000000	0.000000	0.000000	0.000000	-37.453032	-60.718689	-9.600754	-17.316455	-0.000000	0.000000	-0.000000	-0.000000	-21.882840	-9.354380	-1.052940	-0.011780	0.829771	0.556029	-1.000000	-1.000000	-1.000000	-1.000000	-1.000000	-1.000000	-1.000000	139.103448	0.000000	-1.000000	-1.000000	447924.000000	1772918925.364054
-4370.040000	23030.055000	-18685.035000	-14931.585000	0.000000	0.000000	0.000000	0.000000	-66.264723	-82.342083	-90.845479	-117.486239	-0.000000	0.000000	-0.000000	-0.000000	-21.882840	-9.354380	-1.052940	-0.011780	0.829771	0.556029	-1.000000	-1.000000	-1.000000	-1.000000	-1.000000	-1.000000	-1.000000	139.103448	0.000000	-1.000000	-1.000000	447925.000000	1772918925.364057
-4500.810000	23003.145000	-18783.405000	-14986.665000	0.000000	0.000000	0.000000	0.000000	-64.715049	-68.503032	-123.824771	-160.041673	-0.000000	0.000000	-0.000000	-0.000000	-21.882840	-9.354380	-1.052940	-0.011780	0.829771	0.556029	-1.000000	-1.000000	-1.000000	-1.000000	-1.000000	-1.000000	-1.000000	139.103448	0.000000	-1.000000	-1.000000	447926.000000	1772918925.364059
-4569.570000	22947.120000	-18775.440000	-14909.895000	0.000000	0.000000	0.000000	0.000000	-50.623172	-31.210597	-105.195874	-126.581215	-0.000000	0.000000	-0.000000	-0.000000	-54.111960	-10.544660	8.637160	0.017822	0.909299	0.557433	-1.000000	-1.000000	-1.000000	-1.000000	-1.000000	-1.000000	-1.000000	139.103448	0.000000	-1.000000	-1.000000	447927.000000	1772918925.364061
-4340.430000	22863.015000	-18490.725000	-14623.380000	0.000000	0.000000	0.000000	0.000000	-31.853566	7.679344	-47.776370	-31.791147	-0.000000	0.000000	-0.000000	-0.000000	-54.111960	-10.544660	8.637160	0.017822	0.909299	0.557433	-1.000000	-1.000000	-1.000000	-1.000000	-1.000000	-1.000000	-1.000000	139.103448	0.000000	-1.000000	-1.000000	447928.000000	1772918925.364063
-4269.195000	22828.995000	-18491.670000	-14589.405000	0.000000	0.000000	0.000000	0.000000	4.024605	31.485850	33.719572	88.200781	-0.000000	0.000000	-0.000000	-0.000000	-54.111960	-10.544660	8.637160	0.017822	0.909299	0.557433	-1.000000	-1.000000	-1.000000	-1.000000	-1.000000	-1.000000	-1.000000	139.103448	0.000000	-1.000000	-1.000000	447929.000000	1772918925.364066
-4326.390000	22842.585000	-18614.835000	-14666.895000	0.000000	0.000000	0.000000	0.000000	54.798683	38.851442	104.278804	175.345788	-0.000000	0.000000	-0.000000	-0.000000	-54.111960	-10.544660	8.637160	0.017822	0.909299	0.557433	-1.000000	-1.000000	-1.000000	-1.000000	-1.000000	-1.000000	-1.000000	139.103448	0.000000	-1.000000	-1.000000	447930.000000	1772918925.364068
-4407.345000	22828.860000	-18687.105000	-14776.605000	0.000000	0.000000	0.000000	0.000000	85.913455	39.542928	116.734459	174.563776	-0.000000	0.000000	-0.000000	-0.000000	-54.111960	-10.544660	8.637160	0.017822	0.909299	0.557433	-1.000000	-1.000000	-1.000000	-1.000000	-1.000000	-1.000000	-1.000000	139.103448	0.000000	-1.000000	-1.000000	447931.000000	1772918925.364071
-4588.155000	22815.405000	-18898.605000	-14980.680000	0.000000	0.000000	0.000000	0.000000	65.775563	39.910557	57.915999	79.177637	-0.000000	0.000000	-0.000000	-0.000000	-54.111960	-10.544660	8.637160	0.017822	0.909299	0.557433	-1.000000	-1.000000	-1.000000	-1.000000	-1.000000	-1.000000	-1.000000	139.103448	0.000000	-1.000000	-1.000000	447932.000000	1772918925.364073
-4588.425000	22777.965000	-18893.385000	-14951.340000	0.000000	0.000000	0.000000	0.000000	1.374978	37.070829	-35.987231	-58.146787	-0.000000	0.000000	-0.000000	-0.000000	-54.111960	-10.544660	8.637160	0.017822	0.909299	0.557433	-1.000000	-1.000000	-1.000000	-1.000000	-1.000000	-1.000000	-1.000000	139.103448	0.000000	-1.000000	-1.000000	447933.000000	1772918925.364076
-4574.745000	22796.955000	-18841.770000	-14887.170000	0.000000	0.000000	0.000000	0.000000	-63.361508	26.726858	-104.220912	-156.581219	-0.000000	0.000000	-0.000000	-0.000000	-54.111960	-10.544660	8.637160	0.017822	0.909299	0.557433	-1.000000	-1.000000	-1.000000	-1.000000	-1.000000	-1.000000	-1.000000	139.103448	0.000000	-1.000000	-1.000000	447934.000000	1772918925.364078
-4488.705000	22831.695000	-18717.030000	-14817.645000	0.000000	0.000000	0.000000	0.000000	-82.027340	11.774648	-100.953352	-160.328384	-0.000000	0.000000	-0.000000	-0.000000	-54.111960	-10.544660	8.637160	0.017822	0.909299	0.557433	-1.000000	-1.000000	-1.000000	-1.000000	-1.000000	-1.000000	-1.000000	139.103448	0.000000	-1.000000	-1.000000	447935.000000	1772918925.364081
-4334.265000	22876.695000	-18579.195000	-14676.345000	0.000000	0.000000	0.000000	0.000000	-41.013678	0.314500	-27.265120	-75.717914	-0.000000	0.000000	-0.000000	-0.000000	-54.111960	-10.544660	8.637160	0.017822	0.909299	0.557433	-1.000000	-1.000000	-1.000000	-1.000000	-1.000000	-1.000000	-1.000000	139.103448	0.000000	-1.000000	-1.000000	447936.000000	1772918925.364083
-4224.510000	22932.360000	-18471.375000	-14537.070000	0.000000	0.000000	0.000000	0.000000	35.330834	-2.993648	71.905641	43.277685	-0.000000	0.000000	-0.000000	-0.000000	-81.015340	-25.056920	13.947640	0.037353	0.989316	0.595763	-1.000000	-1.000000	-1.000000	-1.000000	-1.000000	-1.000000	-1.000000	139.103448	0.000000	-1.000000	-1.000000	447937.000000	1772918925.364085
-4319.145000	22955.580000	-18562.320000	-14641.155000	0.000000	0.000000	0.000000	0.000000	99.151501	-0.899468	136.456427	131.502142	-0.000000	0.000000	-0.000000	-0.000000	-81.015340	-25.056920	13.947640	0.037353	0.989316	0.595763	-1.000000	-1.000000	-1.000000	-1.000000	-1.000000	-1.000000	-1.000000	139.103448	0.000000	-1.000000	-1.000000	447938.000000	1772918925.364087
-4476.285000	22964.310000	-18702.720000	-14764.140000	0.000000	0.000000	0.000000	0.000000	103.029738	-0.882731	122.929257	140.011649	-0.000000	0.000000	-0.000000	-0.000000	-81.015340	-25.056920	13.947640	0.037353	0.989316	0.595763	-1.000000	-1.000000	-1.000000	-1.000000	-1.000000	-1.000000	-1.000000	139.103448	0.000000	-1.000000	-1.000000	447939.000000	1772918925.364090
-4440.375000	22978.935000	-18741.510000	-14846.895000	0.000000	0.000000	0.000000	0.000000	37.278933	-8.482595	33.757476	63.844257	-0.000000	0.000000	-0.000000	-0.000000	-81.015340	-25.056920	13.947640	0.037353	0.989316	0.595763	-1.000000	-1.000000	-1.000000	-1.000000	-1.000000	-1.000000	-1.000000	139.103448	0.000000	-1.000000	-1.000000	447940.000000	1772918925.364092
-4558.815000	22863.150000	-18905.490000	-14893.155000	0.000000	0.000000	0.000000	0.000000	-55.502382	-23.944194	-80.197147	-48.632326	-0.000000	0.000000	-0.000000	-0.000000	-81.015340	-25.056920	13.947640	0.037353	0.989316	0.595763	-1.000000	-1.000000	-1.000000	-1.000000	-1.000000	-1.000000	-1.000000	139.103448	0.000000	-1.000000	-1.000000	447941.000000	1772918925.364095
-4625.505000	22914.810000	-18893.475000	-14818.770000	0.000000	0.000000	0.000000	0.000000	-119.506299	-42.427110	-156.556653	-127.931224	-0.000000	0.000000	-0.000000	-0.000000	-81.015340	-25.056920	13.947640	0.037353	0.989316	0.595763	-1.000000	-1.000000	-1.000000	-1.000000	-1.000000	-1.000000	-1.000000	139.103448	0.000000	-1.000000	-1.000000	447942.000000	1772918925.364097
-4489.290000	22986.405000	-18741.510000	-14780.565000	0.000000	0.000000	0.000000	0.000000	-124.225310	-50.393025	-155.478140	-129.982486	-0.000000	0.000000	-0.000000	-0.000000	-81.015340	-25.056920	13.947640	0.037353	0.989316	0.595763	-1.000000	-1.000000	-1.000000	-1.000000	-1.000000	-1.000000	-1.000000	139.103448	0.000000	-1.000000	-1.000000	447943.000000	1772918925.364099
-4353.570000	23051.925000	-18604.890000	-14838.345000	0.000000	0.000000	0.000000	0.000000	-66.086442	-33.346985	-73.135184	-63.326892	-0.000000	0.000000	-0.000000	-0.000000	-81.015340	-25.056920	13.947640	0.037353	0.989316	0.595763	-1.000000	-1.000000	-1.000000	-1.000000	-1.000000	-1.000000	-1.000000	139.103448	0.000000	-1.000000	-1.000000	447944.000000	1772918925.364101
-4345.425000	23105.385000	-18548.190000	-14735.655000	0.000000	0.000000	0.000000	0.000000	29.421206	5.297954	50.483807	23.906644	-0.000000	0.000000	-0.000000	-0.000000	-81.015340	-25.056920	13.947640	0.037353	0.989316	0.595763	-1.000000	-1.000000	-1.000000	-1.000000	-1.000000	-1.000000	-1.000000	139.103448	0.000000	-1.000000	-1.000000	447945.000000	1772918925.364104
-4394.115000	23190.390000	-18621.495000	-14720.940000	0.000000	0.000000	0.000000	0.000000	109.079027	44.690844	146.296096	86.633212	-0.000000	0.000000	-0.000000	-0.000000	-81.015340	-25.056920	13.947640	0.037353	0.989316	0.595763	-1.000000	-1.000000	-1.000000	-1.000000	-1.000000	-1.000000	-1.000000	139.103448	0.000000	-1.000000	-1.000000	447946.000000	1772918925.364106
-4263.300000	23219.235000	-18527.715000	-14629.680000	0.000000	0.000000	0.000000	0.000000	128.871764	64.301001	162.275771	106.813837	-0.000000	0.000000	-0.000000	-0.000000	-41.629280	-26.567660	40.408480	0.006775	0.959409	0.658690	-1.000000	-1.000000	-1.000000	-1.000000	-1.000000	-1.000000	-1.000000	139.103448	0.000000	-1.000000	-1.000000	447947.000000	1772918925.364109
-4258.800000	23218.740000	-18606.735000	-14726.970000	0.000000	0.000000	0.000000	0.000000	89.891314	54.699574	100.016355	86.243991	-0.000000	0.000000	-0.000000	-0.000000	-41.629280	-26.567660	40.408480	0.006775	0.959409	0.658690	-1.000000	-1.000000	-1.000000	-1.000000	-1.000000	-1.000000	-1.000000	139.103448	0.000000	-1.000000	-1.000000	447948.000000	1772918925.364111
-4258.800000	23218.740000	-18606.735000	-14726.970000	0.000000	0.000000	0.000000	0.000000	24.061870	19.646620	2.099034	35.494947	-0.000000	0.000000	-0.000000	-0.000000	-41.629280	-26.567660	40.408480	0.006775	0.959409	0.658690	-1.000000	-1.000000	-1.000000	-1.000000	-1.000000	-1.000000	-1.000000	139.103448	0.000000	-1.000000	-1.000000	447949.000000	1772918925.364545
-4258.800000	23218.740000	-18606.735000	-14726.970000	0.000000	0.000000	0.000000	0.000000	-38.465475	-24.933447	-82.610318	-25.508943	-0.000000	0.000000	-0.000000	-0.000000	-41.629280	-26.567660	40.408480	0.006775	0.959409	0.658690	-1.000000	-1.000000	-1.000000	-1.000000	-1.000000	-1.000000	-1.000000	139.103448	0.000000	-1.000000	-1.000000	447950.000000	1772918925.364550
-4258.800000	23218.740000	-18606.735000	-14726.970000	0.000000	0.000000	0.000000	0.000000	-78.785211	-58.584646	-120.745734	-69.925328	-0.000000	0.000000	-0.000000	-0.000000	-41.629280	-26.567660	40.408480	0.006775	0.959409	0.658690	-1.000000	-1.000000	-1.000000	-1.000000	-1.000000	-1.000000	-1.000000	139.103448	0.000000	-1.000000	-1.000000	447951.000000	1772918925.364552
-4258.800000	23218.740000	-18606.735000	-14726.970000	0.000000	0.000000	0.000000	0.000000	-88.604421	-67.798336	-105.886145	-80.404761	-0.000000	0.000000	-0.000000	-0.000000	-41.629280	-26.567660	40.408480	0.006775	0.959409	0.658690	-1.000000	-1.000000	-1.000000	-1.000000	-1.000000	-1.000000	-1.000000	139.103448	0.000000	-1.000000	-1.000000	447952.000000	1772918925.364553
-4366.665000	23407.200000	-18686.430000	-14781.465000	0.000000	0.000000	0.000000	0.000000	-72.640774	-48.663863	-57.603177	-60.087109	-0.000000	0.000000	-0.000000	-0.000000	-41.629280	-26.567660	40.408480	0.006775	0.959409	0.658690	-1.000000	-1.000000	-1.000000	-1.000000	-1.000000	-1.000000	-1.000000	139.103448	0.000000	-1.000000	-1.000000	447955.000000	1772918925.371935
-4495.725000	23420.520000	-18797.850000	-14917.815000	0.000000	0.000000	0.000000	0.000000	-47.354800	-5.744045	-7.681085	-28.601970	-0.000000	0.000000	-0.000000	-0.000000	-41.629280	-26.567660	40.408480	0.006775	0.959409	0.658690	-1.000000	-1.000000	-1.000000	-1.000000	-1.000000	-1.000000	-1.000000	139.103448	0.000000	-1.000000	-1.000000	447956.000000	1772918925.371945
-4555.890000	23239.305000	-18906.120000	-15084.270000	0.000000	0.000000	0.000000	0.000000	-27.543100	37.511973	19.361561	-8.755206	-0.000000	0.000000	-0.000000	-0.000000	-177.733220	-41.995520	74.087300	-0.004150	0.904539	0.690550	-1.000000	-1.000000	-1.000000	-1.000000	-1.000000	-1.000000	-1.000000	139.103448	0.000000	-1.000000	-1.000000	447957.000000	1772918925.375993
-4619.070000	23070.735000	-18996.255000	-15106.365000	0.000000	0.000000	0.000000	0.000000	-12.805904	44.289683	20.435280	-7.562026	-0.000000	0.000000	-0.000000	-0.000000	-177.733220	-41.995520	74.087300	-0.004150	0.904539	0.690550	-1.000000	-1.000000	-1.000000	-1.000000	-1.000000	-1.000000	-1.000000	139.103448	0.000000	-1.000000	-1.000000	447958.000000	1772918925.376004
-4421.430000	23121.360000	-18756.990000	-14880.735000	0.000000	0.000000	0.000000	0.000000	10.190916	5.958654	16.008276	-4.533111	-0.000000	0.000000	-0.000000	-0.000000	-177.733220	-41.995520	74.087300	-0.004150	0.904539	0.690550	-1.000000	-1.000000	-1.000000	-1.000000	-1.000000	-1.000000	-1.000000	139.103448	0.000000	-1.000000	-1.000000	447959.000000	1772918925.380775
-4342.950000	23176.575000	-18634.455000	-14747.895000	0.000000	0.000000	0.000000	0.000000	52.944816	-38.242833	35.260686	29.309279	-0.000000	0.000000	-0.000000	-0.000000	-177.733220	-41.995520	74.087300	-0.004150	0.904539	0.690550	-1.000000	-1.000000	-1.000000	-1.000000	-1.000000	-1.000000	-1.000000	139.103448	0.000000	-1.000000	-1.000000	447960.000000	1772918925.380778
-4345.380000	23100.075000	-18550.890000	-14703.750000	0.000000	0.000000	0.000000	0.000000	103.374083	-44.954160	81.226292	89.689379	-0.000000	0.000000	-0.000000	-0.000000	-177.733220	-41.995520	74.087300	-0.004150	0.904539	0.690550	-1.000000	-1.000000	-1.000000	-1.000000	-1.000000	-1.000000	-1.000000	139.103448	0.000000	-1.000000	-1.000000	447961.000000	1772918925.387378
-4277.160000	23073.030000	-18454.950000	-14677.560000	0.000000	0.000000	0.000000	0.000000	126.971852	-13.379610	119.407767	132.482481	-0.000000	0.000000	-0.000000	-0.000000	-177.733220	-41.995520	74.087300	-0.004150	0.904539	0.690550	-1.000000	-1.000000	-1.000000	-1.000000	-1.000000	-1.000000	-1.000000	139.103448	0.000000	-1.000000	-1.000000	447962.000000	1772918925.387381
-4434.750000	22999.905000	-18589.095000	-14772.690000	0.000000	0.000000	0.000000	0.000000	98.693745	25.575270	110.189808	115.869724	-0.000000	0.000000	-0.000000	-0.000000	-177.733220	-41.995520	74.087300	-0.004150	0.904539	0.690550	-1.000000	-1.000000	-1.000000	-1.000000	-1.000000	-1.000000	-1.000000	139.103448	0.000000	-1.000000	-1.000000	447963.000000	1772918925.394576
-4508.640000	22956.435000	-18644.220000	-14804.820000	0.000000	0.000000	0.000000	0.000000	22.023092	45.474876	40.502995	36.947039	-0.000000	0.000000	-0.000000	-0.000000	-177.733220	-41.995520	74.087300	-0.004150	0.904539	0.690550	-1.000000	-1.000000	-1.000000	-1.000000	-1.000000	-1.000000	-1.000000	139.103448	0.000000	-1.000000	-1.000000	447964.000000	1772918925.394579
-4462.110000	23002.110000	-18682.830000	-14868.315000	0.000000	0.000000	0.000000	0.000000	-69.760162	42.195115	-63.326937	-66.679316	-0.000000	0.000000	-0.000000	-0.000000	-177.733220	-41.995520	74.087300	-0.004150	0.904539	0.690550	-1.000000	-1.000000	-1.000000	-1.000000	-1.000000	-1.000000	-1.000000	139.103448	0.000000	-1.000000	-1.000000	447965.000000	1772918925.394583
-4447.665000	22938.435000	-18671.355000	-14880.375000	0.000000	0.000000	0.000000	0.000000	-127.066549	28.413657	-147.198541	-142.867448	-0.000000	0.000000	-0.000000	-0.000000	-177.733220	-41.995520	74.087300	-0.004150	0.904539	0.690550	-1.000000	-1.000000	-1.000000	-1.000000	-1.000000	-1.000000	-1.000000	139.103448	0.000000	-1.000000	-1.000000	447966.000000	1772918925.394585
-4419.090000	22772.295000	-18788.805000	-14883.345000	0.000000	0.000000	0.000000	0.000000	-120.505779	12.171180	-169.133086	-157.294557	-0.000000	0.000000	-0.000000	-0.000000	-173.262040	-42.071820	49.106680	0.016052	0.886716	0.692625	-1.000000	-1.000000	-1.000000	-1.000000	-1.000000	-1.000000	-1.000000	139.103448	0.000000	-1.000000	-1.000000	447967.000000	1772918925.397950
-4380.840000	22658.355000	-18867.960000	-14863.230000	0.000000	0.000000	0.000000	0.000000	-61.880433	-10.435645	-129.082108	-109.111459	-0.000000	0.000000	-0.000000	-0.000000	-173.262040	-42.071820	49.106680	0.016052	0.886716	0.692625	-1.000000	-1.000000	-1.000000	-1.000000	-1.000000	-1.000000	-1.000000	139.103448	0.000000	-1.000000	-1.000000	447968.000000	1772918925.397953
-4549.005000	22667.355000	-18834.165000	-14747.130000	0.000000	0.000000	0.000000	0.000000	8.526010	-35.650054	-55.768779	-24.100604	-0.000000	0.000000	-0.000000	-0.000000	-173.262040	-42.071820	49.106680	0.016052	0.886716	0.692625	-1.000000	-1.000000	-1.000000	-1.000000	-1.000000	-1.000000	-1.000000	139.103448	0.000000	-1.000000	-1.000000	447969.000000	1772918925.399986
-4409.640000	22650.345000	-18642.105000	-14534.595000	0.000000	0.000000	0.000000	0.000000	51.743702	-44.278834	26.366219	65.649000	-0.000000	0.000000	-0.000000	-0.000000	-173.262040	-42.071820	49.106680	0.016052	0.886716	0.692625	-1.000000	-1.000000	-1.000000	-1.000000	-1.000000	-1.000000	-1.000000	139.103448	0.000000	-1.000000	-1.000000	447970.000000	1772918925.399990
-4388.130000	22714.020000	-18640.665000	-14626.125000	0.000000	0.000000	0.000000	0.000000	60.180722	-22.645619	102.429488	130.177439	-0.000000	0.000000	-0.000000	-0.000000	-173.262040	-42.071820	49.106680	0.016052	0.886716	0.692625	-1.000000	-1.000000	-1.000000	-1.000000	-1.000000	-1.000000	-1.000000	139.103448	0.000000	-1.000000	-1.000000	447971.000000	1772918925.404438
-4202.190000	22727.835000	-18592.065000	-14760.900000	0.000000	0.000000	0.000000	0.000000	53.761533	21.026923	149.843829	137.237809	-0.000000	0.000000	-0.000000	-0.000000	-173.262040	-42.071820	49.106680	0.016052	0.886716	0.692625	-1.000000	-1.000000	-1.000000	-1.000000	-1.000000	-1.000000	-1.000000	139.103448	0.000000	-1.000000	-1.000000	447972.000000	1772918925.404441
-4292.370000	22711.680000	-18866.430000	-14861.925000	0.000000	0.000000	0.000000	0.000000	47.075388	61.538122	140.394823	72.387353	-0.000000	0.000000	-0.000000	-0.000000	-173.262040	-42.071820	49.106680	0.016052	0.886716	0.692625	-1.000000	-1.000000	-1.000000	-1.000000	-1.000000	-1.000000	-1.000000	139.103448	0.000000	-1.000000	-1.000000	447973.000000	1772918925.407848
-4582.215000	22627.440000	-19031.130000	-15009.795000	0.000000	0.000000	0.000000	0.000000	28.077086	72.425955	63.249607	-34.676686	-0.000000	0.000000	-0.000000	-0.000000	-173.262040	-42.071820	49.106680	0.016052	0.886716	0.692625	-1.000000	-1.000000	-1.000000	-1.000000	-1.000000	-1.000000	-1.000000	139.103448	0.000000	-1.000000	-1.000000	447974.000000	1772918925.407860
-4445.415000	22642.470000	-18787.410000	-14901.165000	0.000000	0.000000	0.000000	0.000000	-18.706005	44.939714	-46.166184	-123.266294	-0.000000	0.000000	-0.000000	-0.000000	-173.262040	-42.071820	49.106680	0.016052	0.886716	0.692625	-1.000000	-1.000000	-1.000000	-1.000000	-1.000000	-1.000000	-1.000000	139.103448	0.000000	-1.000000	-1.000000	447975.000000	1772918925.442391
-4291.425000	22754.475000	-18590.445000	-14719.905000	0.000000	0.000000	0.000000	0.000000	-66.941518	-1.122474	-110.803003	-137.762065	-0.000000	0.000000	-0.000000	-0.000000	-173.262040	-42.071820	49.106680	0.016052	0.886716	0.692625	-1.000000	-1.000000	-1.000000	-1.000000	-1.000000	-1.000000	-1.000000	139.103448	0.000000	-1.000000	-1.000000	447976.000000	1772918925.442396
-4293.945000	22810.680000	-18610.605000	-14722.605000	0.000000	0.000000	0.000000	0.000000	-70.389247	-32.341526	-84.526006	-66.426039	-0.000000	0.000000	-0.000000	-0.000000	-157.574760	-43.292620	31.176180	0.001831	0.787107	0.688597	-1.000000	-1.000000	-1.000000	-1.000000	-1.000000	-1.000000	-1.000000	139.103448	0.000000	-1.000000	-1.000000	447977.000000	1772918925.442416
-4117.545000	22857.930000	-18434.745000	-14540.940000	0.000000	0.000000	0.000000	0.000000	-23.664742	-33.154092	-1.356469	44.303733	-0.000000	0.000000	-0.000000	-0.000000	-157.574760	-43.292620	31.176180	0.001831	0.787107	0.688597	-1.000000	-1.000000	-1.000000	-1.000000	-1.000000	-1.000000	-1.000000	139.103448	0.000000	-1.000000	-1.000000	447978.000000	1772918925.442418
-4237.920000	22861.530000	-18514.485000	-14582.970000	0.000000	0.000000	0.000000	0.000000	35.898068	-16.201330	69.150127	127.469366	-0.000000	0.000000	-0.000000	-0.000000	-157.574760	-43.292620	31.176180	0.001831	0.787107	0.688597	-1.000000	-1.000000	-1.000000	-1.000000	-1.000000	-1.000000	-1.000000	139.103448	0.000000	-1.000000	-1.000000	447979.000000	1772918925.442421
-4343.265000	22911.030000	-18556.020000	-14657.670000	0.000000	0.000000	0.000000	0.000000	62.266156	-3.028061	80.023447	138.726910	-0.000000	0.000000	-0.000000	-0.000000	-157.574760	-43.292620	31.176180	0.001831	0.787107	0.688597	-1.000000	-1.000000	-1.000000	-1.000000	-1.000000	-1.000000	-1.000000	139.103448	0.000000	-1.000000	-1.000000	447980.000000	1772918925.442423
-4385.565000	22954.590000	-18631.170000	-14752.440000	0.000000	0.000000	0.000000	0.000000	34.225506	-3.021463	27.540385	73.352050	-0.000000	0.000000	-0.000000	-0.000000	-157.574760	-43.292620	31.176180	0.001831	0.787107	0.688597	-1.000000	-1.000000	-1.000000	-1.000000	-1.000000	-1.000000	-1.000000	139.103448	0.000000	-1.000000	-1.000000	447981.000000	1772918925.442426
-4386.285000	22952.070000	-18721.890000	-14795.460000	0.000000	0.000000	0.000000	0.000000	-24.367156	-11.767547	-53.104607	-31.418915	-0.000000	0.000000	-0.000000	-0.000000	-157.574760	-43.292620	31.176180	0.001831	0.787107	0.688597	-1.000000	-1.000000	-1.000000	-1.000000	-1.000000	-1.000000	-1.000000	139.103448	0.000000	-1.000000	-1.000000	447982.000000	1772918925.442428
-4572.675000	22966.245000	-18840.465000	-14841.090000	0.000000	0.000000	0.000000	0.000000	-70.304933	-21.977337	-115.746497	-117.807155	-0.000000	0.000000	-0.000000	-0.000000	-157.574760	-43.292620	31.176180	0.001831	0.787107	0.688597	-1.000000	-1.000000	-1.000000	-1.000000	-1.000000	-1.000000	-1.000000	139.103448	0.000000	-1.000000	-1.000000	447983.000000	1772918925.442431
-4595.085000	22978.080000	-18898.740000	-14851.080000	0.000000	0.000000	0.000000	0.000000	-81.343895	-28.420186	-131.204861	-143.879547	-0.000000	0.000000	-0.000000	-0.000000	-157.574760	-43.292620	31.176180	0.001831	0.787107	0.688597	-1.000000	-1.000000	-1.000000	-1.000000	-1.000000	-1.000000	-1.000000	139.103448	0.000000	-1.000000	-1.000000	447984.000000	1772918925.442433
-4411.665000	22928.805000	-18825.120000	-14839.065000	0.000000	0.000000	0.000000	0.000000	-54.295185	-28.493795	-92.799550	-104.082405	-0.000000	0.000000	-0.000000	-0.000000	-157.574760	-43.292620	31.176180	0.001831	0.787107	0.688597	-1.000000	-1.000000	-1.000000	-1.000000	-1.000000	-1.000000	-1.000000	139.103448	0.000000	-1.000000	-1.000000	447985.000000	1772918925.442436
-4352.040000	22887.090000	-18609.075000	-14657.805000	0.000000	0.000000	0.000000	0.000000	8.248479	-24.228683	-9.301005	-21.485246	-0.000000	0.000000	-0.000000	-0.000000	-157.574760	-43.292620	31.176180	0.001831	0.787107	0.688597	-1.000000	-1.000000	-1.000000	-1.000000	-1.000000	-1.000000	-1.000000	139.103448	0.000000	-1.000000	-1.000000	447986.000000	1772918925.442437
-4350.690000	22892.130000	-18535.590000	-14664.600000	0.000000	0.000000	0.000000	0.000000	82.880848	-18.161960	94.343163	69.119620	-0.000000	0.000000	-0.000000	-0.000000	-137.645200	-36.242500	31.099880	0.038574	0.674010	0.655882	-1.000000	-1.000000	-1.000000	-1.000000	-1.000000	-1.000000	-1.000000	139.103448	0.000000	-1.000000	-1.000000	447987.000000	1772918925.442440
-4481.055000	22943.430000	-18562.500000	-14733.135000	0.000000	0.000000	0.000000	0.000000	124.048720	-7.206258	171.971421	127.314316	-0.000000	0.000000	-0.000000	-0.000000	-137.645200	-36.242500	31.099880	0.038574	0.674010	0.655882	-1.000000	-1.000000	-1.000000	-1.000000	-1.000000	-1.000000	-1.000000	139.103448	0.000000	-1.000000	-1.000000	447988.000000	1772918925.442442
-4267.665000	23053.545000	-18470.070000	-14620.320000	0.000000	0.000000	0.000000	0.000000	104.790983	14.093421	179.310658	125.050709	-0.000000	0.000000	-0.000000	-0.000000	-137.645200	-36.242500	31.099880	0.038574	0.674010	0.655882	-1.000000	-1.000000	-1.000000	-1.000000	-1.000000	-1.000000	-1.000000	139.103448	0.000000	-1.000000	-1.000000	447989.000000	1772918925.442445
-4178.655000	23139.270000	-18522.405000	-14733.990000	0.000000	0.000000	0.000000	0.000000	47.900796	44.289466	111.765590	70.427614	-0.000000	0.000000	-0.000000	-0.000000	-137.645200	-36.242500	31.099880	0.038574	0.674010	0.655882	-1.000000	-1.000000	-1.000000	-1.000000	-1.000000	-1.000000	-1.000000	139.103448	0.000000	-1.000000	-1.000000	447990.000000	1772918925.442447
-4392.090000	23110.830000	-18807.075000	-15011.235000	0.000000	0.000000	0.000000	0.000000	-8.604396	68.720673	-0.242035	-9.486059	-0.000000	0.000000	-0.000000	-0.000000	-137.645200	-36.242500	31.099880	0.038574	0.674010	0.655882	-1.000000	-1.000000	-1.000000	-1.000000	-1.000000	-1.000000	-1.000000	139.103448	0.000000	-1.000000	-1.000000	447991.000000	1772918925.444151
-4350.870000	23077.350000	-18828.315000	-14880.465000	0.000000	0.000000	0.000000	0.000000	-54.835566	65.915378	-117.074353	-87.570908	-0.000000	0.000000	-0.000000	-0.000000	-137.645200	-36.242500	31.099880	0.038574	0.674010	0.655882	-1.000000	-1.000000	-1.000000	-1.000000	-1.000000	-1.000000	-1.000000	139.103448	0.000000	-1.000000	-1.000000	447992.000000	1772918925.444154
-4391.190000	23014.350000	-18788.805000	-14780.565000	0.000000	0.000000	0.000000	0.000000	-89.369332	27.456766	-190.608574	-124.482347	-0.000000	0.000000	-0.000000	-0.000000	-137.645200	-36.242500	31.099880	0.038574	0.674010	0.655882	-1.000000	-1.000000	-1.000000	-1.000000	-1.000000	-1.000000	-1.000000	139.103448	0.000000	-1.000000	-1.000000	447993.000000	1772918925.448206
-4298.220000	22970.385000	-18612.540000	-14725.890000	0.000000	0.000000	0.000000	0.000000	-97.263242	-30.597358	-177.211774	-90.386326	-0.000000	0.000000	-0.000000	-0.000000	-137.645200	-36.242500	31.099880	0.038574	0.674010	0.655882	-1.000000	-1.000000	-1.000000	-1.000000	-1.000000	-1.000000	-1.000000	139.103448	0.000000	-1.000000	-1.000000	447994.000000	1772918925.448210
-4433.445000	23061.960000	-18690.120000	-14803.605000	0.000000	0.000000	0.000000	0.000000	-70.877847	-76.103682	-78.744573	-7.392329	-0.000000	0.000000	-0.000000	-0.000000	-137.645200	-36.242500	31.099880	0.038574	0.674010	0.655882	-1.000000	-1.000000	-1.000000	-1.000000	-1.000000	-1.000000	-1.000000	139.103448	0.000000	-1.000000	-1.000000	447995.000000	1772918925.452337
-4308.885000	23008.635000	-18516.600000	-14602.095000	0.000000	0.000000	0.000000	0.000000	-24.233041	-82.276143	48.673387	69.301840	-0.000000	0.000000	-0.000000	-0.000000	-137.645200	-36.242500	31.099880	0.038574	0.674010	0.655882	-1.000000	-1.000000	-1.000000	-1.000000	-1.000000	-1.000000	-1.000000	139.103448	0.000000	-1.000000	-1.000000	447996.000000	1772918925.452340
-4275.000000	23068.170000	-18499.905000	-14619.510000	0.000000	0.000000	0.000000	0.000000	23.688219	-48.731067	140.292934	104.383310	-0.000000	0.000000	-0.000000	-0.000000	-104.424180	-15.610980	10.269980	0.108764	0.590941	0.611388	-1.000000	-1.000000	-1.000000	-1.000000	-1.000000	-1.000000	-1.000000	139.103448	0.000000	-1.000000	-1.000000	447997.000000	1772918925.457045
-4473.990000	23193.180000	-18728.595000	-14879.295000	0.000000	0.000000	0.000000	0.000000	56.620000	3.990226	158.063602	88.074456	-0.000000	0.000000	-0.000000	-0.000000	-104.424180	-15.610980	10.269980	0.108764	0.590941	0.611388	-1.000000	-1.000000	-1.000000	-1.000000	-1.000000	-1.000000	-1.000000	139.103448	0.000000	-1.000000	-1.000000	447998.000000	1772918925.457048
-4762.215000	23216.670000	-18973.530000	-15140.115000	0.000000	0.000000	0.000000	0.000000	52.023965	53.730261	91.929699	18.378756	-0.000000	0.000000	-0.000000	-0.000000	-104.424180	-15.610980	10.269980	0.108764	0.590941	0.611388	-1.000000	-1.000000	-1.000000	-1.000000	-1.000000	-1.000000	-1.000000	139.103448	0.000000	-1.000000	-1.000000	447999.000000	1772918925.460217
-4635.405000	23255.595000	-18676.620000	-14810.040000	0.000000	0.000000	0.000000	0.000000	6.064136	80.736382	-21.986636	-74.115517	-0.000000	0.000000	-0.000000	-0.000000	-104.424180	-15.610980	10.269980	0.108764	0.590941	0.611388	-1.000000	-1.000000	-1.000000	-1.000000	-1.000000	-1.000000	-1.000000	139.103448	0.000000	-1.000000	-1.000000	448000.000000	1772918925.460251
-4475.475000	23256.495000	-18774.945000	-14757.750000	0.000000	0.000000	0.000000	0.000000	-36.806316	72.367142	-104.399488	-117.982820	-0.000000	0.000000	-0.000000	-0.000000	-104.424180	-15.610980	10.269980	0.108764	0.590941	0.611388	-1.000000	-1.000000	-1.000000	-1.000000	-1.000000	-1.000000	-1.000000	139.103448	0.000000	-1.000000	-1.000000	448001.000000	1772918925.464257
-4334.490000	23224.770000	-18716.715000	-14676.210000	0.000000	0.000000	0.000000	0.000000	-24.276451	32.314510	-105.421989	-72.744848	-0.000000	0.000000	-0.000000	-0.000000	-104.424180	-15.610980	10.269980	0.108764	0.590941	0.611388	-1.000000	-1.000000	-1.000000	-1.000000	-1.000000	-1.000000	-1.000000	139.103448	0.000000	-1.000000	-1.000000	448002.000000	1772918925.464260
-4203.315000	23245.110000	-18556.245000	-14628.375000	0.000000	0.000000	0.000000	0.000000	42.086946	-20.699462	-42.527422	23.358923	-0.000000	0.000000	-0.000000	-0.000000	-104.424180	-15.610980	10.269980	0.108764	0.590941	0.611388	-1.000000	-1.000000	-1.000000	-1.000000	-1.000000	-1.000000	-1.000000	139.103448	0.000000	-1.000000	-1.000000	448003.000000	1772918925.468228
-4114.530000	23253.210000	-18419.490000	-14644.440000	0.000000	0.000000	0.000000	0.000000	110.939556	-61.852499	40.086542	99.091501	-0.000000	0.000000	-0.000000	-0.000000	-104.424180	-15.610980	10.269980	0.108764	0.590941	0.611388	-1.000000	-1.000000	-1.000000	-1.000000	-1.000000	-1.000000	-1.000000	139.103448	0.000000	-1.000000	-1.000000	448004.000000	1772918925.468230
-4338.495000	23137.695000	-18572.985000	-14702.220000	0.000000	0.000000	0.000000	0.000000	125.381436	-75.798822	98.400458	108.884992	-0.000000	0.000000	-0.000000	-0.000000	-104.424180	-15.610980	10.269980	0.108764	0.590941	0.611388	-1.000000	-1.000000	-1.000000	-1.000000	-1.000000	-1.000000	-1.000000	139.103448	0.000000	-1.000000	-1.000000	448005.000000	1772918925.472270
-4471.200000	23204.790000	-18949.050000	-15018.660000	0.000000	0.000000	0.000000	0.000000	58.053992	-64.573373	89.713454	48.620183	-0.000000	0.000000	-0.000000	-0.000000	-104.424180	-15.610980	10.269980	0.108764	0.590941	0.611388	-1.000000	-1.000000	-1.000000	-1.000000	-1.000000	-1.000000	-1.000000	139.103448	0.000000	-1.000000	-1.000000	448006.000000	1772918925.472278
-4513.995000	23222.655000	-19024.020000	-15157.305000	0.000000	0.000000	0.000000	0.000000	-63.572813	-35.351098	2.690513	-53.184300	-0.000000	0.000000	-0.000000	-0.000000	-77.597100	4.974760	1.571780	0.126587	0.551451	0.613646	-1.000000	-1.000000	-1.000000	-1.000000	-1.000000	-1.000000	-1.000000	139.103448	0.000000	-1.000000	-1.000000	448007.000000	1772918925.476223
-4849.695000	23189.400000	-19040.850000	-15025.140000	0.000000	0.000000	0.000000	0.000000	-172.402255	3.866667	-108.590695	-139.685115	-0.000000	0.000000	-0.000000	-0.000000	-77.597100	4.974760	1.571780	0.126587	0.551451	0.613646	-1.000000	-1.000000	-1.000000	-1.000000	-1.000000	-1.000000	-1.000000	139.103448	0.000000	-1.000000	-1.000000	448008.000000	1772918925.476225
-4756.635000	23269.230000	-18844.290000	-14830.740000	0.000000	0.000000	0.000000	0.000000	-213.361338	39.174480	-156.794685	-145.531757	-0.000000	0.000000	-0.000000	-0.000000	-77.597100	4.974760	1.571780	0.126587	0.551451	0.613646	-1.000000	-1.000000	-1.000000	-1.000000	-1.000000	-1.000000	-1.000000	139.103448	0.000000	-1.000000	-1.000000	448009.000000	1772918925.483040
-4504.320000	23311.125000	-18698.940000	-14752.170000	0.000000	0.000000	0.000000	0.000000	-160.364392	59.839152	-96.551858	-52.264760	-0.000000	0.000000	-0.000000	-0.000000	-77.597100	4.974760	1.571780	0.126587	0.551451	0.613646	-1.000000	-1.000000	-1.000000	-1.000000	-1.000000	-1.000000	-1.000000	139.103448	0.000000	-1.000000	-1.000000	448010.000000	1772918925.483042
-4358.520000	23364.900000	-18594.135000	-14610.690000	0.000000	0.000000	0.000000	0.000000	-19.950543	63.898934	38.309374	85.176121	-0.000000	0.000000	-0.000000	-0.000000	-77.597100	4.974760	1.571780	0.126587	0.551451	0.613646	-1.000000	-1.000000	-1.000000	-1.000000	-1.000000	-1.000000	-1.000000	139.103448	0.000000	-1.000000	-1.000000	448011.000000	1772918925.485861
-4306.995000	23486.760000	-18543.555000	-14690.745000	0.000000	0.000000	0.000000	0.000000	147.343733	54.050545	162.670776	181.301455	-0.000000	0.000000	-0.000000	-0.000000	-77.597100	4.974760	1.571780	0.126587	0.551451	0.613646	-1.000000	-1.000000	-1.000000	-1.000000	-1.000000	-1.000000	-1.000000	139.103448	0.000000	-1.000000	-1.000000	448012.000000	1772918925.485864
-4414.140000	23559.345000	-18623.250000	-14848.965000	0.000000	0.000000	0.000000	0.000000	248.543980	36.396850	201.580055	177.586030	-0.000000	0.000000	-0.000000	-0.000000	-77.597100	4.974760	1.571780	0.126587	0.551451	0.613646	-1.000000	-1.000000	-1.000000	-1.000000	-1.000000	-1.000000	-1.000000	139.103448	0.000000	-1.000000	-1.000000	448013.000000	1772918925.489075
-4598.460000	23611.635000	-18835.065000	-14964.120000	0.000000	0.000000	0.000000	0.000000	222.509212	15.694263	131.949379	74.031147	-0.000000	0.000000	-0.000000	-0.000000	-77.597100	4.974760	1.571780	0.126587	0.551451	0.613646	-1.000000	-1.000000	-1.000000	-1.000000	-1.000000	-1.000000	-1.000000	139.103448	0.000000	-1.000000	-1.000000	448014.000000	1772918925.489078
-4537.755000	23629.680000	-18873.945000	-14988.870000	0.000000	0.000000	0.000000	0.000000	86.314024	-8.229662	-10.056853	-69.088853	-0.000000	0.000000	-0.000000	-0.000000	-77.597100	4.974760	1.571780	0.126587	0.551451	0.613646	-1.000000	-1.000000	-1.000000	-1.000000	-1.000000	-1.000000	-1.000000	139.103448	0.000000	-1.000000	-1.000000	448015.000000	1772918925.492269
-4471.740000	23620.005000	-18808.605000	-14946.930000	0.000000	0.000000	0.000000	0.000000	-72.417393	-35.456475	-144.795159	-168.305991	-0.000000	0.000000	-0.000000	-0.000000	-77.597100	4.974760	1.571780	0.126587	0.551451	0.613646	-1.000000	-1.000000	-1.000000	-1.000000	-1.000000	-1.000000	-1.000000	139.103448	0.000000	-1.000000	-1.000000	448016.000000	1772918925.492271
-4376.790000	23634.135000	-18728.685000	-14801.490000	0.000000	0.000000	0.000000	0.000000	-161.140490	-60.606665	-195.202088	-170.442255	-0.000000	0.000000	-0.000000	-0.000000	-19.654880	8.682940	-7.950460	0.109253	0.532591	0.666441	-1.000000	-1.000000	-1.000000	-1.000000	-1.000000	-1.000000	-1.000000	139.103448	0.000000	-1.000000	-1.000000	448017.000000	1772918925.498303
-4401.990000	23643.630000	-18675.405000	-14773.725000	0.000000	0.000000	0.000000	0.000000	-149.618138	-73.411280	-140.579463	-82.461819	-0.000000	0.000000	-0.000000	-0.000000	-19.654880	8.682940	-7.950460	0.109253	0.532591	0.666441	-1.000000	-1.000000	-1.000000	-1.000000	-1.000000	-1.000000	-1.000000	139.103448	0.000000	-1.000000	-1.000000	448018.000000	1772918925.498306
-4378.770000	23607.765000	-18615.780000	-14771.790000	0.000000	0.000000	0.000000	0.000000	-75.453533	-66.639888	-25.197880	36.398966	-0.000000	0.000000	-0.000000	-0.000000	-19.654880	8.682940	-7.950460	0.109253	0.532591	0.666441	-1.000000	-1.000000	-1.000000	-1.000000	-1.000000	-1.000000	-1.000000	139.103448	0.000000	-1.000000	-1.000000	448019.000000	1772918925.500213
-4399.380000	23638.770000	-18644.040000	-14792.805000	0.000000	0.000000	0.000000	0.000000	1.952362	-42.572633	80.805873	116.196319	-0.000000	0.000000	-0.000000	-0.000000	-19.654880	8.682940	-7.950460	0.109253	0.532591	0.666441	-1.000000	-1.000000	-1.000000	-1.000000	-1.000000	-1.000000	-1.000000	139.103448	0.000000	-1.000000	-1.000000	448020.000000	1772918925.500216
-4428.945000	23692.950000	-18688.545000	-14851.890000	0.000000	0.000000	0.000000	0.000000	44.084062	-8.412096	125.402572	121.512820	-0.000000	0.000000	-0.000000	-0.000000	-19.654880	8.682940	-7.950460	0.109253	0.532591	0.666441	-1.000000	-1.000000	-1.000000	-1.000000	-1.000000	-1.000000	-1.000000	139.103448	0.000000	-1.000000	-1.000000	448021.000000	1772918925.504287
-4500.000000	23704.560000	-18727.380000	-14805.630000	0.000000	0.000000	0.000000	0.000000	43.755758	27.781389	98.115743	65.757455	-0.000000	0.000000	-0.000000	-0.000000	-19.654880	8.682940	-7.950460	0.109253	0.532591	0.666441	-1.000000	-1.000000	-1.000000	-1.000000	-1.000000	-1.000000	-1.000000	139.103448	0.000000	-1.000000	-1.000000	448022.000000	1772918925.504289
-4579.605000	23656.635000	-18813.465000	-14829.795000	0.000000	0.000000	0.000000	0.000000	15.194075	53.637742	26.955205	-7.222495	-0.000000	0.000000	-0.000000	-0.000000	-19.654880	8.682940	-7.950460	0.109253	0.532591	0.666441	-1.000000	-1.000000	-1.000000	-1.000000	-1.000000	-1.000000	-1.000000	139.103448	0.000000	-1.000000	-1.000000	448023.000000	1772918925.509060
-4609.755000	23650.965000	-18888.030000	-14895.945000	0.000000	0.000000	0.000000	0.000000	-18.515467	56.699931	-46.069600	-58.336271	-0.000000	0.000000	-0.000000	-0.000000	-19.654880	8.682940	-7.950460	0.109253	0.532591	0.666441	-1.000000	-1.000000	-1.000000	-1.000000	-1.000000	-1.000000	-1.000000	139.103448	0.000000	-1.000000	-1.000000	448024.000000	1772918925.509063
-4471.020000	23698.575000	-18743.265000	-14762.250000	0.000000	0.000000	0.000000	0.000000	-32.916428	38.137317	-85.014632	-72.169652	-0.000000	0.000000	-0.000000	-0.000000	-19.654880	8.682940	-7.950460	0.109253	0.532591	0.666441	-1.000000	-1.000000	-1.000000	-1.000000	-1.000000	-1.000000	-1.000000	139.103448	0.000000	-1.000000	-1.000000	448025.000000	1772918925.512311
-4430.655000	23696.910000	-18690.435000	-14735.115000	0.000000	0.000000	0.000000	0.000000	-12.608592	13.558864	-69.579506	-49.325244	-0.000000	0.000000	-0.000000	-0.000000	-19.654880	8.682940	-7.950460	0.109253	0.532591	0.666441	-1.000000	-1.000000	-1.000000	-1.000000	-1.000000	-1.000000	-1.000000	139.103448	0.000000	-1.000000	-1.000000	448026.000000	1772918925.512314
-4221.540000	23676.120000	-18470.250000	-14593.860000	0.000000	0.000000	0.000000	0.000000	35.293112	-3.847395	-6.777985	-2.379171	-0.000000	0.000000	-0.000000	-0.000000	5.264700	13.291460	-14.008680	0.092956	0.524230	0.678831	-1.000000	-1.000000	-1.000000	-1.000000	-1.000000	-1.000000	-1.000000	139.103448	0.000000	-1.000000	-1.000000	448027.000000	1772918925.516327
-4336.380000	23669.370000	-18532.170000	-14635.980000	0.000000	0.000000	0.000000	0.000000	81.253151	-12.661109	67.304770	43.794959	-0.000000	0.000000	-0.000000	-0.000000	5.264700	13.291460	-14.008680	0.092956	0.524230	0.678831	-1.000000	-1.000000	-1.000000	-1.000000	-1.000000	-1.000000	-1.000000	139.103448	0.000000	-1.000000	-1.000000	448028.000000	1772918925.516330
-4477.995000	23764.545000	-18681.390000	-14799.195000	0.000000	0.000000	0.000000	0.000000	86.475836	-14.327586	102.381298	59.271205	-0.000000	0.000000	-0.000000	-0.000000	5.264700	13.291460	-14.008680	0.092956	0.524230	0.678831	-1.000000	-1.000000	-1.000000	-1.000000	-1.000000	-1.000000	-1.000000	139.103448	0.000000	-1.000000	-1.000000	448029.000000	1772918925.520332
-4500.450000	23806.755000	-18799.965000	-14905.035000	0.000000	0.000000	0.000000	0.000000	33.128983	-6.538728	66.206709	26.582048	-0.000000	0.000000	-0.000000	-0.000000	5.264700	13.291460	-14.008680	0.092956	0.524230	0.678831	-1.000000	-1.000000	-1.000000	-1.000000	-1.000000	-1.000000	-1.000000	139.103448	0.000000	-1.000000	-1.000000	448030.000000	1772918925.520335
-4514.310000	23851.665000	-18852.750000	-14955.210000	0.000000	0.000000	0.000000	0.000000	-48.868819	8.923843	-22.368855	-37.240807	-0.000000	0.000000	-0.000000	-0.000000	5.264700	13.291460	-14.008680	0.092956	0.524230	0.678831	-1.000000	-1.000000	-1.000000	-1.000000	-1.000000	-1.000000	-1.000000	139.103448	0.000000	-1.000000	-1.000000	448031.000000	1772918925.524355
-4590.540000	23839.335000	-18935.595000	-15046.515000	0.000000	0.000000	0.000000	0.000000	-106.606396	21.019801	-105.173645	-88.689534	-0.000000	0.000000	-0.000000	-0.000000	5.264700	13.291460	-14.008680	0.092956	0.524230	0.678831	-1.000000	-1.000000	-1.000000	-1.000000	-1.000000	-1.000000	-1.000000	139.103448	0.000000	-1.000000	-1.000000	448032.000000	1772918925.524379
-4580.415000	23849.145000	-18838.845000	-14968.845000	0.000000	0.000000	0.000000	0.000000	-110.755728	18.423874	-130.650540	-92.774117	-0.000000	0.000000	-0.000000	-0.000000	5.264700	13.291460	-14.008680	0.092956	0.524230	0.678831	-1.000000	-1.000000	-1.000000	-1.000000	-1.000000	-1.000000	-1.000000	139.103448	0.000000	-1.000000	-1.000000	448033.000000	1772918925.528427
-4556.745000	23913.360000	-18765.720000	-14928.795000	0.000000	0.000000	0.000000	0.000000	-66.059194	1.789234	-83.247771	-43.239932	-0.000000	0.000000	-0.000000	-0.000000	5.264700	13.291460	-14.008680	0.092956	0.524230	0.678831	-1.000000	-1.000000	-1.000000	-1.000000	-1.000000	-1.000000	-1.000000	139.103448	0.000000	-1.000000	-1.000000	448034.000000	1772918925.528430
-4503.240000	24009.930000	-18711.540000	-14872.455000	0.000000	0.000000	0.000000	0.000000	3.497782	-14.743667	11.546642	36.626049	-0.000000	0.000000	-0.000000	-0.000000	5.264700	13.291460	-14.008680	0.092956	0.524230	0.678831	-1.000000	-1.000000	-1.000000	-1.000000	-1.000000	-1.000000	-1.000000	139.103448	0.000000	-1.000000	-1.000000	448035.000000	1772918925.532362
-4468.005000	24042.285000	-18693.630000	-14773.995000	0.000000	0.000000	0.000000	0.000000	68.153622	-17.723205	101.418827	107.297769	-0.000000	0.000000	-0.000000	-0.000000	5.264700	13.291460	-14.008680	0.092956	0.524230	0.678831	-1.000000	-1.000000	-1.000000	-1.000000	-1.000000	-1.000000	-1.000000	139.103448	0.000000	-1.000000	-1.000000	448036.000000	1772918925.532364
-4437.900000	24008.310000	-18709.335000	-14750.055000	0.000000	0.000000	0.000000	0.000000	103.162103	-9.930047	139.357253	136.720845	-0.000000	0.000000	-0.000000	-0.000000	22.767920	29.146600	-23.134160	0.089294	0.566954	0.681334	-1.000000	-1.000000	-1.000000	-1.000000	-1.000000	-1.000000	-1.000000	139.103448	0.000000	-1.000000	-1.000000	448037.000000	1772918925.536432
-4471.740000	23968.485000	-18696.645000	-14785.605000	0.000000	0.000000	0.000000	0.000000	96.945231	-6.565547	111.370182	112.899522	-0.000000	0.000000	-0.000000	-0.000000	22.767920	29.146600	-23.134160	0.089294	0.566954	0.681334	-1.000000	-1.000000	-1.000000	-1.000000	-1.000000	-1.000000	-1.000000	139.103448	0.000000	-1.000000	-1.000000	448038.000000	1772918925.536435
-4536.540000	23985.090000	-18754.650000	-14872.275000	0.000000	0.000000	0.000000	0.000000	53.293711	-15.457430	38.970996	43.648978	-0.000000	0.000000	-0.000000	-0.000000	22.767920	29.146600	-23.134160	0.089294	0.566954	0.681334	-1.000000	-1.000000	-1.000000	-1.000000	-1.000000	-1.000000	-1.000000	139.103448	0.000000	-1.000000	-1.000000	448039.000000	1772918925.540106
-4720.005000	23952.060000	-18915.750000	-15023.925000	0.000000	0.000000	0.000000	0.000000	-12.518320	-28.061103	-42.803239	-46.747988	-0.000000	0.000000	-0.000000	-0.000000	22.767920	29.146600	-23.134160	0.089294	0.566954	0.681334	-1.000000	-1.000000	-1.000000	-1.000000	-1.000000	-1.000000	-1.000000	139.103448	0.000000	-1.000000	-1.000000	448040.000000	1772918925.540110
-4734.405000	23928.930000	-18738.000000	-14919.930000	0.000000	0.000000	0.000000	0.000000	-77.238734	-31.879381	-101.648990	-121.681904	-0.000000	0.000000	-0.000000	-0.000000	22.767920	29.146600	-23.134160	0.089294	0.566954	0.681334	-1.000000	-1.000000	-1.000000	-1.000000	-1.000000	-1.000000	-1.000000	139.103448	0.000000	-1.000000	-1.000000	448041.000000	1772918925.544434
-4575.555000	23938.830000	-18638.955000	-14872.680000	0.000000	0.000000	0.000000	0.000000	-108.349658	-22.387957	-108.343142	-142.251818	-0.000000	0.000000	-0.000000	-0.000000	22.767920	29.146600	-23.134160	0.089294	0.566954	0.681334	-1.000000	-1.000000	-1.000000	-1.000000	-1.000000	-1.000000	-1.000000	139.103448	0.000000	-1.000000	-1.000000	448042.000000	1772918925.544437
-4447.215000	23939.910000	-18709.830000	-14856.435000	0.000000	0.000000	0.000000	0.000000	-78.301132	-2.301722	-58.388584	-95.343655	-0.000000	0.000000	-0.000000	-0.000000	22.767920	29.146600	-23.134160	0.089294	0.566954	0.681334	-1.000000	-1.000000	-1.000000	-1.000000	-1.000000	-1.000000	-1.000000	139.103448	0.000000	-1.000000	-1.000000	448043.000000	1772918925.548450
-4415.715000	23808.465000	-18702.720000	-14742.765000	0.000000	0.000000	0.000000	0.000000	2.827166	18.729791	10.291110	-9.194308	-0.000000	0.000000	-0.000000	-0.000000	22.767920	29.146600	-23.134160	0.089294	0.566954	0.681334	-1.000000	-1.000000	-1.000000	-1.000000	-1.000000	-1.000000	-1.000000	139.103448	0.000000	-1.000000	-1.000000	448044.000000	1772918925.548453
-4318.965000	23798.700000	-18517.905000	-14675.175000	0.000000	0.000000	0.000000	0.000000	85.234695	27.355184	55.792152	71.557205	-0.000000	0.000000	-0.000000	-0.000000	22.767920	29.146600	-23.134160	0.089294	0.566954	0.681334	-1.000000	-1.000000	-1.000000	-1.000000	-1.000000	-1.000000	-1.000000	139.103448	0.000000	-1.000000	-1.000000	448045.000000	1772918925.557645
-4342.140000	23857.650000	-18484.515000	-14703.840000	0.000000	0.000000	0.000000	0.000000	119.874762	22.563546	69.938215	112.621127	-0.000000	0.000000	-0.000000	-0.000000	22.767920	29.146600	-23.134160	0.089294	0.566954	0.681334	-1.000000	-1.000000	-1.000000	-1.000000	-1.000000	-1.000000	-1.000000	139.103448	0.000000	-1.000000	-1.000000	448046.000000	1772918925.557649
-4497.300000	23876.865000	-18665.865000	-14837.130000	0.000000	0.000000	0.000000	0.000000	88.002131	18.602384	57.537972	96.602998	-0.000000	0.000000	-0.000000	-0.000000	18.861360	36.562960	-8.866060	0.074890	0.617308	0.697447	-1.000000	-1.000000	-1.000000	-1.000000	-1.000000	-1.000000	-1.000000	139.103448	0.000000	-1.000000	-1.000000	448047.000000	1772918925.557653
-4622.985000	23926.185000	-18918.540000	-15020.055000	0.000000	0.000000	0.000000	0.000000	2.904560	24.589795	12.211933	27.675822	-0.000000	0.000000	-0.000000	-0.000000	18.861360	36.562960	-8.866060	0.074890	0.617308	0.697447	-1.000000	-1.000000	-1.000000	-1.000000	-1.000000	-1.000000	-1.000000	139.103448	0.000000	-1.000000	-1.000000	448048.000000	1772918925.557656
-4618.620000	23994.630000	-18985.635000	-15068.205000	0.000000	0.000000	0.000000	0.000000	-92.969911	35.237473	-60.755760	-62.759631	-0.000000	0.000000	-0.000000	-0.000000	18.861360	36.562960	-8.866060	0.074890	0.617308	0.697447	-1.000000	-1.000000	-1.000000	-1.000000	-1.000000	-1.000000	-1.000000	139.103448	0.000000	-1.000000	-1.000000	448049.000000	1772918925.560448
-4661.730000	23988.780000	-18933.345000	-15031.080000	0.000000	0.000000	0.000000	0.000000	-145.688606	39.444892	-119.820120	-123.798260	-0.000000	0.000000	-0.000000	-0.000000	18.861360	36.562960	-8.866060	0.074890	0.617308	0.697447	-1.000000	-1.000000	-1.000000	-1.000000	-1.000000	-1.000000	-1.000000	139.103448	0.000000	-1.000000	-1.000000	448050.000000	1772918925.560451
-4569.390000	23966.595000	-18770.355000	-14907.690000	0.000000	0.000000	0.000000	0.000000	-125.441245	27.524835	-113.085174	-114.371639	-0.000000	0.000000	-0.000000	-0.000000	18.861360	36.562960	-8.866060	0.074890	0.617308	0.697447	-1.000000	-1.000000	-1.000000	-1.000000	-1.000000	-1.000000	-1.000000	139.103448	0.000000	-1.000000	-1.000000	448051.000000	1772918925.564575
-4406.715000	23976.135000	-18621.855000	-14780.880000	0.000000	0.000000	0.000000	0.000000	-42.016248	-1.614420	-27.820746	-34.005866	-0.000000	0.000000	-0.000000	-0.000000	18.861360	36.562960	-8.866060	0.074890	0.617308	0.697447	-1.000000	-1.000000	-1.000000	-1.000000	-1.000000	-1.000000	-1.000000	139.103448	0.000000	-1.000000	-1.000000	448052.000000	1772918925.564578
-4489.380000	24056.775000	-18674.190000	-14767.065000	0.000000	0.000000	0.000000	0.000000	63.069285	-34.197119	89.889344	72.831483	-0.000000	0.000000	-0.000000	-0.000000	18.861360	36.562960	-8.866060	0.074890	0.617308	0.697447	-1.000000	-1.000000	-1.000000	-1.000000	-1.000000	-1.000000	-1.000000	139.103448	0.000000	-1.000000	-1.000000	448053.000000	1772918925.568461
-4558.770000	24248.115000	-18736.200000	-14812.155000	0.000000	0.000000	0.000000	0.000000	131.694119	-47.358459	163.876185	142.716750	-0.000000	0.000000	-0.000000	-0.000000	18.861360	36.562960	-8.866060	0.074890	0.617308	0.697447	-1.000000	-1.000000	-1.000000	-1.000000	-1.000000	-1.000000	-1.000000	139.103448	0.000000	-1.000000	-1.000000	448054.000000	1772918925.568465
-4575.690000	24354.540000	-18830.430000	-14918.490000	0.000000	0.000000	0.000000	0.000000	126.031066	-27.780420	145.958895	133.885574	-0.000000	0.000000	-0.000000	-0.000000	18.861360	36.562960	-8.866060	0.074890	0.617308	0.697447	-1.000000	-1.000000	-1.000000	-1.000000	-1.000000	-1.000000	-1.000000	139.103448	0.000000	-1.000000	-1.000000	448055.000000	1772918925.572510
-4627.755000	24450.030000	-18876.735000	-14966.190000	0.000000	0.000000	0.000000	0.000000	59.275153	11.971865	51.297868	53.462642	-0.000000	0.000000	-0.000000	-0.000000	18.861360	36.562960	-8.866060	0.074890	0.617308	0.697447	-1.000000	-1.000000	-1.000000	-1.000000	-1.000000	-1.000000	-1.000000	139.103448	0.000000	-1.000000	-1.000000	448056.000000	1772918925.572512
-4747.995000	24544.080000	-18958.005000	-15061.905000	0.000000	0.000000	0.000000	0.000000	-23.738279	42.187588	-60.531099	-50.311593	-0.000000	0.000000	-0.000000	-0.000000	48.969340	35.662620	1.068200	0.060364	0.673826	0.727964	-1.000000	-1.000000	-1.000000	-1.000000	-1.000000	-1.000000	-1.000000	139.103448	0.000000	-1.000000	-1.000000	448057.000000	1772918925.576576
-4706.370000	24606.630000	-18899.460000	-15028.020000	0.000000	0.000000	0.000000	0.000000	-82.351452	42.223579	-129.702774	-121.622739	-0.000000	0.000000	-0.000000	-0.000000	48.969340	35.662620	1.068200	0.060364	0.673826	0.727964	-1.000000	-1.000000	-1.000000	-1.000000	-1.000000	-1.000000	-1.000000	139.103448	0.000000	-1.000000	-1.000000	448058.000000	1772918925.576579
-4521.780000	24677.550000	-18739.755000	-14877.495000	0.000000	0.000000	0.000000	0.000000	-90.115885	13.406120	-124.453596	-125.224104	-0.000000	0.000000	-0.000000	-0.000000	48.969340	35.662620	1.068200	0.060364	0.673826	0.727964	-1.000000	-1.000000	-1.000000	-1.000000	-1.000000	-1.000000	-1.000000	139.103448	0.000000	-1.000000	-1.000000	448059.000000	1772918925.580579
-4520.115000	24712.515000	-18763.425000	-14901.300000	0.000000	0.000000	0.000000	0.000000	-42.418139	-27.181837	-53.156338	-62.166382	-0.000000	0.000000	-0.000000	-0.000000	48.969340	35.662620	1.068200	0.060364	0.673826	0.727964	-1.000000	-1.000000	-1.000000	-1.000000	-1.000000	-1.000000	-1.000000	139.103448	0.000000	-1.000000	-1.000000	448060.000000	1772918925.580583
-4559.490000	24708.510000	-18755.865000	-14852.925000	0.000000	0.000000	0.000000	0.000000	28.348474	-60.602957	36.431997	26.808530	-0.000000	0.000000	-0.000000	-0.000000	48.969340	35.662620	1.068200	0.060364	0.673826	0.727964	-1.000000	-1.000000	-1.000000	-1.000000	-1.000000	-1.000000	-1.000000	139.103448	0.000000	-1.000000	-1.000000	448061.000000	1772918925.585827
-4590.180000	24763.545000	-18772.875000	-14850.405000	0.000000	0.000000	0.000000	0.000000	71.520463	-75.207846	89.608073	89.410945	-0.000000	0.000000	-0.000000	-0.000000	48.969340	35.662620	1.068200	0.060364	0.673826	0.727964	-1.000000	-1.000000	-1.000000	-1.000000	-1.000000	-1.000000	-1.000000	139.103448	0.000000	-1.000000	-1.000000	448062.000000	1772918925.585830
-4600.845000	24841.170000	-18803.655000	-14932.305000	0.000000	0.000000	0.000000	0.000000	62.631001	-65.663628	84.175031	97.240938	-0.000000	0.000000	-0.000000	-0.000000	48.969340	35.662620	1.068200	0.060364	0.673826	0.727964	-1.000000	-1.000000	-1.000000	-1.000000	-1.000000	-1.000000	-1.000000	139.103448	0.000000	-1.000000	-1.000000	448063.000000	1772918925.588700
-4545.855000	24842.565000	-18822.015000	-14965.380000	0.000000	0.000000	0.000000	0.000000	18.787576	-34.352742	35.811031	54.035499	-0.000000	0.000000	-0.000000	-0.000000	48.969340	35.662620	1.068200	0.060364	0.673826	0.727964	-1.000000	-1.000000	-1.000000	-1.000000	-1.000000	-1.000000	-1.000000	139.103448	0.000000	-1.000000	-1.000000	448064.000000	1772918925.588702
-4590.405000	24767.595000	-18873.405000	-14964.840000	0.000000	0.000000	0.000000	0.000000	-25.029302	2.694334	-22.251980	-11.122526	-0.000000	0.000000	-0.000000	-0.000000	48.969340	35.662620	1.068200	0.060364	0.673826	0.727964	-1.000000	-1.000000	-1.000000	-1.000000	-1.000000	-1.000000	-1.000000	139.103448	0.000000	-1.000000	-1.000000	448065.000000	1772918925.597945
-4531.320000	24740.910000	-18812.880000	-14889.240000	0.000000	0.000000	0.000000	0.000000	-45.813474	24.234570	-59.939220	-58.961314	-0.000000	0.000000	-0.000000	-0.000000	48.969340	35.662620	1.068200	0.060364	0.673826	0.727964	-1.000000	-1.000000	-1.000000	-1.000000	-1.000000	-1.000000	-1.000000	139.103448	0.000000	-1.000000	-1.000000	448066.000000	1772918925.597948
-4570.920000	24663.330000	-18824.220000	-14888.205000	0.000000	0.000000	0.000000	0.000000	-41.121202	22.760071	-61.963515	-64.772619	-0.000000	0.000000	-0.000000	-0.000000	46.314100	21.852320	-8.225140	0.037109	0.681029	0.752989	-1.000000	-1.000000	-1.000000	-1.000000	-1.000000	-1.000000	-1.000000	139.103448	0.000000	-1.000000	-1.000000	448067.000000	1772918925.597951
-4630.140000	24646.770000	-18757.890000	-14881.185000	0.000000	0.000000	0.000000	0.000000	-23.276408	8.528940	-32.595936	-34.575815	-0.000000	0.000000	-0.000000	-0.000000	46.314100	21.852320	-8.225140	0.037109	0.681029	0.752989	-1.000000	-1.000000	-1.000000	-1.000000	-1.000000	-1.000000	-1.000000	139.103448	0.000000	-1.000000	-1.000000	448068.000000	1772918925.597954
-4611.015000	24659.910000	-18756.405000	-14971.005000	0.000000	0.000000	0.000000	0.000000	-7.739488	-1.153269	8.910786	3.029802	-0.000000	0.000000	-0.000000	-0.000000	46.314100	21.852320	-8.225140	0.037109	0.681029	0.752989	-1.000000	-1.000000	-1.000000	-1.000000	-1.000000	-1.000000	-1.000000	139.103448	0.000000	-1.000000	-1.000000	448069.000000	1772918925.600940
-4574.115000	24733.530000	-18791.955000	-14949.810000	0.000000	0.000000	0.000000	0.000000	1.661044	6.707878	39.524676	22.063318	-0.000000	0.000000	-0.000000	-0.000000	46.314100	21.852320	-8.225140	0.037109	0.681029	0.752989	-1.000000	-1.000000	-1.000000	-1.000000	-1.000000	-1.000000	-1.000000	139.103448	0.000000	-1.000000	-1.000000	448070.000000	1772918925.600943
-4530.690000	24831.810000	-18754.155000	-14868.180000	0.000000	0.000000	0.000000	0.000000	11.474489	33.047761	44.618901	20.337406	-0.000000	0.000000	-0.000000	-0.000000	46.314100	21.852320	-8.225140	0.037109	0.681029	0.752989	-1.000000	-1.000000	-1.000000	-1.000000	-1.000000	-1.000000	-1.000000	139.103448	0.000000	-1.000000	-1.000000	448071.000000	1772918925.604641
-4498.605000	24872.445000	-18720.405000	-14907.510000	0.000000	0.000000	0.000000	0.000000	24.421188	64.556617	28.030455	13.481167	-0.000000	0.000000	-0.000000	-0.000000	46.314100	21.852320	-8.225140	0.037109	0.681029	0.752989	-1.000000	-1.000000	-1.000000	-1.000000	-1.000000	-1.000000	-1.000000	139.103448	0.000000	-1.000000	-1.000000	448072.000000	1772918925.604644
-4678.335000	24898.095000	-18921.105000	-15090.525000	0.000000	0.000000	0.000000	0.000000	30.883234	79.558351	2.145088	6.738747	-0.000000	0.000000	-0.000000	-0.000000	46.314100	21.852320	-8.225140	0.037109	0.681029	0.752989	-1.000000	-1.000000	-1.000000	-1.000000	-1.000000	-1.000000	-1.000000	139.103448	0.000000	-1.000000	-1.000000	448073.000000	1772918925.608520
-4751.055000	24875.460000	-18977.760000	-15105.105000	0.000000	0.000000	0.000000	0.000000	15.550472	62.204653	-28.340208	-8.713667	-0.000000	0.000000	-0.000000	-0.000000	46.314100	21.852320	-8.225140	0.037109	0.681029	0.752989	-1.000000	-1.000000	-1.000000	-1.000000	-1.000000	-1.000000	-1.000000	139.103448	0.000000	-1.000000	-1.000000	448074.000000	1772918925.608523
-4732.380000	24876.585000	-18955.395000	-15121.665000	0.000000	0.000000	0.000000	0.000000	-18.881029	15.131865	-55.117588	-29.224591	-0.000000	0.000000	-0.000000	-0.000000	46.314100	21.852320	-8.225140	0.037109	0.681029	0.752989	-1.000000	-1.000000	-1.000000	-1.000000	-1.000000	-1.000000	-1.000000	139.103448	0.000000	-1.000000	-1.000000	448075.000000	1772918925.612515
-4637.430000	24882.660000	-18838.350000	-15004.215000	0.000000	0.000000	0.000000	0.000000	-43.323642	-40.623360	-56.092807	-33.449222	-0.000000	0.000000	-0.000000	-0.000000	46.314100	21.852320	-8.225140	0.037109	0.681029	0.752989	-1.000000	-1.000000	-1.000000	-1.000000	-1.000000	-1.000000	-1.000000	139.103448	0.000000	-1.000000	-1.000000	448076.000000	1772918925.612518
-4540.230000	24784.335000	-18702.990000	-14887.575000	0.000000	0.000000	0.000000	0.000000	-30.550683	-80.679608	-16.549765	-5.899585	-0.000000	0.000000	-0.000000	-0.000000	17.945760	11.185580	-4.562740	0.033630	0.690916	0.775694	-1.000000	-1.000000	-1.000000	-1.000000	-1.000000	-1.000000	-1.000000	139.103448	0.000000	-1.000000	-1.000000	448077.000000	1772918925.616571
-4462.605000	24735.780000	-18602.955000	-14777.190000	0.000000	0.000000	0.000000	0.000000	15.940377	-93.935742	49.206766	44.824937	-0.000000	0.000000	-0.000000	-0.000000	17.945760	11.185580	-4.562740	0.033630	0.690916	0.775694	-1.000000	-1.000000	-1.000000	-1.000000	-1.000000	-1.000000	-1.000000	139.103448	0.000000	-1.000000	-1.000000	448078.000000	1772918925.616573
-4470.750000	24591.195000	-18667.395000	-14809.095000	0.000000	0.000000	0.000000	0.000000	63.841439	-83.557775	101.331880	87.229572	-0.000000	0.000000	-0.000000	-0.000000	17.945760	11.185580	-4.562740	0.033630	0.690916	0.775694	-1.000000	-1.000000	-1.000000	-1.000000	-1.000000	-1.000000	-1.000000	139.103448	0.000000	-1.000000	-1.000000	448079.000000	1772918925.620316
-4490.955000	24445.980000	-18720.765000	-14864.310000	0.000000	0.000000	0.000000	0.000000	77.467531	-59.729256	100.290190	86.784457	-0.000000	0.000000	-0.000000	-0.000000	17.945760	11.185580	-4.562740	0.033630	0.690916	0.775694	-1.000000	-1.000000	-1.000000	-1.000000	-1.000000	-1.000000	-1.000000	139.103448	0.000000	-1.000000	-1.000000	448080.000000	1772918925.620319
-4563.360000	24386.130000	-18803.655000	-14957.505000	0.000000	0.000000	0.000000	0.000000	43.921595	-31.375519	38.900828	33.173409	-0.000000	0.000000	-0.000000	-0.000000	17.945760	11.185580	-4.562740	0.033630	0.690916	0.775694	-1.000000	-1.000000	-1.000000	-1.000000	-1.000000	-1.000000	-1.000000	139.103448	0.000000	-1.000000	-1.000000	448081.000000	1772918925.624782
-4594.860000	24286.905000	-18850.770000	-15021.315000	0.000000	0.000000	0.000000	0.000000	-19.323171	0.047358	-49.633498	-48.813452	-0.000000	0.000000	-0.000000	-0.000000	17.945760	11.185580	-4.562740	0.033630	0.690916	0.775694	-1.000000	-1.000000	-1.000000	-1.000000	-1.000000	-1.000000	-1.000000	139.103448	0.000000	-1.000000	-1.000000	448082.000000	1772918925.624785
-4534.290000	24271.335000	-18776.430000	-14941.800000	0.000000	0.000000	0.000000	0.000000	-75.779589	34.986100	-114.410330	-113.267394	-0.000000	0.000000	-0.000000	-0.000000	17.945760	11.185580	-4.562740	0.033630	0.690916	0.775694	-1.000000	-1.000000	-1.000000	-1.000000	-1.000000	-1.000000	-1.000000	139.103448	0.000000	-1.000000	-1.000000	448083.000000	1772918925.628737
-4636.620000	24400.080000	-18840.690000	-14976.000000	0.000000	0.000000	0.000000	0.000000	-94.447301	71.613764	-120.454150	-122.486407	-0.000000	0.000000	-0.000000	-0.000000	17.945760	11.185580	-4.562740	0.033630	0.690916	0.775694	-1.000000	-1.000000	-1.000000	-1.000000	-1.000000	-1.000000	-1.000000	139.103448	0.000000	-1.000000	-1.000000	448084.000000	1772918925.628740
-4567.140000	24382.260000	-18749.250000	-14886.000000	0.000000	0.000000	0.000000	0.000000	-71.294406	105.207873	-70.581017	-73.372385	-0.000000	0.000000	-0.000000	-0.000000	17.945760	11.185580	-4.562740	0.033630	0.690916	0.775694	-1.000000	-1.000000	-1.000000	-1.000000	-1.000000	-1.000000	-1.000000	139.103448	0.000000	-1.000000	-1.000000	448085.000000	1772918925.636497
-4410.540000	24202.170000	-18592.740000	-14733.720000	0.000000	0.000000	0.000000	0.000000	-20.606416	117.615620	6.655174	6.847290	-0.000000	0.000000	-0.000000	-0.000000	17.945760	11.185580	-4.562740	0.033630	0.690916	0.775694	-1.000000	-1.000000	-1.000000	-1.000000	-1.000000	-1.000000	-1.000000	139.103448	0.000000	-1.000000	-1.000000	448086.000000	1772918925.636500
-4457.745000	24194.520000	-18642.330000	-14761.215000	0.000000	0.000000	0.000000	0.000000	38.987150	86.308501	78.234142	81.727267	-0.000000	0.000000	-0.000000	-0.000000	7.126420	3.738700	-7.889420	0.027283	0.717039	0.787718	-1.000000	-1.000000	-1.000000	-1.000000	-1.000000	-1.000000	-1.000000	139.103448	0.000000	-1.000000	-1.000000	448087.000000	1772918925.636503
-4496.175000	24267.825000	-18714.105000	-14851.890000	0.000000	0.000000	0.000000	0.000000	79.498186	20.104530	110.248647	114.627020	-0.000000	0.000000	-0.000000	-0.000000	7.126420	3.738700	-7.889420	0.027283	0.717039	0.787718	-1.000000	-1.000000	-1.000000	-1.000000	-1.000000	-1.000000	-1.000000	139.103448	0.000000	-1.000000	-1.000000	448088.000000	1772918925.636505
-4544.640000	24303.510000	-18749.655000	-14915.790000	0.000000	0.000000	0.000000	0.000000	76.110183	-39.865426	83.654001	85.244847	-0.000000	0.000000	-0.000000	-0.000000	7.126420	3.738700	-7.889420	0.027283	0.717039	0.787718	-1.000000	-1.000000	-1.000000	-1.000000	-1.000000	-1.000000	-1.000000	139.103448	0.000000	-1.000000	-1.000000	448089.000000	1772918925.640792
-4565.115000	24256.350000	-18772.920000	-14965.380000	0.000000	0.000000	0.000000	0.000000	32.521081	-63.988633	15.963542	10.807608	-0.000000	0.000000	-0.000000	-0.000000	7.126420	3.738700	-7.889420	0.027283	0.717039	0.787718	-1.000000	-1.000000	-1.000000	-1.000000	-1.000000	-1.000000	-1.000000	139.103448	0.000000	-1.000000	-1.000000	448090.000000	1772918925.640794
-4574.970000	24221.295000	-18749.745000	-14966.415000	0.000000	0.000000	0.000000	0.000000	-21.662323	-57.913594	-50.102707	-63.181486	-0.000000	0.000000	-0.000000	-0.000000	7.126420	3.738700	-7.889420	0.027283	0.717039	0.787718	-1.000000	-1.000000	-1.000000	-1.000000	-1.000000	-1.000000	-1.000000	139.103448	0.000000	-1.000000	-1.000000	448091.000000	1772918925.646139
-4593.600000	24218.325000	-18795.915000	-14980.275000	0.000000	0.000000	0.000000	0.000000	-55.571484	-42.560485	-79.903327	-96.130581	-0.000000	0.000000	-0.000000	-0.000000	7.126420	3.738700	-7.889420	0.027283	0.717039	0.787718	-1.000000	-1.000000	-1.000000	-1.000000	-1.000000	-1.000000	-1.000000	139.103448	0.000000	-1.000000	-1.000000	448092.000000	1772918925.646141
-4600.620000	24143.310000	-18771.255000	-14917.995000	0.000000	0.000000	0.000000	0.000000	-56.487589	-30.450995	-67.170552	-75.997693	-0.000000	0.000000	-0.000000	-0.000000	7.126420	3.738700	-7.889420	0.027283	0.717039	0.787718	-1.000000	-1.000000	-1.000000	-1.000000	-1.000000	-1.000000	-1.000000	139.103448	0.000000	-1.000000	-1.000000	448093.000000	1772918925.648806
-4471.605000	24063.660000	-18552.195000	-14716.080000	0.000000	0.000000	0.000000	0.000000	-29.245780	-24.651727	-24.209693	-16.206035	-0.000000	0.000000	-0.000000	-0.000000	7.126420	3.738700	-7.889420	0.027283	0.717039	0.787718	-1.000000	-1.000000	-1.000000	-1.000000	-1.000000	-1.000000	-1.000000	139.103448	0.000000	-1.000000	-1.000000	448094.000000	1772918925.648808
-4387.590000	24020.595000	-18590.535000	-14675.850000	0.000000	0.000000	0.000000	0.000000	14.496251	-23.358379	31.872846	56.789634	-0.000000	0.000000	-0.000000	-0.000000	7.126420	3.738700	-7.889420	0.027283	0.717039	0.787718	-1.000000	-1.000000	-1.000000	-1.000000	-1.000000	-1.000000	-1.000000	139.103448	0.000000	-1.000000	-1.000000	448095.000000	1772918925.652727
-4362.705000	23975.910000	-18592.920000	-14719.725000	0.000000	0.000000	0.000000	0.000000	56.853327	-19.963759	73.683719	106.199665	-0.000000	0.000000	-0.000000	-0.000000	7.126420	3.738700	-7.889420	0.027283	0.717039	0.787718	-1.000000	-1.000000	-1.000000	-1.000000	-1.000000	-1.000000	-1.000000	139.103448	0.000000	-1.000000	-1.000000	448096.000000	1772918925.652729
-4416.345000	23949.495000	-18657.720000	-14800.365000	0.000000	0.000000	0.000000	0.000000	73.519164	-8.166774	73.303306	98.799581	-0.000000	0.000000	-0.000000	-0.000000	18.800320	-3.662400	-0.915600	0.008972	0.717161	0.780638	-1.000000	-1.000000	-1.000000	-1.000000	-1.000000	-1.000000	-1.000000	139.103448	0.000000	-1.000000	-1.000000	448097.000000	1772918925.656800
-4593.330000	23976.585000	-18878.310000	-14987.520000	0.000000	0.000000	0.000000	0.000000	46.905412	12.410651	25.738574	31.172464	-0.000000	0.000000	-0.000000	-0.000000	18.800320	-3.662400	-0.915600	0.008972	0.717161	0.780638	-1.000000	-1.000000	-1.000000	-1.000000	-1.000000	-1.000000	-1.000000	139.103448	0.000000	-1.000000	-1.000000	448098.000000	1772918925.656803
-4546.935000	23988.645000	-18830.970000	-14949.405000	0.000000	0.000000	0.000000	0.000000	-15.221719	36.690121	-45.642326	-62.057692	-0.000000	0.000000	-0.000000	-0.000000	18.800320	-3.662400	-0.915600	0.008972	0.717161	0.780638	-1.000000	-1.000000	-1.000000	-1.000000	-1.000000	-1.000000	-1.000000	139.103448	0.000000	-1.000000	-1.000000	448099.000000	1772918925.660686
-4540.905000	23985.405000	-18779.760000	-14914.890000	0.000000	0.000000	0.000000	0.000000	-74.634067	55.318236	-95.984762	-124.781578	-0.000000	0.000000	-0.000000	-0.000000	18.800320	-3.662400	-0.915600	0.008972	0.717161	0.780638	-1.000000	-1.000000	-1.000000	-1.000000	-1.000000	-1.000000	-1.000000	139.103448	0.000000	-1.000000	-1.000000	448100.000000	1772918925.660688
-4529.385000	24066.810000	-18743.670000	-14868.270000	0.000000	0.000000	0.000000	0.000000	-91.289569	59.470173	-88.028730	-117.252543	-0.000000	0.000000	-0.000000	-0.000000	18.800320	-3.662400	-0.915600	0.008972	0.717161	0.780638	-1.000000	-1.000000	-1.000000	-1.000000	-1.000000	-1.000000	-1.000000	139.103448	0.000000	-1.000000	-1.000000	448101.000000	1772918925.664704
-4441.815000	24111.495000	-18632.160000	-14776.650000	0.000000	0.000000	0.000000	0.000000	-57.060810	48.717848	-25.388165	-46.212650	-0.000000	0.000000	-0.000000	-0.000000	18.800320	-3.662400	-0.915600	0.008972	0.717161	0.780638	-1.000000	-1.000000	-1.000000	-1.000000	-1.000000	-1.000000	-1.000000	139.103448	0.000000	-1.000000	-1.000000	448102.000000	1772918925.664707
-4349.205000	24148.620000	-18558.090000	-14686.065000	0.000000	0.000000	0.000000	0.000000	6.509758	28.706178	54.495838	46.230111	-0.000000	0.000000	-0.000000	-0.000000	18.800320	-3.662400	-0.915600	0.008972	0.717161	0.780638	-1.000000	-1.000000	-1.000000	-1.000000	-1.000000	-1.000000	-1.000000	139.103448	0.000000	-1.000000	-1.000000	448103.000000	1772918925.668775
-4383.990000	24151.005000	-18618.345000	-14716.395000	0.000000	0.000000	0.000000	0.000000	65.770853	3.526318	107.514077	112.288314	-0.000000	0.000000	-0.000000	-0.000000	18.800320	-3.662400	-0.915600	0.008972	0.717161	0.780638	-1.000000	-1.000000	-1.000000	-1.000000	-1.000000	-1.000000	-1.000000	139.103448	0.000000	-1.000000	-1.000000	448104.000000	1772918925.668777
-4480.290000	24101.955000	-18713.025000	-14794.965000	0.000000	0.000000	0.000000	0.000000	87.295159	-24.959835	102.713113	119.078104	-0.000000	0.000000	-0.000000	-0.000000	18.800320	-3.662400	-0.915600	0.008972	0.717161	0.780638	-1.000000	-1.000000	-1.000000	-1.000000	-1.000000	-1.000000	-1.000000	139.103448	0.000000	-1.000000	-1.000000	448105.000000	1772918925.672824
-4651.290000	24091.605000	-18917.550000	-14985.000000	0.000000	0.000000	0.000000	0.000000	54.666986	-52.947464	37.892519	61.673735	-0.000000	0.000000	-0.000000	-0.000000	18.800320	-3.662400	-0.915600	0.008972	0.717161	0.780638	-1.000000	-1.000000	-1.000000	-1.000000	-1.000000	-1.000000	-1.000000	139.103448	0.000000	-1.000000	-1.000000	448106.000000	1772918925.672827
-4729.950000	24087.060000	-19006.335000	-15082.020000	0.000000	0.000000	0.000000	0.000000	-16.600990	-71.180436	-55.996214	-32.660107	-0.000000	0.000000	-0.000000	-0.000000	33.602520	-7.492660	7.187460	0.024231	0.706541	0.762876	-1.000000	-1.000000	-1.000000	-1.000000	-1.000000	-1.000000	-1.000000	139.103448	0.000000	-1.000000	-1.000000	448107.000000	1772918925.676868
-4605.840000	24051.150000	-18885.105000	-14973.570000	0.000000	0.000000	0.000000	0.000000	-80.840815	-69.911753	-125.123851	-111.603410	-0.000000	0.000000	-0.000000	-0.000000	33.602520	-7.492660	7.187460	0.024231	0.706541	0.762876	-1.000000	-1.000000	-1.000000	-1.000000	-1.000000	-1.000000	-1.000000	139.103448	0.000000	-1.000000	-1.000000	448108.000000	1772918925.676871
-4532.130000	23993.505000	-18819.765000	-14970.825000	0.000000	0.000000	0.000000	0.000000	-89.715855	-49.405260	-121.586460	-125.107303	-0.000000	0.000000	-0.000000	-0.000000	33.602520	-7.492660	7.187460	0.024231	0.706541	0.762876	-1.000000	-1.000000	-1.000000	-1.000000	-1.000000	-1.000000	-1.000000	139.103448	0.000000	-1.000000	-1.000000	448109.000000	1772918925.680746
-4405.635000	23948.055000	-18646.650000	-14795.865000	0.000000	0.000000	0.000000	0.000000	-32.582884	-20.311523	-41.386914	-63.403524	-0.000000	0.000000	-0.000000	-0.000000	33.602520	-7.492660	7.187460	0.024231	0.706541	0.762876	-1.000000	-1.000000	-1.000000	-1.000000	-1.000000	-1.000000	-1.000000	139.103448	0.000000	-1.000000	-1.000000	448110.000000	1772918925.680748
-4280.940000	23992.110000	-18497.520000	-14641.875000	0.000000	0.000000	0.000000	0.000000	54.757883	7.721507	71.214623	38.643863	-0.000000	0.000000	-0.000000	-0.000000	33.602520	-7.492660	7.187460	0.024231	0.706541	0.762876	-1.000000	-1.000000	-1.000000	-1.000000	-1.000000	-1.000000	-1.000000	139.103448	0.000000	-1.000000	-1.000000	448111.000000	1772918925.684796
-4358.430000	24003.180000	-18574.065000	-14707.845000	0.000000	0.000000	0.000000	0.000000	117.954993	32.642815	153.124927	125.780872	-0.000000	0.000000	-0.000000	-0.000000	33.602520	-7.492660	7.187460	0.024231	0.706541	0.762876	-1.000000	-1.000000	-1.000000	-1.000000	-1.000000	-1.000000	-1.000000	139.103448	0.000000	-1.000000	-1.000000	448112.000000	1772918925.684799
-4470.210000	23997.060000	-18704.205000	-14832.585000	0.000000	0.000000	0.000000	0.000000	114.587649	52.593911	153.489077	145.522236	-0.000000	0.000000	-0.000000	-0.000000	33.602520	-7.492660	7.187460	0.024231	0.706541	0.762876	-1.000000	-1.000000	-1.000000	-1.000000	-1.000000	-1.000000	-1.000000	139.103448	0.000000	-1.000000	-1.000000	448113.000000	1772918925.691144
-4606.245000	24015.735000	-18847.710000	-14954.355000	0.000000	0.000000	0.000000	0.000000	39.404168	60.652600	64.374995	79.626377	-0.000000	0.000000	-0.000000	-0.000000	33.602520	-7.492660	7.187460	0.024231	0.706541	0.762876	-1.000000	-1.000000	-1.000000	-1.000000	-1.000000	-1.000000	-1.000000	139.103448	0.000000	-1.000000	-1.000000	448114.000000	1772918925.691146
-4592.115000	23856.570000	-18909.990000	-15021.495000	0.000000	0.000000	0.000000	0.000000	-65.904773	49.261603	-66.576670	-35.503156	-0.000000	0.000000	-0.000000	-0.000000	33.602520	-7.492660	7.187460	0.024231	0.706541	0.762876	-1.000000	-1.000000	-1.000000	-1.000000	-1.000000	-1.000000	-1.000000	139.103448	0.000000	-1.000000	-1.000000	448115.000000	1772918925.694366
-4478.625000	23749.425000	-18772.065000	-14890.590000	0.000000	0.000000	0.000000	0.000000	-135.444300	14.973689	-162.152857	-129.299405	-0.000000	0.000000	-0.000000	-0.000000	33.602520	-7.492660	7.187460	0.024231	0.706541	0.762876	-1.000000	-1.000000	-1.000000	-1.000000	-1.000000	-1.000000	-1.000000	139.103448	0.000000	-1.000000	-1.000000	448116.000000	1772918925.694369
-4475.520000	23802.210000	-18722.925000	-14814.900000	0.000000	0.000000	0.000000	0.000000	-126.012910	-30.339034	-165.134312	-143.771314	-0.000000	0.000000	-0.000000	-0.000000	21.440300	-5.997180	2.868880	0.049316	0.699217	0.733458	-1.000000	-1.000000	-1.000000	-1.000000	-1.000000	-1.000000	-1.000000	139.103448	0.000000	-1.000000	-1.000000	448117.000000	1772918925.697496
-4461.930000	23848.110000	-18690.255000	-14784.480000	0.000000	0.000000	0.000000	0.000000	-50.982622	-56.374061	-79.678849	-75.324461	-0.000000	0.000000	-0.000000	-0.000000	21.440300	-5.997180	2.868880	0.049316	0.699217	0.733458	-1.000000	-1.000000	-1.000000	-1.000000	-1.000000	-1.000000	-1.000000	139.103448	0.000000	-1.000000	-1.000000	448118.000000	1772918925.697499
-4355.865000	23867.415000	-18551.745000	-14688.090000	0.000000	0.000000	0.000000	0.000000	38.167098	-41.924343	36.825839	26.195656	-0.000000	0.000000	-0.000000	-0.000000	21.440300	-5.997180	2.868880	0.049316	0.699217	0.733458	-1.000000	-1.000000	-1.000000	-1.000000	-1.000000	-1.000000	-1.000000	139.103448	0.000000	-1.000000	-1.000000	448119.000000	1772918925.700819
-4391.730000	23878.035000	-18596.160000	-14746.545000	0.000000	0.000000	0.000000	0.000000	96.245923	1.388492	121.601625	100.207445	-0.000000	0.000000	-0.000000	-0.000000	21.440300	-5.997180	2.868880	0.049316	0.699217	0.733458	-1.000000	-1.000000	-1.000000	-1.000000	-1.000000	-1.000000	-1.000000	139.103448	0.000000	-1.000000	-1.000000	448120.000000	1772918925.700823
