Channel1	Channel2	Channel3	Channel4	Channel5	Channel6	Channel7	Channel8	FilteredChannel1	FilteredChannel2	FilteredChannel3	FilteredChannel4	FilteredChannel5	FilteredChannel6	FilteredChannel7	FilteredChannel8	GyroX	GyroY	GyroZ	AccX	AccY	AccZ	PPG1	PPG2	rawPPG1	rawPPG2	rawPPG3	Hr	Hrv	Battery	Trigger	PhysicalTrigger	AutoTrigger	NumMeasurements	Timestamp
-16768.215000	-18477.225000	-20723.490000	-13033.125000	0.000000	0.000000	0.000000	0.000000	2.980926	19.373144	1.552907	-0.016771	-0.000000	-0.000000	0.000000	0.000000	2.380560	-0.473060	1.434440	-0.007507	0.981870	0.022949	-1.000000	-1.000000	-1.000000	-1.000000	-1.000000	-1.000000	-1.000000	146.965517	0.000000	-1.000000	-1.000000	363541.000000	1772311385.795931
-16791.480000	-18486.945000	-20741.535000	-13040.595000	0.000000	0.000000	0.000000	0.000000	4.115565	7.433120	4.326859	2.532753	-0.000000	-0.000000	0.000000	0.000000	2.380560	-0.473060	1.434440	-0.007507	0.981870	0.022949	-1.000000	-1.000000	-1.000000	-1.000000	-1.000000	-1.000000	-1.000000	146.965517	0.000000	-1.000000	-1.000000	363542.000000	1772311385.795935
-16792.290000	-18496.890000	-20743.695000	-13040.955000	0.000000	0.000000	0.000000	0.000000	1.177781	-6.305788	3.114628	2.876801	-0.000000	-0.000000	0.000000	0.000000	2.380560	-0.473060	1.434440	-0.007507	0.981870	0.022949	-1.000000	-1.000000	-1.000000	-1.000000	-1.000000	-1.000000	-1.000000	146.965517	0.000000	-1.000000	-1.000000	363543.000000	1772311385.798784
-16776.360000	-18478.800000	-20730.690000	-13029.210000	0.000000	0.000000	0.000000	0.000000	-3.703221	-15.332465	-0.936139	1.335315	-0.000000	-0.000000	0.000000	0.000000	2.380560	-0.473060	1.434440	-0.007507	0.981870	0.022949	-1.000000	-1.000000	-1.000000	-1.000000	-1.000000	-1.000000	-1.000000	146.965517	0.000000	-1.000000	-1.000000	363544.000000	1772311385.798786
-16770.870000	-18458.280000	-20727.045000	-13025.970000	0.000000	0.000000	0.000000	0.000000	-5.592215	-14.812203	-3.603081	0.031091	-0.000000	-0.000000	0.000000	0.000000	2.380560	-0.473060	1.434440	-0.007507	0.981870	0.022949	-1.000000	-1.000000	-1.000000	-1.000000	-1.000000	-1.000000	-1.000000	146.965517	0.000000	-1.000000	-1.000000	363545.000000	1772311385.802674
-16768.620000	-18443.970000	-20726.460000	-13028.130000	0.000000	0.000000	0.000000	0.000000	-2.508467	-4.984503	-2.534484	0.109734	-0.000000	-0.000000	0.000000	0.000000	2.380560	-0.473060	1.434440	-0.007507	0.981870	0.022949	-1.000000	-1.000000	-1.000000	-1.000000	-1.000000	-1.000000	-1.000000	146.965517	0.000000	-1.000000	-1.000000	363546.000000	1772311385.802677
-16776.495000	-18429.255000	-20734.065000	-13035.420000	0.000000	0.000000	0.000000	0.000000	2.515225	8.114106	0.501682	0.449858	-0.000000	-0.000000	0.000000	0.000000	3.067260	-0.045780	0.610400	-0.004944	0.981504	0.022156	-1.000000	-1.000000	-1.000000	-1.000000	-1.000000	-1.000000	-1.000000	146.965517	0.000000	-1.000000	-1.000000	363547.000000	1772311385.809673
-16782.795000	-18420.390000	-20740.140000	-13040.280000	0.000000	0.000000	0.000000	0.000000	5.036590	16.805504	2.235789	-0.471795	-0.000000	-0.000000	0.000000	0.000000	3.067260	-0.045780	0.610400	-0.004944	0.981504	0.022156	-1.000000	-1.000000	-1.000000	-1.000000	-1.000000	-1.000000	-1.000000	146.965517	0.000000	-1.000000	-1.000000	363548.000000	1772311385.809676
-16780.725000	-18424.440000	-20738.070000	-13038.120000	0.000000	0.000000	0.000000	0.000000	3.426256	16.618642	1.352069	-2.450767	-0.000000	-0.000000	0.000000	0.000000	3.067260	-0.045780	0.610400	-0.004944	0.981504	0.022156	-1.000000	-1.000000	-1.000000	-1.000000	-1.000000	-1.000000	-1.000000	146.965517	0.000000	-1.000000	-1.000000	363549.000000	1772311385.810688
-16787.115000	-18416.340000	-20743.065000	-13043.970000	0.000000	0.000000	0.000000	0.000000	-0.361153	8.161246	-0.776101	-3.815315	-0.000000	-0.000000	0.000000	0.000000	3.067260	-0.045780	0.610400	-0.004944	0.981504	0.022156	-1.000000	-1.000000	-1.000000	-1.000000	-1.000000	-1.000000	-1.000000	146.965517	0.000000	-1.000000	-1.000000	363550.000000	1772311385.810691
-16788.870000	-18398.115000	-20743.245000	-13043.520000	0.000000	0.000000	0.000000	0.000000	-3.442731	-3.324826	-2.164324	-3.397124	-0.000000	-0.000000	0.000000	0.000000	3.067260	-0.045780	0.610400	-0.004944	0.981504	0.022156	-1.000000	-1.000000	-1.000000	-1.000000	-1.000000	-1.000000	-1.000000	146.965517	0.000000	-1.000000	-1.000000	363551.000000	1772311385.814749
-16784.730000	-18379.890000	-20739.915000	-13041.540000	0.000000	0.000000	0.000000	0.000000	-4.174950	-11.097461	-1.886514	-1.339430	-0.000000	-0.000000	0.000000	0.000000	3.067260	-0.045780	0.610400	-0.004944	0.981504	0.022156	-1.000000	-1.000000	-1.000000	-1.000000	-1.000000	-1.000000	-1.000000	146.965517	0.000000	-1.000000	-1.000000	363552.000000	1772311385.814751
-16784.865000	-18364.095000	-20743.020000	-13045.005000	0.000000	0.000000	0.000000	0.000000	-2.366296	-11.668407	-0.175421	1.415402	-0.000000	-0.000000	0.000000	0.000000	3.067260	-0.045780	0.610400	-0.004944	0.981504	0.022156	-1.000000	-1.000000	-1.000000	-1.000000	-1.000000	-1.000000	-1.000000	146.965517	0.000000	-1.000000	-1.000000	363553.000000	1772311385.818822
-16787.745000	-18340.110000	-20746.800000	-13047.705000	0.000000	0.000000	0.000000	0.000000	0.742943	-6.491098	1.746185	3.504522	-0.000000	-0.000000	0.000000	0.000000	3.067260	-0.045780	0.610400	-0.004944	0.981504	0.022156	-1.000000	-1.000000	-1.000000	-1.000000	-1.000000	-1.000000	-1.000000	146.965517	0.000000	-1.000000	-1.000000	363554.000000	1772311385.818831
-16785.270000	-18332.955000	-20744.010000	-13045.320000	0.000000	0.000000	0.000000	0.000000	3.207641	0.247524	2.594266	3.973609	-0.000000	-0.000000	0.000000	0.000000	3.067260	-0.045780	0.610400	-0.004944	0.981504	0.022156	-1.000000	-1.000000	-1.000000	-1.000000	-1.000000	-1.000000	-1.000000	146.965517	0.000000	-1.000000	-1.000000	363555.000000	1772311385.823027
-16775.415000	-18325.305000	-20732.985000	-13036.995000	0.000000	0.000000	0.000000	0.000000	4.100057	4.318697	2.425937	3.216964	-0.000000	-0.000000	0.000000	0.000000	3.067260	-0.045780	0.610400	-0.004944	0.981504	0.022156	-1.000000	-1.000000	-1.000000	-1.000000	-1.000000	-1.000000	-1.000000	146.965517	0.000000	-1.000000	-1.000000	363556.000000	1772311385.823030
-16780.320000	-18337.275000	-20736.405000	-13038.480000	0.000000	0.000000	0.000000	0.000000	3.764927	3.338535	2.167400	2.310399	-0.000000	-0.000000	0.000000	0.000000	3.158820	0.076300	-0.442540	-0.002686	0.982480	0.021545	-1.000000	-1.000000	-1.000000	-1.000000	-1.000000	-1.000000	-1.000000	146.965517	0.000000	-1.000000	-1.000000	363557.000000	1772311385.828177
-16785.090000	-18339.165000	-20738.745000	-13039.965000	0.000000	0.000000	0.000000	0.000000	2.345626	-2.114959	1.792149	1.472199	-0.000000	-0.000000	0.000000	0.000000	3.158820	0.076300	-0.442540	-0.002686	0.982480	0.021545	-1.000000	-1.000000	-1.000000	-1.000000	-1.000000	-1.000000	-1.000000	146.965517	0.000000	-1.000000	-1.000000	363558.000000	1772311385.828180
-16785.450000	-18351.270000	-20739.870000	-13040.820000	0.000000	0.000000	0.000000	0.000000	-0.240454	-8.754574	0.499079	0.149780	-0.000000	-0.000000	0.000000	0.000000	3.158820	0.076300	-0.442540	-0.002686	0.982480	0.021545	-1.000000	-1.000000	-1.000000	-1.000000	-1.000000	-1.000000	-1.000000	146.965517	0.000000	-1.000000	-1.000000	363559.000000	1772311385.830888
-16774.830000	-18368.640000	-20729.475000	-13031.820000	0.000000	0.000000	0.000000	0.000000	-2.862975	-12.806145	-1.414182	-1.501047	-0.000000	-0.000000	0.000000	0.000000	3.158820	0.076300	-0.442540	-0.002686	0.982480	0.021545	-1.000000	-1.000000	-1.000000	-1.000000	-1.000000	-1.000000	-1.000000	146.965517	0.000000	-1.000000	-1.000000	363560.000000	1772311385.830891
-16771.230000	-18378.270000	-20725.245000	-13027.770000	0.000000	0.000000	0.000000	0.000000	-3.612061	-12.374232	-2.430299	-2.361146	-0.000000	-0.000000	0.000000	0.000000	3.158820	0.076300	-0.442540	-0.002686	0.982480	0.021545	-1.000000	-1.000000	-1.000000	-1.000000	-1.000000	-1.000000	-1.000000	146.965517	0.000000	-1.000000	-1.000000	363561.000000	1772311385.834863
-16777.665000	-18372.285000	-20732.715000	-13035.195000	0.000000	0.000000	0.000000	0.000000	-2.175351	-7.297714	-1.941895	-1.997956	-0.000000	-0.000000	0.000000	0.000000	3.158820	0.076300	-0.442540	-0.002686	0.982480	0.021545	-1.000000	-1.000000	-1.000000	-1.000000	-1.000000	-1.000000	-1.000000	146.965517	0.000000	-1.000000	-1.000000	363562.000000	1772311385.834866
-16772.760000	-18371.205000	-20728.485000	-13031.730000	0.000000	0.000000	0.000000	0.000000	-0.294363	1.511747	-1.092161	-1.394602	-0.000000	-0.000000	0.000000	0.000000	3.158820	0.076300	-0.442540	-0.002686	0.982480	0.021545	-1.000000	-1.000000	-1.000000	-1.000000	-1.000000	-1.000000	-1.000000	146.965517	0.000000	-1.000000	-1.000000	363563.000000	1772311385.838830
-16767.720000	-18365.670000	-20721.375000	-13023.360000	0.000000	0.000000	0.000000	0.000000	0.671849	11.402098	-0.728171	-1.157121	-0.000000	-0.000000	0.000000	0.000000	3.158820	0.076300	-0.442540	-0.002686	0.982480	0.021545	-1.000000	-1.000000	-1.000000	-1.000000	-1.000000	-1.000000	-1.000000	146.965517	0.000000	-1.000000	-1.000000	363564.000000	1772311385.838833
-16776.090000	-18334.755000	-20730.690000	-13032.270000	0.000000	0.000000	0.000000	0.000000	0.723824	18.965639	-0.571501	-0.862927	-0.000000	-0.000000	0.000000	0.000000	3.158820	0.076300	-0.442540	-0.002686	0.982480	0.021545	-1.000000	-1.000000	-1.000000	-1.000000	-1.000000	-1.000000	-1.000000	146.965517	0.000000	-1.000000	-1.000000	363565.000000	1772311385.842812
-16783.425000	-18321.660000	-20736.990000	-13039.515000	0.000000	0.000000	0.000000	0.000000	-0.136623	22.233191	-0.754218	-0.709271	-0.000000	-0.000000	0.000000	0.000000	3.158820	0.076300	-0.442540	-0.002686	0.982480	0.021545	-1.000000	-1.000000	-1.000000	-1.000000	-1.000000	-1.000000	-1.000000	146.965517	0.000000	-1.000000	-1.000000	363566.000000	1772311385.842814
-16789.230000	-18297.090000	-20744.775000	-13047.435000	0.000000	0.000000	0.000000	0.000000	-1.898986	20.526661	-1.737519	-1.429559	-0.000000	-0.000000	0.000000	0.000000	2.487380	0.228900	-0.381500	-0.002869	0.983274	0.020508	-1.000000	-1.000000	-1.000000	-1.000000	-1.000000	-1.000000	-1.000000	146.965517	0.000000	-1.000000	-1.000000	363567.000000	1772311385.847024
-16780.275000	-18301.815000	-20737.215000	-13039.605000	0.000000	0.000000	0.000000	0.000000	-3.360652	13.598585	-2.790186	-2.477844	-0.000000	-0.000000	0.000000	0.000000	2.487380	0.228900	-0.381500	-0.002869	0.983274	0.020508	-1.000000	-1.000000	-1.000000	-1.000000	-1.000000	-1.000000	-1.000000	146.965517	0.000000	-1.000000	-1.000000	363568.000000	1772311385.847028
-16781.310000	-18317.880000	-20736.405000	-13037.670000	0.000000	0.000000	0.000000	0.000000	-2.743332	1.803688	-2.249435	-2.089448	-0.000000	-0.000000	0.000000	0.000000	2.487380	0.228900	-0.381500	-0.002869	0.983274	0.020508	-1.000000	-1.000000	-1.000000	-1.000000	-1.000000	-1.000000	-1.000000	146.965517	0.000000	-1.000000	-1.000000	363569.000000	1772311385.850960
-16774.515000	-18353.610000	-20731.590000	-13034.115000	0.000000	0.000000	0.000000	0.000000	0.234170	-13.216757	0.470157	0.506892	-0.000000	-0.000000	0.000000	0.000000	2.487380	0.228900	-0.381500	-0.002869	0.983274	0.020508	-1.000000	-1.000000	-1.000000	-1.000000	-1.000000	-1.000000	-1.000000	146.965517	0.000000	-1.000000	-1.000000	363570.000000	1772311385.850964
-16770.150000	-18383.805000	-20727.000000	-13029.570000	0.000000	0.000000	0.000000	0.000000	3.955114	-27.592236	4.035884	3.991683	-0.000000	-0.000000	0.000000	0.000000	2.487380	0.228900	-0.381500	-0.002869	0.983274	0.020508	-1.000000	-1.000000	-1.000000	-1.000000	-1.000000	-1.000000	-1.000000	146.965517	0.000000	-1.000000	-1.000000	363571.000000	1772311385.854939
-16771.590000	-18377.955000	-20729.385000	-13030.335000	0.000000	0.000000	0.000000	0.000000	6.303655	-35.099223	6.352386	6.234156	-0.000000	-0.000000	0.000000	0.000000	2.487380	0.228900	-0.381500	-0.002869	0.983274	0.020508	-1.000000	-1.000000	-1.000000	-1.000000	-1.000000	-1.000000	-1.000000	146.965517	0.000000	-1.000000	-1.000000	363572.000000	1772311385.854942
-16770.240000	-18382.770000	-20726.640000	-13026.780000	0.000000	0.000000	0.000000	0.000000	5.881505	-29.957401	5.983651	5.899539	-0.000000	-0.000000	0.000000	0.000000	2.487380	0.228900	-0.381500	-0.002869	0.983274	0.020508	-1.000000	-1.000000	-1.000000	-1.000000	-1.000000	-1.000000	-1.000000	146.965517	0.000000	-1.000000	-1.000000	363573.000000	1772311385.859896
-16776.000000	-18367.155000	-20732.625000	-13032.540000	0.000000	0.000000	0.000000	0.000000	2.746873	-12.105610	2.989650	3.093308	-0.000000	-0.000000	0.000000	0.000000	2.487380	0.228900	-0.381500	-0.002869	0.983274	0.020508	-1.000000	-1.000000	-1.000000	-1.000000	-1.000000	-1.000000	-1.000000	146.965517	0.000000	-1.000000	-1.000000	363574.000000	1772311385.859899
-16774.470000	-18391.320000	-20729.655000	-13031.280000	0.000000	0.000000	0.000000	0.000000	-1.612994	10.740794	-1.183993	-0.940240	-0.000000	-0.000000	0.000000	0.000000	2.487380	0.228900	-0.381500	-0.002869	0.983274	0.020508	-1.000000	-1.000000	-1.000000	-1.000000	-1.000000	-1.000000	-1.000000	146.965517	0.000000	-1.000000	-1.000000	363575.000000	1772311385.862851
-16765.515000	-18471.825000	-20720.025000	-13020.975000	0.000000	0.000000	0.000000	0.000000	-4.916833	26.051243	-4.352648	-4.246759	-0.000000	-0.000000	0.000000	0.000000	2.487380	0.228900	-0.381500	-0.002869	0.983274	0.020508	-1.000000	-1.000000	-1.000000	-1.000000	-1.000000	-1.000000	-1.000000	146.965517	0.000000	-1.000000	-1.000000	363576.000000	1772311385.862854
-16759.890000	-18530.640000	-20714.670000	-13014.630000	0.000000	0.000000	0.000000	0.000000	-5.242674	23.855629	-4.703031	-4.921863	-0.000000	-0.000000	0.000000	0.000000	1.251320	0.381500	-0.457800	-0.003418	0.983823	0.020325	-1.000000	-1.000000	-1.000000	-1.000000	-1.000000	-1.000000	-1.000000	146.965517	0.000000	-1.000000	-1.000000	363577.000000	1772311385.867092
-16755.345000	-18573.165000	-20711.565000	-13011.930000	0.000000	0.000000	0.000000	0.000000	-2.612166	6.211995	-2.370618	-2.783638	-0.000000	-0.000000	0.000000	0.000000	1.251320	0.381500	-0.457800	-0.003418	0.983823	0.020325	-1.000000	-1.000000	-1.000000	-1.000000	-1.000000	-1.000000	-1.000000	146.965517	0.000000	-1.000000	-1.000000	363578.000000	1772311385.867097
-16749.180000	-18607.815000	-20706.705000	-13007.970000	0.000000	0.000000	0.000000	0.000000	0.985399	-12.977447	0.636556	0.270229	-0.000000	-0.000000	0.000000	0.000000	1.251320	0.381500	-0.457800	-0.003418	0.983823	0.020325	-1.000000	-1.000000	-1.000000	-1.000000	-1.000000	-1.000000	-1.000000	146.965517	0.000000	-1.000000	-1.000000	363579.000000	1772311385.870876
-16749.945000	-18633.240000	-20707.380000	-13008.195000	0.000000	0.000000	0.000000	0.000000	3.293664	-19.995170	2.292303	2.069673	-0.000000	-0.000000	0.000000	0.000000	1.251320	0.381500	-0.457800	-0.003418	0.983823	0.020325	-1.000000	-1.000000	-1.000000	-1.000000	-1.000000	-1.000000	-1.000000	146.965517	0.000000	-1.000000	-1.000000	363580.000000	1772311385.870879
-16752.330000	-18653.760000	-20709.045000	-13009.005000	0.000000	0.000000	0.000000	0.000000	3.065792	-11.178179	1.769663	1.703015	-0.000000	-0.000000	0.000000	0.000000	1.251320	0.381500	-0.457800	-0.003418	0.983823	0.020325	-1.000000	-1.000000	-1.000000	-1.000000	-1.000000	-1.000000	-1.000000	146.965517	0.000000	-1.000000	-1.000000	363581.000000	1772311385.876348
-16751.385000	-18702.720000	-20706.165000	-13005.900000	0.000000	0.000000	0.000000	0.000000	0.564617	6.451156	-0.367751	-0.231262	-0.000000	-0.000000	0.000000	0.000000	1.251320	0.381500	-0.457800	-0.003418	0.983823	0.020325	-1.000000	-1.000000	-1.000000	-1.000000	-1.000000	-1.000000	-1.000000	146.965517	0.000000	-1.000000	-1.000000	363582.000000	1772311385.876352
-16746.750000	-18741.510000	-20699.505000	-12999.510000	0.000000	0.000000	0.000000	0.000000	-2.456496	21.056067	-2.444171	-2.100211	-0.000000	-0.000000	0.000000	0.000000	1.251320	0.381500	-0.457800	-0.003418	0.983823	0.020325	-1.000000	-1.000000	-1.000000	-1.000000	-1.000000	-1.000000	-1.000000	146.965517	0.000000	-1.000000	-1.000000	363583.000000	1772311385.886587
-16750.710000	-18736.290000	-20702.070000	-13001.985000	0.000000	0.000000	0.000000	0.000000	-4.047755	25.356957	-2.957243	-2.542419	-0.000000	-0.000000	0.000000	0.000000	1.251320	0.381500	-0.457800	-0.003418	0.983823	0.020325	-1.000000	-1.000000	-1.000000	-1.000000	-1.000000	-1.000000	-1.000000	146.965517	0.000000	-1.000000	-1.000000	363584.000000	1772311385.886590
-16749.270000	-18742.725000	-20701.845000	-13000.950000	0.000000	0.000000	0.000000	0.000000	-3.652713	21.472831	-1.962677	-1.661060	-0.000000	-0.000000	0.000000	0.000000	1.251320	0.381500	-0.457800	-0.003418	0.983823	0.020325	-1.000000	-1.000000	-1.000000	-1.000000	-1.000000	-1.000000	-1.000000	146.965517	0.000000	-1.000000	-1.000000	363585.000000	1772311385.886595
-16750.395000	-18767.565000	-20706.840000	-13005.000000	0.000000	0.000000	0.000000	0.000000	-1.994532	14.865452	-0.675178	-0.547113	-0.000000	-0.000000	0.000000	0.000000	1.251320	0.381500	-0.457800	-0.003418	0.983823	0.020325	-1.000000	-1.000000	-1.000000	-1.000000	-1.000000	-1.000000	-1.000000	146.965517	0.000000	-1.000000	-1.000000	363586.000000	1772311385.886597
-16746.885000	-18802.260000	-20702.520000	-13001.130000	0.000000	0.000000	0.000000	0.000000	0.028395	7.071438	0.048311	0.067092	-0.000000	-0.000000	0.000000	0.000000	1.724380	0.213640	-0.335720	-0.003906	0.983518	0.021667	-1.000000	-1.000000	-1.000000	-1.000000	-1.000000	-1.000000	-1.000000	146.965517	0.000000	-1.000000	-1.000000	363587.000000	1772311385.887035
-16745.130000	-18812.565000	-20701.080000	-12999.375000	0.000000	0.000000	0.000000	0.000000	1.837232	-2.455683	0.421993	0.370857	-0.000000	-0.000000	0.000000	0.000000	1.724380	0.213640	-0.335720	-0.003906	0.983518	0.021667	-1.000000	-1.000000	-1.000000	-1.000000	-1.000000	-1.000000	-1.000000	146.965517	0.000000	-1.000000	-1.000000	363588.000000	1772311385.887038
-16744.365000	-18808.560000	-20699.100000	-12996.765000	0.000000	0.000000	0.000000	0.000000	3.035624	-11.169539	1.020824	0.880769	-0.000000	-0.000000	0.000000	0.000000	1.724380	0.213640	-0.335720	-0.003906	0.983518	0.021667	-1.000000	-1.000000	-1.000000	-1.000000	-1.000000	-1.000000	-1.000000	146.965517	0.000000	-1.000000	-1.000000	363589.000000	1772311385.890937
-16742.340000	-18817.200000	-20696.265000	-12995.370000	0.000000	0.000000	0.000000	0.000000	3.292916	-14.563379	1.851248	1.611299	-0.000000	-0.000000	0.000000	0.000000	1.724380	0.213640	-0.335720	-0.003906	0.983518	0.021667	-1.000000	-1.000000	-1.000000	-1.000000	-1.000000	-1.000000	-1.000000	146.965517	0.000000	-1.000000	-1.000000	363590.000000	1772311385.890940
-16748.640000	-18870.525000	-20701.530000	-13001.850000	0.000000	0.000000	0.000000	0.000000	2.444619	-12.377297	2.319406	1.946876	-0.000000	-0.000000	0.000000	0.000000	1.724380	0.213640	-0.335720	-0.003906	0.983518	0.021667	-1.000000	-1.000000	-1.000000	-1.000000	-1.000000	-1.000000	-1.000000	146.965517	0.000000	-1.000000	-1.000000	363591.000000	1772311385.895061
-16754.805000	-18867.960000	-20707.695000	-13007.205000	0.000000	0.000000	0.000000	0.000000	0.514566	-9.080858	1.661270	1.139707	-0.000000	-0.000000	0.000000	0.000000	1.724380	0.213640	-0.335720	-0.003906	0.983518	0.021667	-1.000000	-1.000000	-1.000000	-1.000000	-1.000000	-1.000000	-1.000000	146.965517	0.000000	-1.000000	-1.000000	363592.000000	1772311385.895064
-16749.585000	-18846.180000	-20701.620000	-13001.895000	0.000000	0.000000	0.000000	0.000000	-1.842270	-6.284796	-0.105337	-0.626384	-0.000000	-0.000000	0.000000	0.000000	1.724380	0.213640	-0.335720	-0.003906	0.983518	0.021667	-1.000000	-1.000000	-1.000000	-1.000000	-1.000000	-1.000000	-1.000000	146.965517	0.000000	-1.000000	-1.000000	363593.000000	1772311385.899314
-16750.800000	-18827.685000	-20703.015000	-13002.300000	0.000000	0.000000	0.000000	0.000000	-3.150153	-0.813841	-1.667205	-1.914960	-0.000000	-0.000000	0.000000	0.000000	1.724380	0.213640	-0.335720	-0.003906	0.983518	0.021667	-1.000000	-1.000000	-1.000000	-1.000000	-1.000000	-1.000000	-1.000000	146.965517	0.000000	-1.000000	-1.000000	363594.000000	1772311385.899316
-16752.645000	-18826.740000	-20706.300000	-13004.505000	0.000000	0.000000	0.000000	0.000000	-2.531654	7.887424	-1.904994	-1.666741	-0.000000	-0.000000	0.000000	0.000000	1.724380	0.213640	-0.335720	-0.003906	0.983518	0.021667	-1.000000	-1.000000	-1.000000	-1.000000	-1.000000	-1.000000	-1.000000	146.965517	0.000000	-1.000000	-1.000000	363595.000000	1772311385.902916
-16758.315000	-18814.185000	-20713.680000	-13012.110000	0.000000	0.000000	0.000000	0.000000	-0.779418	14.846781	-1.235397	-0.493331	-0.000000	-0.000000	0.000000	0.000000	1.724380	0.213640	-0.335720	-0.003906	0.983518	0.021667	-1.000000	-1.000000	-1.000000	-1.000000	-1.000000	-1.000000	-1.000000	146.965517	0.000000	-1.000000	-1.000000	363596.000000	1772311385.902919
-16752.240000	-18821.115000	-20708.190000	-13006.575000	0.000000	0.000000	0.000000	0.000000	0.800008	14.881527	-0.566587	0.421234	-0.000000	-0.000000	0.000000	0.000000	2.517900	-0.030520	-0.152600	-0.004211	0.982969	0.023254	-1.000000	-1.000000	-1.000000	-1.000000	-1.000000	-1.000000	-1.000000	146.965517	0.000000	-1.000000	-1.000000	363597.000000	1772311385.907030
-16755.750000	-18796.365000	-20709.135000	-13007.115000	0.000000	0.000000	0.000000	0.000000	1.754327	7.565629	0.082426	0.892906	-0.000000	-0.000000	0.000000	0.000000	2.517900	-0.030520	-0.152600	-0.004211	0.982969	0.023254	-1.000000	-1.000000	-1.000000	-1.000000	-1.000000	-1.000000	-1.000000	146.965517	0.000000	-1.000000	-1.000000	363598.000000	1772311385.907033
-16763.445000	-18788.670000	-20716.200000	-13012.875000	0.000000	0.000000	0.000000	0.000000	1.986255	-2.574325	0.886263	1.228942	-0.000000	-0.000000	0.000000	0.000000	2.517900	-0.030520	-0.152600	-0.004211	0.982969	0.023254	-1.000000	-1.000000	-1.000000	-1.000000	-1.000000	-1.000000	-1.000000	146.965517	0.000000	-1.000000	-1.000000	363599.000000	1772311385.911183
-16767.090000	-18785.790000	-20721.015000	-13019.580000	0.000000	0.000000	0.000000	0.000000	1.174742	-10.330587	1.236977	1.084948	-0.000000	-0.000000	0.000000	0.000000	2.517900	-0.030520	-0.152600	-0.004211	0.982969	0.023254	-1.000000	-1.000000	-1.000000	-1.000000	-1.000000	-1.000000	-1.000000	146.965517	0.000000	-1.000000	-1.000000	363600.000000	1772311385.911186
-16762.905000	-18775.845000	-20717.640000	-13017.555000	0.000000	0.000000	0.000000	0.000000	-0.273159	-13.670510	0.761551	0.179136	-0.000000	-0.000000	0.000000	0.000000	2.517900	-0.030520	-0.152600	-0.004211	0.982969	0.023254	-1.000000	-1.000000	-1.000000	-1.000000	-1.000000	-1.000000	-1.000000	146.965517	0.000000	-1.000000	-1.000000	363601.000000	1772311385.915043
-16762.365000	-18773.370000	-20717.100000	-13015.890000	0.000000	0.000000	0.000000	0.000000	-1.025716	-13.099592	0.221460	-0.699566	-0.000000	-0.000000	0.000000	0.000000	2.517900	-0.030520	-0.152600	-0.004211	0.982969	0.023254	-1.000000	-1.000000	-1.000000	-1.000000	-1.000000	-1.000000	-1.000000	146.965517	0.000000	-1.000000	-1.000000	363602.000000	1772311385.915046
-16756.155000	-18775.485000	-20710.440000	-13008.240000	0.000000	0.000000	0.000000	0.000000	-0.265138	-10.090282	0.529908	-0.420464	-0.000000	-0.000000	0.000000	0.000000	2.517900	-0.030520	-0.152600	-0.004211	0.982969	0.023254	-1.000000	-1.000000	-1.000000	-1.000000	-1.000000	-1.000000	-1.000000	146.965517	0.000000	-1.000000	-1.000000	363603.000000	1772311385.919056
-16754.130000	-18794.025000	-20708.550000	-13005.495000	0.000000	0.000000	0.000000	0.000000	1.512095	-6.761637	1.678580	1.185132	-0.000000	-0.000000	0.000000	0.000000	2.517900	-0.030520	-0.152600	-0.004211	0.982969	0.023254	-1.000000	-1.000000	-1.000000	-1.000000	-1.000000	-1.000000	-1.000000	146.965517	0.000000	-1.000000	-1.000000	363604.000000	1772311385.919060
-16759.665000	-18782.910000	-20713.995000	-13011.165000	0.000000	0.000000	0.000000	0.000000	2.870828	-4.518864	2.615256	2.860606	-0.000000	-0.000000	0.000000	0.000000	2.517900	-0.030520	-0.152600	-0.004211	0.982969	0.023254	-1.000000	-1.000000	-1.000000	-1.000000	-1.000000	-1.000000	-1.000000	146.965517	0.000000	-1.000000	-1.000000	363605.000000	1772311385.928963
-16761.645000	-18747.315000	-20715.480000	-13014.855000	0.000000	0.000000	0.000000	0.000000	2.396902	-1.825723	2.027059	2.794214	-0.000000	-0.000000	0.000000	0.000000	2.517900	-0.030520	-0.152600	-0.004211	0.982969	0.023254	-1.000000	-1.000000	-1.000000	-1.000000	-1.000000	-1.000000	-1.000000	146.965517	0.000000	-1.000000	-1.000000	363606.000000	1772311385.928966
-16756.920000	-18734.895000	-20710.890000	-13011.615000	0.000000	0.000000	0.000000	0.000000	0.148630	4.029694	-0.109796	0.564242	-0.000000	-0.000000	0.000000	0.000000	3.250380	-0.015260	-0.427280	-0.003479	0.982297	0.022949	-1.000000	-1.000000	-1.000000	-1.000000	-1.000000	-1.000000	-1.000000	146.965517	0.000000	-1.000000	-1.000000	363607.000000	1772311385.928970
-16762.275000	-18760.140000	-20715.210000	-13014.135000	0.000000	0.000000	0.000000	0.000000	-2.272584	11.080500	-2.335665	-2.248210	-0.000000	-0.000000	0.000000	0.000000	3.250380	-0.015260	-0.427280	-0.003479	0.982297	0.022949	-1.000000	-1.000000	-1.000000	-1.000000	-1.000000	-1.000000	-1.000000	146.965517	0.000000	-1.000000	-1.000000	363608.000000	1772311385.928973
-16762.320000	-18756.405000	-20713.725000	-13013.055000	0.000000	0.000000	0.000000	0.000000	-3.526252	13.021038	-3.393759	-3.805818	-0.000000	-0.000000	0.000000	0.000000	3.250380	-0.015260	-0.427280	-0.003479	0.982297	0.022949	-1.000000	-1.000000	-1.000000	-1.000000	-1.000000	-1.000000	-1.000000	146.965517	0.000000	-1.000000	-1.000000	363609.000000	1772311385.931183
-16763.445000	-18745.380000	-20718.180000	-13017.195000	0.000000	0.000000	0.000000	0.000000	-3.378817	7.587900	-3.140022	-3.560192	-0.000000	-0.000000	0.000000	0.000000	3.250380	-0.015260	-0.427280	-0.003479	0.982297	0.022949	-1.000000	-1.000000	-1.000000	-1.000000	-1.000000	-1.000000	-1.000000	146.965517	0.000000	-1.000000	-1.000000	363610.000000	1772311385.931187
-16766.955000	-18717.840000	-20720.790000	-13020.660000	0.000000	0.000000	0.000000	0.000000	-2.214439	-0.095284	-2.135303	-2.199048	-0.000000	-0.000000	0.000000	0.000000	3.250380	-0.015260	-0.427280	-0.003479	0.982297	0.022949	-1.000000	-1.000000	-1.000000	-1.000000	-1.000000	-1.000000	-1.000000	146.965517	0.000000	-1.000000	-1.000000	363611.000000	1772311385.935106
-16764.435000	-18713.115000	-20718.315000	-13017.735000	0.000000	0.000000	0.000000	0.000000	-0.636961	-3.858084	-0.941913	-0.649735	-0.000000	-0.000000	0.000000	0.000000	3.250380	-0.015260	-0.427280	-0.003479	0.982297	0.022949	-1.000000	-1.000000	-1.000000	-1.000000	-1.000000	-1.000000	-1.000000	146.965517	0.000000	-1.000000	-1.000000	363612.000000	1772311385.935109
-16763.580000	-18697.365000	-20718.045000	-13017.780000	0.000000	0.000000	0.000000	0.000000	0.920782	-2.673498	0.335487	0.760884	-0.000000	-0.000000	0.000000	0.000000	3.250380	-0.015260	-0.427280	-0.003479	0.982297	0.022949	-1.000000	-1.000000	-1.000000	-1.000000	-1.000000	-1.000000	-1.000000	146.965517	0.000000	-1.000000	-1.000000	363613.000000	1772311385.939062
-16763.850000	-18682.470000	-20718.810000	-13020.615000	0.000000	0.000000	0.000000	0.000000	2.193058	0.365417	1.626143	1.925162	-0.000000	-0.000000	0.000000	0.000000	3.250380	-0.015260	-0.427280	-0.003479	0.982297	0.022949	-1.000000	-1.000000	-1.000000	-1.000000	-1.000000	-1.000000	-1.000000	146.965517	0.000000	-1.000000	-1.000000	363614.000000	1772311385.939064
-16773.120000	-18664.380000	-20728.530000	-13029.930000	0.000000	0.000000	0.000000	0.000000	2.626883	2.384913	2.303416	2.274586	-0.000000	-0.000000	0.000000	0.000000	3.250380	-0.015260	-0.427280	-0.003479	0.982297	0.022949	-1.000000	-1.000000	-1.000000	-1.000000	-1.000000	-1.000000	-1.000000	146.965517	0.000000	-1.000000	-1.000000	363615.000000	1772311385.943136
-16772.310000	-18646.425000	-20724.975000	-13026.285000	0.000000	0.000000	0.000000	0.000000	1.714869	2.494443	1.758295	1.410309	-0.000000	-0.000000	0.000000	0.000000	3.250380	-0.015260	-0.427280	-0.003479	0.982297	0.022949	-1.000000	-1.000000	-1.000000	-1.000000	-1.000000	-1.000000	-1.000000	146.965517	0.000000	-1.000000	-1.000000	363616.000000	1772311385.943140
-16771.455000	-18637.650000	-20724.345000	-13025.340000	0.000000	0.000000	0.000000	0.000000	0.017175	1.004952	0.519497	0.123579	-0.000000	-0.000000	0.000000	0.000000	3.464020	0.350980	-0.717220	-0.003113	0.982786	0.022400	-1.000000	-1.000000	-1.000000	-1.000000	-1.000000	-1.000000	-1.000000	146.965517	0.000000	-1.000000	-1.000000	363617.000000	1772311385.947184
-16774.785000	-18605.925000	-20727.765000	-13028.220000	0.000000	0.000000	0.000000	0.000000	-1.164113	-1.201386	-0.275329	-0.398724	-0.000000	-0.000000	0.000000	0.000000	3.464020	0.350980	-0.717220	-0.003113	0.982786	0.022400	-1.000000	-1.000000	-1.000000	-1.000000	-1.000000	-1.000000	-1.000000	146.965517	0.000000	-1.000000	-1.000000	363618.000000	1772311385.947187
-16774.515000	-18583.245000	-20728.215000	-13029.210000	0.000000	0.000000	0.000000	0.000000	-1.234801	-2.577055	-0.334196	-0.065877	-0.000000	-0.000000	0.000000	0.000000	3.464020	0.350980	-0.717220	-0.003113	0.982786	0.022400	-1.000000	-1.000000	-1.000000	-1.000000	-1.000000	-1.000000	-1.000000	146.965517	0.000000	-1.000000	-1.000000	363619.000000	1772311385.951235
-16770.105000	-18594.990000	-20724.390000	-13024.800000	0.000000	0.000000	0.000000	0.000000	-0.436566	-2.718378	-0.003690	0.505415	-0.000000	-0.000000	0.000000	0.000000	3.464020	0.350980	-0.717220	-0.003113	0.982786	0.022400	-1.000000	-1.000000	-1.000000	-1.000000	-1.000000	-1.000000	-1.000000	146.965517	0.000000	-1.000000	-1.000000	363620.000000	1772311385.951239
-16771.590000	-18592.605000	-20727.000000	-13027.545000	0.000000	0.000000	0.000000	0.000000	0.778253	-3.751558	0.484530	0.957294	-0.000000	-0.000000	0.000000	0.000000	3.464020	0.350980	-0.717220	-0.003113	0.982786	0.022400	-1.000000	-1.000000	-1.000000	-1.000000	-1.000000	-1.000000	-1.000000	146.965517	0.000000	-1.000000	-1.000000	363621.000000	1772311385.955111
-16771.950000	-18596.385000	-20727.720000	-13028.445000	0.000000	0.000000	0.000000	0.000000	1.712495	-6.982870	0.799885	1.020002	-0.000000	-0.000000	0.000000	0.000000	3.464020	0.350980	-0.717220	-0.003113	0.982786	0.022400	-1.000000	-1.000000	-1.000000	-1.000000	-1.000000	-1.000000	-1.000000	146.965517	0.000000	-1.000000	-1.000000	363622.000000	1772311385.955114
-16774.920000	-18587.295000	-20728.710000	-13032.675000	0.000000	0.000000	0.000000	0.000000	1.651612	-10.192627	0.568143	0.400248	-0.000000	-0.000000	0.000000	0.000000	3.464020	0.350980	-0.717220	-0.003113	0.982786	0.022400	-1.000000	-1.000000	-1.000000	-1.000000	-1.000000	-1.000000	-1.000000	146.965517	0.000000	-1.000000	-1.000000	363623.000000	1772311385.959192
-16776.945000	-18558.495000	-20730.420000	-13035.420000	0.000000	0.000000	0.000000	0.000000	0.494196	-9.509472	-0.152663	-0.807135	-0.000000	-0.000000	0.000000	0.000000	3.464020	0.350980	-0.717220	-0.003113	0.982786	0.022400	-1.000000	-1.000000	-1.000000	-1.000000	-1.000000	-1.000000	-1.000000	146.965517	0.000000	-1.000000	-1.000000	363624.000000	1772311385.959195
-16771.275000	-18553.230000	-20721.420000	-13023.090000	0.000000	0.000000	0.000000	0.000000	-0.996299	-3.106244	-0.770042	-1.760587	-0.000000	-0.000000	0.000000	0.000000	3.464020	0.350980	-0.717220	-0.003113	0.982786	0.022400	-1.000000	-1.000000	-1.000000	-1.000000	-1.000000	-1.000000	-1.000000	146.965517	0.000000	-1.000000	-1.000000	363625.000000	1772311385.963301
-16776.990000	-18548.100000	-20727.045000	-13026.285000	0.000000	0.000000	0.000000	0.000000	-1.771796	6.037822	-0.665409	-1.359681	-0.000000	-0.000000	0.000000	0.000000	3.464020	0.350980	-0.717220	-0.003113	0.982786	0.022400	-1.000000	-1.000000	-1.000000	-1.000000	-1.000000	-1.000000	-1.000000	146.965517	0.000000	-1.000000	-1.000000	363626.000000	1772311385.963303
-16775.595000	-18532.980000	-20728.890000	-13029.345000	0.000000	0.000000	0.000000	0.000000	-1.579126	12.386013	-0.137473	0.143276	-0.000000	-0.000000	0.000000	0.000000	3.082520	0.274680	-0.686700	-0.003906	0.983213	0.020874	-1.000000	-1.000000	-1.000000	-1.000000	-1.000000	-1.000000	-1.000000	146.965517	0.000000	-1.000000	-1.000000	363627.000000	1772311385.967266
-16776.945000	-18491.760000	-20731.140000	-13031.820000	0.000000	0.000000	0.000000	0.000000	-0.914666	13.635952	-0.083364	1.129992	-0.000000	-0.000000	0.000000	0.000000	3.082520	0.274680	-0.686700	-0.003906	0.983213	0.020874	-1.000000	-1.000000	-1.000000	-1.000000	-1.000000	-1.000000	-1.000000	146.965517	0.000000	-1.000000	-1.000000	363628.000000	1772311385.967270
-16775.325000	-18467.190000	-20731.590000	-13032.315000	0.000000	0.000000	0.000000	0.000000	-0.175627	11.910598	-0.663953	0.699792	-0.000000	-0.000000	0.000000	0.000000	3.082520	0.274680	-0.686700	-0.003906	0.983213	0.020874	-1.000000	-1.000000	-1.000000	-1.000000	-1.000000	-1.000000	-1.000000	146.965517	0.000000	-1.000000	-1.000000	363629.000000	1772311385.971272
-16772.715000	-18470.790000	-20728.170000	-13029.165000	0.000000	0.000000	0.000000	0.000000	0.537763	8.858803	-1.148048	-0.450359	-0.000000	-0.000000	0.000000	0.000000	3.082520	0.274680	-0.686700	-0.003906	0.983213	0.020874	-1.000000	-1.000000	-1.000000	-1.000000	-1.000000	-1.000000	-1.000000	146.965517	0.000000	-1.000000	-1.000000	363630.000000	1772311385.971275
-16770.870000	-18499.005000	-20723.670000	-13025.115000	0.000000	0.000000	0.000000	0.000000	1.201575	2.563121	-0.730796	-1.008087	-0.000000	-0.000000	0.000000	0.000000	3.082520	0.274680	-0.686700	-0.003906	0.983213	0.020874	-1.000000	-1.000000	-1.000000	-1.000000	-1.000000	-1.000000	-1.000000	146.965517	0.000000	-1.000000	-1.000000	363631.000000	1772311385.977147
-16772.580000	-18513.405000	-20723.040000	-13025.340000	0.000000	0.000000	0.000000	0.000000	1.583758	-8.582507	0.635111	-0.395107	-0.000000	-0.000000	0.000000	0.000000	3.082520	0.274680	-0.686700	-0.003906	0.983213	0.020874	-1.000000	-1.000000	-1.000000	-1.000000	-1.000000	-1.000000	-1.000000	146.965517	0.000000	-1.000000	-1.000000	363632.000000	1772311385.977149
-16777.440000	-18498.240000	-20727.945000	-13031.235000	0.000000	0.000000	0.000000	0.000000	1.202873	-20.364318	1.919214	0.617499	-0.000000	-0.000000	0.000000	0.000000	3.082520	0.274680	-0.686700	-0.003906	0.983213	0.020874	-1.000000	-1.000000	-1.000000	-1.000000	-1.000000	-1.000000	-1.000000	146.965517	0.000000	-1.000000	-1.000000	363633.000000	1772311385.979333
-16782.570000	-18462.870000	-20733.165000	-13036.320000	0.000000	0.000000	0.000000	0.000000	-0.193088	-23.948724	1.794459	0.698570	-0.000000	-0.000000	0.000000	0.000000	3.082520	0.274680	-0.686700	-0.003906	0.983213	0.020874	-1.000000	-1.000000	-1.000000	-1.000000	-1.000000	-1.000000	-1.000000	146.965517	0.000000	-1.000000	-1.000000	363634.000000	1772311385.979336
-16777.440000	-18455.490000	-20729.385000	-13032.090000	0.000000	0.000000	0.000000	0.000000	-1.950987	-14.370587	0.117601	-0.413438	-0.000000	-0.000000	0.000000	0.000000	3.082520	0.274680	-0.686700	-0.003906	0.983213	0.020874	-1.000000	-1.000000	-1.000000	-1.000000	-1.000000	-1.000000	-1.000000	146.965517	0.000000	-1.000000	-1.000000	363635.000000	1772311385.983209
-16780.230000	-18421.560000	-20733.570000	-13035.015000	0.000000	0.000000	0.000000	0.000000	-2.721673	3.644920	-1.753589	-1.524278	-0.000000	-0.000000	0.000000	0.000000	3.082520	0.274680	-0.686700	-0.003906	0.983213	0.020874	-1.000000	-1.000000	-1.000000	-1.000000	-1.000000	-1.000000	-1.000000	146.965517	0.000000	-1.000000	-1.000000	363636.000000	1772311385.983212
-16788.555000	-18396.540000	-20741.760000	-13041.720000	0.000000	0.000000	0.000000	0.000000	-2.028041	20.181760	-2.636226	-1.664871	-0.000000	-0.000000	0.000000	0.000000	2.243220	0.320460	-0.686700	-0.004456	0.984556	0.020142	-1.000000	-1.000000	-1.000000	-1.000000	-1.000000	-1.000000	-1.000000	146.965517	0.000000	-1.000000	-1.000000	363637.000000	1772311385.987140
-16784.280000	-18388.035000	-20738.880000	-13040.055000	0.000000	0.000000	0.000000	0.000000	-0.713224	27.469093	-2.478845	-1.063795	-0.000000	-0.000000	0.000000	0.000000	2.243220	0.320460	-0.686700	-0.004456	0.984556	0.020142	-1.000000	-1.000000	-1.000000	-1.000000	-1.000000	-1.000000	-1.000000	146.965517	0.000000	-1.000000	-1.000000	363638.000000	1772311385.987142
-16773.570000	-18369.405000	-20729.475000	-13033.440000	0.000000	0.000000	0.000000	0.000000	0.768315	22.822588	-1.246484	-0.011891	-0.000000	-0.000000	0.000000	0.000000	2.243220	0.320460	-0.686700	-0.004456	0.984556	0.020142	-1.000000	-1.000000	-1.000000	-1.000000	-1.000000	-1.000000	-1.000000	146.965517	0.000000	-1.000000	-1.000000	363639.000000	1772311385.991342
-16777.440000	-18369.675000	-20731.770000	-13034.835000	0.000000	0.000000	0.000000	0.000000	2.584502	9.112095	1.167519	1.535202	-0.000000	-0.000000	0.000000	0.000000	2.243220	0.320460	-0.686700	-0.004456	0.984556	0.020142	-1.000000	-1.000000	-1.000000	-1.000000	-1.000000	-1.000000	-1.000000	146.965517	0.000000	-1.000000	-1.000000	363640.000000	1772311385.991344
-16789.095000	-18348.030000	-20741.445000	-13043.970000	0.000000	0.000000	0.000000	0.000000	3.734415	-6.955960	3.476072	2.806274	-0.000000	-0.000000	0.000000	0.000000	2.243220	0.320460	-0.686700	-0.004456	0.984556	0.020142	-1.000000	-1.000000	-1.000000	-1.000000	-1.000000	-1.000000	-1.000000	146.965517	0.000000	-1.000000	-1.000000	363641.000000	1772311385.995388
-16790.490000	-18341.595000	-20740.635000	-13043.700000	0.000000	0.000000	0.000000	0.000000	2.599444	-18.378973	3.695000	2.503396	-0.000000	-0.000000	0.000000	0.000000	2.243220	0.320460	-0.686700	-0.004456	0.984556	0.020142	-1.000000	-1.000000	-1.000000	-1.000000	-1.000000	-1.000000	-1.000000	146.965517	0.000000	-1.000000	-1.000000	363642.000000	1772311385.995390
-16785.315000	-18352.080000	-20736.585000	-13041.090000	0.000000	0.000000	0.000000	0.000000	-0.344512	-21.762747	1.757443	0.724591	-0.000000	-0.000000	0.000000	0.000000	2.243220	0.320460	-0.686700	-0.004456	0.984556	0.020142	-1.000000	-1.000000	-1.000000	-1.000000	-1.000000	-1.000000	-1.000000	146.965517	0.000000	-1.000000	-1.000000	363643.000000	1772311385.999352
-16784.325000	-18337.320000	-20736.810000	-13041.900000	0.000000	0.000000	0.000000	0.000000	-2.594906	-18.434282	-0.419165	-0.963729	-0.000000	-0.000000	0.000000	0.000000	2.243220	0.320460	-0.686700	-0.004456	0.984556	0.020142	-1.000000	-1.000000	-1.000000	-1.000000	-1.000000	-1.000000	-1.000000	146.965517	0.000000	-1.000000	-1.000000	363644.000000	1772311385.999354
-16786.350000	-18321.705000	-20739.510000	-13043.835000	0.000000	0.000000	0.000000	0.000000	-2.591862	-10.951675	-1.428851	-1.496427	-0.000000	-0.000000	0.000000	0.000000	2.243220	0.320460	-0.686700	-0.004456	0.984556	0.020142	-1.000000	-1.000000	-1.000000	-1.000000	-1.000000	-1.000000	-1.000000	146.965517	0.000000	-1.000000	-1.000000	363645.000000	1772311386.003334
-16775.190000	-18319.545000	-20729.115000	-13035.015000	0.000000	0.000000	0.000000	0.000000	-0.839011	-1.379168	-1.238904	-0.944506	-0.000000	-0.000000	0.000000	0.000000	2.243220	0.320460	-0.686700	-0.004456	0.984556	0.020142	-1.000000	-1.000000	-1.000000	-1.000000	-1.000000	-1.000000	-1.000000	146.965517	0.000000	-1.000000	-1.000000	363646.000000	1772311386.003338
-16775.640000	-18332.055000	-20730.015000	-13036.725000	0.000000	0.000000	0.000000	0.000000	1.445554	6.899392	-0.223382	0.259199	-0.000000	-0.000000	0.000000	0.000000	2.075360	0.198380	-0.442540	-0.004761	0.983884	0.020874	-1.000000	-1.000000	-1.000000	-1.000000	-1.000000	-1.000000	-1.000000	146.965517	0.000000	-1.000000	-1.000000	363647.000000	1772311386.007361
-16777.890000	-18334.755000	-20732.400000	-13038.345000	0.000000	0.000000	0.000000	0.000000	2.936607	10.149260	0.865239	1.329796	-0.000000	-0.000000	0.000000	0.000000	2.075360	0.198380	-0.442540	-0.004761	0.983884	0.020874	-1.000000	-1.000000	-1.000000	-1.000000	-1.000000	-1.000000	-1.000000	146.965517	0.000000	-1.000000	-1.000000	363648.000000	1772311386.007363
-16771.320000	-18357.030000	-20723.130000	-13030.155000	0.000000	0.000000	0.000000	0.000000	2.630844	7.535156	1.123686	1.474393	-0.000000	-0.000000	0.000000	0.000000	2.075360	0.198380	-0.442540	-0.004761	0.983884	0.020874	-1.000000	-1.000000	-1.000000	-1.000000	-1.000000	-1.000000	-1.000000	146.965517	0.000000	-1.000000	-1.000000	363649.000000	1772311386.013029
-16770.330000	-18401.580000	-20720.250000	-13025.925000	0.000000	0.000000	0.000000	0.000000	0.905981	0.891575	0.662663	0.932121	-0.000000	-0.000000	0.000000	0.000000	2.075360	0.198380	-0.442540	-0.004761	0.983884	0.020874	-1.000000	-1.000000	-1.000000	-1.000000	-1.000000	-1.000000	-1.000000	146.965517	0.000000	-1.000000	-1.000000	363650.000000	1772311386.013031
-16770.240000	-18445.005000	-20718.855000	-13022.415000	0.000000	0.000000	0.000000	0.000000	-1.020025	-7.417316	0.141933	0.446720	-0.000000	-0.000000	0.000000	0.000000	2.075360	0.198380	-0.442540	-0.004761	0.983884	0.020874	-1.000000	-1.000000	-1.000000	-1.000000	-1.000000	-1.000000	-1.000000	146.965517	0.000000	-1.000000	-1.000000	363651.000000	1772311386.015346
-16766.730000	-18474.615000	-20717.415000	-13021.290000	0.000000	0.000000	0.000000	0.000000	-2.333269	-14.123042	-0.362177	0.104207	-0.000000	-0.000000	0.000000	0.000000	2.075360	0.198380	-0.442540	-0.004761	0.983884	0.020874	-1.000000	-1.000000	-1.000000	-1.000000	-1.000000	-1.000000	-1.000000	146.965517	0.000000	-1.000000	-1.000000	363652.000000	1772311386.015348
-16762.860000	-18490.140000	-20714.445000	-13020.525000	0.000000	0.000000	0.000000	0.000000	-2.654999	-14.797229	-0.996234	-0.487422	-0.000000	-0.000000	0.000000	0.000000	2.075360	0.198380	-0.442540	-0.004761	0.983884	0.020874	-1.000000	-1.000000	-1.000000	-1.000000	-1.000000	-1.000000	-1.000000	146.965517	0.000000	-1.000000	-1.000000	363653.000000	1772311386.023429
-16763.625000	-18496.170000	-20714.940000	-13021.200000	0.000000	0.000000	0.000000	0.000000	-1.994085	-6.728101	-1.598074	-1.476241	-0.000000	-0.000000	0.000000	0.000000	2.075360	0.198380	-0.442540	-0.004761	0.983884	0.020874	-1.000000	-1.000000	-1.000000	-1.000000	-1.000000	-1.000000	-1.000000	146.965517	0.000000	-1.000000	-1.000000	363654.000000	1772311386.023433
-16770.105000	-18435.105000	-20722.095000	-13028.490000	0.000000	0.000000	0.000000	0.000000	-1.072289	9.165755	-2.074279	-2.657544	-0.000000	-0.000000	0.000000	0.000000	2.075360	0.198380	-0.442540	-0.004761	0.983884	0.020874	-1.000000	-1.000000	-1.000000	-1.000000	-1.000000	-1.000000	-1.000000	146.965517	0.000000	-1.000000	-1.000000	363655.000000	1772311386.023438
-16762.545000	-18429.615000	-20715.975000	-13023.540000	0.000000	0.000000	0.000000	0.000000	-0.653564	28.415127	-2.432199	-3.569097	-0.000000	-0.000000	0.000000	0.000000	2.075360	0.198380	-0.442540	-0.004761	0.983884	0.020874	-1.000000	-1.000000	-1.000000	-1.000000	-1.000000	-1.000000	-1.000000	146.965517	0.000000	-1.000000	-1.000000	363656.000000	1772311386.023440
-16770.825000	-18481.545000	-20720.520000	-13027.500000	0.000000	0.000000	0.000000	0.000000	-0.616494	41.017692	-2.274077	-3.475072	-0.000000	-0.000000	0.000000	0.000000	2.258480	-0.076300	-0.518840	-0.005066	0.983274	0.021789	-1.000000	-1.000000	-1.000000	-1.000000	-1.000000	-1.000000	-1.000000	146.965517	0.000000	-1.000000	-1.000000	363657.000000	1772311386.031529
-16778.835000	-18521.955000	-20727.270000	-13033.890000	0.000000	0.000000	0.000000	0.000000	-0.717957	35.078084	-1.421564	-2.167102	-0.000000	-0.000000	0.000000	0.000000	2.258480	-0.076300	-0.518840	-0.005066	0.983274	0.021789	-1.000000	-1.000000	-1.000000	-1.000000	-1.000000	-1.000000	-1.000000	146.965517	0.000000	-1.000000	-1.000000	363658.000000	1772311386.031531
-16780.095000	-18514.665000	-20728.665000	-13034.205000	0.000000	0.000000	0.000000	0.000000	-1.079881	10.196854	-0.442959	-0.406269	-0.000000	-0.000000	0.000000	0.000000	2.258480	-0.076300	-0.518840	-0.005066	0.983274	0.021789	-1.000000	-1.000000	-1.000000	-1.000000	-1.000000	-1.000000	-1.000000	146.965517	0.000000	-1.000000	-1.000000	363659.000000	1772311386.031535
-16756.740000	-18495.630000	-20705.940000	-13013.415000	0.000000	0.000000	0.000000	0.000000	-0.818647	-17.961212	0.748039	1.521329	-0.000000	-0.000000	0.000000	0.000000	2.258480	-0.076300	-0.518840	-0.005066	0.983274	0.021789	-1.000000	-1.000000	-1.000000	-1.000000	-1.000000	-1.000000	-1.000000	146.965517	0.000000	-1.000000	-1.000000	363660.000000	1772311386.031537
-16759.935000	-18507.870000	-20709.990000	-13017.960000	0.000000	0.000000	0.000000	0.000000	1.485906	-31.999787	3.006854	4.052957	-0.000000	-0.000000	0.000000	0.000000	2.258480	-0.076300	-0.518840	-0.005066	0.983274	0.021789	-1.000000	-1.000000	-1.000000	-1.000000	-1.000000	-1.000000	-1.000000	146.965517	0.000000	-1.000000	-1.000000	363661.000000	1772311386.035498
-16770.015000	-18496.080000	-20721.870000	-13027.815000	0.000000	0.000000	0.000000	0.000000	4.683451	-27.631852	5.276329	6.045827	-0.000000	-0.000000	0.000000	0.000000	2.258480	-0.076300	-0.518840	-0.005066	0.983274	0.021789	-1.000000	-1.000000	-1.000000	-1.000000	-1.000000	-1.000000	-1.000000	146.965517	0.000000	-1.000000	-1.000000	363662.000000	1772311386.035501
-16773.660000	-18454.950000	-20726.055000	-13032.630000	0.000000	0.000000	0.000000	0.000000	5.406358	-11.801216	4.773411	5.076174	-0.000000	-0.000000	0.000000	0.000000	2.258480	-0.076300	-0.518840	-0.005066	0.983274	0.021789	-1.000000	-1.000000	-1.000000	-1.000000	-1.000000	-1.000000	-1.000000	146.965517	0.000000	-1.000000	-1.000000	363663.000000	1772311386.039417
-16766.640000	-18462.600000	-20717.820000	-13024.350000	0.000000	0.000000	0.000000	0.000000	2.586802	6.092120	1.144781	1.118284	-0.000000	-0.000000	0.000000	0.000000	2.258480	-0.076300	-0.518840	-0.005066	0.983274	0.021789	-1.000000	-1.000000	-1.000000	-1.000000	-1.000000	-1.000000	-1.000000	146.965517	0.000000	-1.000000	-1.000000	363664.000000	1772311386.039420
-16759.800000	-18504.990000	-20708.955000	-13016.025000	0.000000	0.000000	0.000000	0.000000	-1.125320	16.461115	-2.462174	-2.668749	-0.000000	-0.000000	0.000000	0.000000	2.258480	-0.076300	-0.518840	-0.005066	0.983274	0.021789	-1.000000	-1.000000	-1.000000	-1.000000	-1.000000	-1.000000	-1.000000	146.965517	0.000000	-1.000000	-1.000000	363665.000000	1772311386.043535
-16766.730000	-18506.070000	-20715.840000	-13022.730000	0.000000	0.000000	0.000000	0.000000	-2.925695	12.922249	-3.303152	-3.626924	-0.000000	-0.000000	0.000000	0.000000	2.258480	-0.076300	-0.518840	-0.005066	0.983274	0.021789	-1.000000	-1.000000	-1.000000	-1.000000	-1.000000	-1.000000	-1.000000	146.965517	0.000000	-1.000000	-1.000000	363666.000000	1772311386.043538
-16772.670000	-18487.665000	-20722.140000	-13029.660000	0.000000	0.000000	0.000000	0.000000	-2.836771	-0.381257	-2.061209	-2.453894	-0.000000	-0.000000	0.000000	0.000000	2.762060	0.045780	-0.457800	-0.005371	0.983823	0.022888	-1.000000	-1.000000	-1.000000	-1.000000	-1.000000	-1.000000	-1.000000	146.965517	0.000000	-1.000000	-1.000000	363667.000000	1772311386.047702
-16771.410000	-18480.960000	-20720.925000	-13028.805000	0.000000	0.000000	0.000000	0.000000	-2.386358	-11.482982	-1.020619	-1.416221	-0.000000	-0.000000	0.000000	0.000000	2.762060	0.045780	-0.457800	-0.005371	0.983823	0.022888	-1.000000	-1.000000	-1.000000	-1.000000	-1.000000	-1.000000	-1.000000	146.965517	0.000000	-1.000000	-1.000000	363668.000000	1772311386.047705
-16771.320000	-18476.370000	-20721.015000	-13028.040000	0.000000	0.000000	0.000000	0.000000	-2.023762	-12.670108	-0.893310	-1.202456	-0.000000	-0.000000	0.000000	0.000000	2.762060	0.045780	-0.457800	-0.005371	0.983823	0.022888	-1.000000	-1.000000	-1.000000	-1.000000	-1.000000	-1.000000	-1.000000	146.965517	0.000000	-1.000000	-1.000000	363669.000000	1772311386.055428
-16771.230000	-18476.055000	-20721.915000	-13028.130000	0.000000	0.000000	0.000000	0.000000	-1.215315	-5.792541	-0.865966	-0.951632	-0.000000	-0.000000	0.000000	0.000000	2.762060	0.045780	-0.457800	-0.005371	0.983823	0.022888	-1.000000	-1.000000	-1.000000	-1.000000	-1.000000	-1.000000	-1.000000	146.965517	0.000000	-1.000000	-1.000000	363670.000000	1772311386.055431
-16766.865000	-18492.615000	-20716.695000	-13024.440000	0.000000	0.000000	0.000000	0.000000	0.245919	2.184762	-0.237117	-0.015345	-0.000000	-0.000000	0.000000	0.000000	2.762060	0.045780	-0.457800	-0.005371	0.983823	0.022888	-1.000000	-1.000000	-1.000000	-1.000000	-1.000000	-1.000000	-1.000000	146.965517	0.000000	-1.000000	-1.000000	363671.000000	1772311386.055434
-16772.265000	-18491.040000	-20719.755000	-13027.140000	0.000000	0.000000	0.000000	0.000000	1.851600	5.582817	0.959967	1.355797	-0.000000	-0.000000	0.000000	0.000000	2.762060	0.045780	-0.457800	-0.005371	0.983823	0.022888	-1.000000	-1.000000	-1.000000	-1.000000	-1.000000	-1.000000	-1.000000	146.965517	0.000000	-1.000000	-1.000000	363672.000000	1772311386.055436
-16777.980000	-18470.700000	-20725.155000	-13033.845000	0.000000	0.000000	0.000000	0.000000	2.549710	4.214344	1.899892	2.192849	-0.000000	-0.000000	0.000000	0.000000	2.762060	0.045780	-0.457800	-0.005371	0.983823	0.022888	-1.000000	-1.000000	-1.000000	-1.000000	-1.000000	-1.000000	-1.000000	146.965517	0.000000	-1.000000	-1.000000	363673.000000	1772311386.059534
-16781.085000	-18460.980000	-20727.990000	-13036.770000	0.000000	0.000000	0.000000	0.000000	1.626793	2.251199	1.613844	1.609776	-0.000000	-0.000000	0.000000	0.000000	2.762060	0.045780	-0.457800	-0.005371	0.983823	0.022888	-1.000000	-1.000000	-1.000000	-1.000000	-1.000000	-1.000000	-1.000000	146.965517	0.000000	-1.000000	-1.000000	363674.000000	1772311386.059537
-16778.205000	-18435.915000	-20723.535000	-13034.655000	0.000000	0.000000	0.000000	0.000000	-0.218745	2.843324	0.292490	-0.029766	-0.000000	-0.000000	0.000000	0.000000	2.762060	0.045780	-0.457800	-0.005371	0.983823	0.022888	-1.000000	-1.000000	-1.000000	-1.000000	-1.000000	-1.000000	-1.000000	146.965517	0.000000	-1.000000	-1.000000	363675.000000	1772311386.063477
-16778.295000	-18414.540000	-20725.020000	-13034.970000	0.000000	0.000000	0.000000	0.000000	-1.381904	5.604661	-0.768675	-1.279327	-0.000000	-0.000000	0.000000	0.000000	2.762060	0.045780	-0.457800	-0.005371	0.983823	0.022888	-1.000000	-1.000000	-1.000000	-1.000000	-1.000000	-1.000000	-1.000000	146.965517	0.000000	-1.000000	-1.000000	363676.000000	1772311386.063480
-16779.915000	-18436.455000	-20729.070000	-13037.265000	0.000000	0.000000	0.000000	0.000000	-1.051885	7.351490	-0.830209	-1.219030	-0.000000	-0.000000	0.000000	0.000000	3.540320	-0.106820	-0.289940	-0.004578	0.983030	0.022461	-1.000000	-1.000000	-1.000000	-1.000000	-1.000000	-1.000000	-1.000000	146.965517	0.000000	-1.000000	-1.000000	363677.000000	1772311386.067557
-16784.010000	-18418.320000	-20735.190000	-13042.755000	0.000000	0.000000	0.000000	0.000000	0.091912	4.420723	-0.468362	-0.330997	-0.000000	-0.000000	0.000000	0.000000	3.540320	-0.106820	-0.289940	-0.004578	0.983030	0.022461	-1.000000	-1.000000	-1.000000	-1.000000	-1.000000	-1.000000	-1.000000	146.965517	0.000000	-1.000000	-1.000000	363678.000000	1772311386.067561
-16778.205000	-18362.115000	-20729.250000	-13037.130000	0.000000	0.000000	0.000000	0.000000	0.989462	-1.850317	-0.339763	0.458204	-0.000000	-0.000000	0.000000	0.000000	3.540320	-0.106820	-0.289940	-0.004578	0.983030	0.022461	-1.000000	-1.000000	-1.000000	-1.000000	-1.000000	-1.000000	-1.000000	146.965517	0.000000	-1.000000	-1.000000	363679.000000	1772311386.071573
-16779.015000	-18321.480000	-20729.610000	-13037.355000	0.000000	0.000000	0.000000	0.000000	1.380674	-4.753274	-0.127645	0.975551	-0.000000	-0.000000	0.000000	0.000000	3.540320	-0.106820	-0.289940	-0.004578	0.983030	0.022461	-1.000000	-1.000000	-1.000000	-1.000000	-1.000000	-1.000000	-1.000000	146.965517	0.000000	-1.000000	-1.000000	363680.000000	1772311386.071581
-16783.695000	-18279.855000	-20734.290000	-13042.305000	0.000000	0.000000	0.000000	0.000000	1.341352	-0.784326	0.505324	1.320887	-0.000000	-0.000000	0.000000	0.000000	3.540320	-0.106820	-0.289940	-0.004578	0.983030	0.022461	-1.000000	-1.000000	-1.000000	-1.000000	-1.000000	-1.000000	-1.000000	146.965517	0.000000	-1.000000	-1.000000	363681.000000	1772311386.075537
-16788.915000	-18243.450000	-20739.330000	-13047.345000	0.000000	0.000000	0.000000	0.000000	0.579964	6.073240	0.932661	1.050617	-0.000000	-0.000000	0.000000	0.000000	3.540320	-0.106820	-0.289940	-0.004578	0.983030	0.022461	-1.000000	-1.000000	-1.000000	-1.000000	-1.000000	-1.000000	-1.000000	146.965517	0.000000	-1.000000	-1.000000	363682.000000	1772311386.075540
-16791.480000	-18243.945000	-20740.320000	-13047.255000	0.000000	0.000000	0.000000	0.000000	-0.927396	8.772526	0.505482	-0.068182	-0.000000	-0.000000	0.000000	0.000000	3.540320	-0.106820	-0.289940	-0.004578	0.983030	0.022461	-1.000000	-1.000000	-1.000000	-1.000000	-1.000000	-1.000000	-1.000000	146.965517	0.000000	-1.000000	-1.000000	363683.000000	1772311386.081055
-16790.715000	-18238.680000	-20739.420000	-13045.320000	0.000000	0.000000	0.000000	0.000000	-2.320254	2.736442	-0.363394	-1.240726	-0.000000	-0.000000	0.000000	0.000000	3.540320	-0.106820	-0.289940	-0.004578	0.983030	0.022461	-1.000000	-1.000000	-1.000000	-1.000000	-1.000000	-1.000000	-1.000000	146.965517	0.000000	-1.000000	-1.000000	363684.000000	1772311386.081057
-16783.920000	-18237.690000	-20732.580000	-13039.065000	0.000000	0.000000	0.000000	0.000000	-2.370840	-10.409579	-0.594823	-1.299851	-0.000000	-0.000000	0.000000	0.000000	3.540320	-0.106820	-0.289940	-0.004578	0.983030	0.022461	-1.000000	-1.000000	-1.000000	-1.000000	-1.000000	-1.000000	-1.000000	146.965517	0.000000	-1.000000	-1.000000	363685.000000	1772311386.084939
-16782.480000	-18231.120000	-20732.400000	-13038.120000	0.000000	0.000000	0.000000	0.000000	-0.599453	-23.294677	0.371367	0.064245	-0.000000	-0.000000	0.000000	0.000000	3.540320	-0.106820	-0.289940	-0.004578	0.983030	0.022461	-1.000000	-1.000000	-1.000000	-1.000000	-1.000000	-1.000000	-1.000000	146.965517	0.000000	-1.000000	-1.000000	363686.000000	1772311386.084942
-16775.775000	-18249.120000	-20728.215000	-13034.790000	0.000000	0.000000	0.000000	0.000000	2.095353	-28.637304	1.888727	1.892524	-0.000000	-0.000000	0.000000	0.000000	3.906560	0.106820	-0.473060	-0.003906	0.983396	0.021240	-1.000000	-1.000000	-1.000000	-1.000000	-1.000000	-1.000000	-1.000000	146.965517	0.000000	-1.000000	-1.000000	363687.000000	1772311386.087533
-16776.720000	-18253.620000	-20728.215000	-13035.330000	0.000000	0.000000	0.000000	0.000000	4.064353	-24.431639	2.722873	2.795071	-0.000000	-0.000000	0.000000	0.000000	3.906560	0.106820	-0.473060	-0.003906	0.983396	0.021240	-1.000000	-1.000000	-1.000000	-1.000000	-1.000000	-1.000000	-1.000000	146.965517	0.000000	-1.000000	-1.000000	363688.000000	1772311386.087537
-16779.870000	-18243.990000	-20732.580000	-13040.280000	0.000000	0.000000	0.000000	0.000000	3.966084	-13.075671	2.046879	1.969979	-0.000000	-0.000000	0.000000	0.000000	3.906560	0.106820	-0.473060	-0.003906	0.983396	0.021240	-1.000000	-1.000000	-1.000000	-1.000000	-1.000000	-1.000000	-1.000000	146.965517	0.000000	-1.000000	-1.000000	363689.000000	1772311386.091627
-16789.320000	-18214.470000	-20741.400000	-13049.685000	0.000000	0.000000	0.000000	0.000000	1.406736	2.274234	-0.252563	-0.531629	-0.000000	-0.000000	0.000000	0.000000	3.906560	0.106820	-0.473060	-0.003906	0.983396	0.021240	-1.000000	-1.000000	-1.000000	-1.000000	-1.000000	-1.000000	-1.000000	146.965517	0.000000	-1.000000	-1.000000	363690.000000	1772311386.091629
-16792.830000	-18203.220000	-20742.030000	-13048.065000	0.000000	0.000000	0.000000	0.000000	-2.665017	18.149283	-3.356008	-3.663410	-0.000000	-0.000000	0.000000	0.000000	3.906560	0.106820	-0.473060	-0.003906	0.983396	0.021240	-1.000000	-1.000000	-1.000000	-1.000000	-1.000000	-1.000000	-1.000000	146.965517	0.000000	-1.000000	-1.000000	363691.000000	1772311386.095552
-16789.050000	-18191.115000	-20736.945000	-13043.340000	0.000000	0.000000	0.000000	0.000000	-6.009143	29.418511	-5.393908	-5.406107	-0.000000	-0.000000	0.000000	0.000000	3.906560	0.106820	-0.473060	-0.003906	0.983396	0.021240	-1.000000	-1.000000	-1.000000	-1.000000	-1.000000	-1.000000	-1.000000	146.965517	0.000000	-1.000000	-1.000000	363692.000000	1772311386.095555
-16787.295000	-18146.205000	-20738.925000	-13046.445000	0.000000	0.000000	0.000000	0.000000	-6.339591	31.868278	-4.704556	-4.259781	-0.000000	-0.000000	0.000000	0.000000	3.906560	0.106820	-0.473060	-0.003906	0.983396	0.021240	-1.000000	-1.000000	-1.000000	-1.000000	-1.000000	-1.000000	-1.000000	146.965517	0.000000	-1.000000	-1.000000	363693.000000	1772311386.099519
-16791.030000	-18100.215000	-20745.135000	-13052.430000	0.000000	0.000000	0.000000	0.000000	-3.358447	26.410088	-1.719688	-1.044785	-0.000000	-0.000000	0.000000	0.000000	3.906560	0.106820	-0.473060	-0.003906	0.983396	0.021240	-1.000000	-1.000000	-1.000000	-1.000000	-1.000000	-1.000000	-1.000000	146.965517	0.000000	-1.000000	-1.000000	363694.000000	1772311386.099522
-16786.755000	-18054.540000	-20740.095000	-13047.390000	0.000000	0.000000	0.000000	0.000000	0.948057	17.474582	1.490894	2.010937	-0.000000	-0.000000	0.000000	0.000000	3.906560	0.106820	-0.473060	-0.003906	0.983396	0.021240	-1.000000	-1.000000	-1.000000	-1.000000	-1.000000	-1.000000	-1.000000	146.965517	0.000000	-1.000000	-1.000000	363695.000000	1772311386.103588
-16784.730000	-18047.070000	-20736.270000	-13042.440000	0.000000	0.000000	0.000000	0.000000	4.330695	7.571533	3.572919	3.758454	-0.000000	-0.000000	0.000000	0.000000	3.906560	0.106820	-0.473060	-0.003906	0.983396	0.021240	-1.000000	-1.000000	-1.000000	-1.000000	-1.000000	-1.000000	-1.000000	146.965517	0.000000	-1.000000	-1.000000	363696.000000	1772311386.103591
-16788.960000	-18064.935000	-20745.090000	-13049.955000	0.000000	0.000000	0.000000	0.000000	5.598010	-4.594026	4.268026	4.240393	-0.000000	-0.000000	0.000000	0.000000	3.204600	0.015260	-0.518840	-0.004639	0.983579	0.020142	-1.000000	-1.000000	-1.000000	-1.000000	-1.000000	-1.000000	-1.000000	146.965517	0.000000	-1.000000	-1.000000	363697.000000	1772311386.112292
-16787.655000	-18087.570000	-20738.880000	-13044.420000	0.000000	0.000000	0.000000	0.000000	4.505841	-20.313487	3.455509	3.441262	-0.000000	-0.000000	0.000000	0.000000	3.204600	0.015260	-0.518840	-0.004639	0.983579	0.020142	-1.000000	-1.000000	-1.000000	-1.000000	-1.000000	-1.000000	-1.000000	146.965517	0.000000	-1.000000	-1.000000	363698.000000	1772311386.112294
-16792.020000	-18104.940000	-20743.245000	-13050.855000	0.000000	0.000000	0.000000	0.000000	1.761180	-35.986691	1.545600	1.557549	-0.000000	-0.000000	0.000000	0.000000	3.204600	0.015260	-0.518840	-0.004639	0.983579	0.020142	-1.000000	-1.000000	-1.000000	-1.000000	-1.000000	-1.000000	-1.000000	146.965517	0.000000	-1.000000	-1.000000	363699.000000	1772311386.112301
-16796.745000	-18087.795000	-20747.340000	-13055.850000	0.000000	0.000000	0.000000	0.000000	-1.350193	-43.324667	-0.563880	-0.790192	-0.000000	-0.000000	0.000000	0.000000	3.204600	0.015260	-0.518840	-0.004639	0.983579	0.020142	-1.000000	-1.000000	-1.000000	-1.000000	-1.000000	-1.000000	-1.000000	146.965517	0.000000	-1.000000	-1.000000	363700.000000	1772311386.112303
-16800.975000	-18051.570000	-20753.010000	-13061.205000	0.000000	0.000000	0.000000	0.000000	-3.723416	-34.805876	-2.346372	-2.997911	-0.000000	-0.000000	0.000000	0.000000	3.204600	0.015260	-0.518840	-0.004639	0.983579	0.020142	-1.000000	-1.000000	-1.000000	-1.000000	-1.000000	-1.000000	-1.000000	146.965517	0.000000	-1.000000	-1.000000	363701.000000	1772311386.117960
-16788.060000	-18028.215000	-20740.320000	-13047.255000	0.000000	0.000000	0.000000	0.000000	-4.365546	-10.530254	-3.213032	-4.053487	-0.000000	-0.000000	0.000000	0.000000	3.204600	0.015260	-0.518840	-0.004639	0.983579	0.020142	-1.000000	-1.000000	-1.000000	-1.000000	-1.000000	-1.000000	-1.000000	146.965517	0.000000	-1.000000	-1.000000	363702.000000	1772311386.117963
-16785.630000	-18002.115000	-20738.925000	-13045.005000	0.000000	0.000000	0.000000	0.000000	-2.495015	19.341333	-2.232619	-2.714544	-0.000000	-0.000000	0.000000	0.000000	3.204600	0.015260	-0.518840	-0.004639	0.983579	0.020142	-1.000000	-1.000000	-1.000000	-1.000000	-1.000000	-1.000000	-1.000000	146.965517	0.000000	-1.000000	-1.000000	363703.000000	1772311386.119665
-16780.140000	-18028.035000	-20734.920000	-13040.190000	0.000000	0.000000	0.000000	0.000000	1.210864	39.913444	0.445577	0.729227	-0.000000	-0.000000	0.000000	0.000000	3.204600	0.015260	-0.518840	-0.004639	0.983579	0.020142	-1.000000	-1.000000	-1.000000	-1.000000	-1.000000	-1.000000	-1.000000	146.965517	0.000000	-1.000000	-1.000000	363704.000000	1772311386.119668
-16776.225000	-18101.115000	-20730.150000	-13036.680000	0.000000	0.000000	0.000000	0.000000	4.537788	39.468575	3.133810	4.092541	-0.000000	-0.000000	0.000000	0.000000	3.204600	0.015260	-0.518840	-0.004639	0.983579	0.020142	-1.000000	-1.000000	-1.000000	-1.000000	-1.000000	-1.000000	-1.000000	146.965517	0.000000	-1.000000	-1.000000	363705.000000	1772311386.123734
-16778.205000	-18134.865000	-20729.790000	-13037.670000	0.000000	0.000000	0.000000	0.000000	5.472877	16.753698	4.170627	5.223133	-0.000000	-0.000000	0.000000	0.000000	3.204600	0.015260	-0.518840	-0.004639	0.983579	0.020142	-1.000000	-1.000000	-1.000000	-1.000000	-1.000000	-1.000000	-1.000000	146.965517	0.000000	-1.000000	-1.000000	363706.000000	1772311386.123737
-16783.110000	-18130.545000	-20733.570000	-13041.720000	0.000000	0.000000	0.000000	0.000000	3.357848	-14.524085	2.925205	3.397941	-0.000000	-0.000000	0.000000	0.000000	2.105880	-0.045780	-0.793520	-0.004272	0.984189	0.018921	-1.000000	-1.000000	-1.000000	-1.000000	-1.000000	-1.000000	-1.000000	146.965517	0.000000	-1.000000	-1.000000	363707.000000	1772311386.129190
-16782.705000	-18135.900000	-20733.165000	-13041.180000	0.000000	0.000000	0.000000	0.000000	-0.841991	-33.584881	-0.112204	-0.472368	-0.000000	-0.000000	0.000000	0.000000	2.105880	-0.045780	-0.793520	-0.004272	0.984189	0.018921	-1.000000	-1.000000	-1.000000	-1.000000	-1.000000	-1.000000	-1.000000	146.965517	0.000000	-1.000000	-1.000000	363708.000000	1772311386.129195
-16776.540000	-18172.485000	-20726.280000	-13032.090000	0.000000	0.000000	0.000000	0.000000	-4.733347	-30.102726	-3.267739	-4.103905	-0.000000	-0.000000	0.000000	0.000000	2.105880	-0.045780	-0.793520	-0.004272	0.984189	0.018921	-1.000000	-1.000000	-1.000000	-1.000000	-1.000000	-1.000000	-1.000000	146.965517	0.000000	-1.000000	-1.000000	363709.000000	1772311386.131734
-16767.540000	-18203.400000	-20717.280000	-13022.190000	0.000000	0.000000	0.000000	0.000000	-5.830540	-11.306368	-4.447712	-5.068778	-0.000000	-0.000000	0.000000	0.000000	2.105880	-0.045780	-0.793520	-0.004272	0.984189	0.018921	-1.000000	-1.000000	-1.000000	-1.000000	-1.000000	-1.000000	-1.000000	146.965517	0.000000	-1.000000	-1.000000	363710.000000	1772311386.131737
-16770.690000	-18207.540000	-20722.275000	-13027.365000	0.000000	0.000000	0.000000	0.000000	-3.603858	8.643617	-3.007702	-2.936009	-0.000000	-0.000000	0.000000	0.000000	2.105880	-0.045780	-0.793520	-0.004272	0.984189	0.018921	-1.000000	-1.000000	-1.000000	-1.000000	-1.000000	-1.000000	-1.000000	146.965517	0.000000	-1.000000	-1.000000	363711.000000	1772311386.135681
-16769.340000	-18202.275000	-20722.410000	-13028.445000	0.000000	0.000000	0.000000	0.000000	-0.074081	21.553642	-0.590502	0.049861	-0.000000	-0.000000	0.000000	0.000000	2.105880	-0.045780	-0.793520	-0.004272	0.984189	0.018921	-1.000000	-1.000000	-1.000000	-1.000000	-1.000000	-1.000000	-1.000000	146.965517	0.000000	-1.000000	-1.000000	363712.000000	1772311386.135684
-16767.720000	-18170.190000	-20721.645000	-13028.895000	0.000000	0.000000	0.000000	0.000000	2.254104	27.296091	0.769765	1.384412	-0.000000	-0.000000	0.000000	0.000000	2.105880	-0.045780	-0.793520	-0.004272	0.984189	0.018921	-1.000000	-1.000000	-1.000000	-1.000000	-1.000000	-1.000000	-1.000000	146.965517	0.000000	-1.000000	-1.000000	363713.000000	1772311386.139623
-16770.690000	-18147.465000	-20724.840000	-13030.740000	0.000000	0.000000	0.000000	0.000000	2.463659	28.611623	0.608889	0.668447	-0.000000	-0.000000	0.000000	0.000000	2.105880	-0.045780	-0.793520	-0.004272	0.984189	0.018921	-1.000000	-1.000000	-1.000000	-1.000000	-1.000000	-1.000000	-1.000000	146.965517	0.000000	-1.000000	-1.000000	363714.000000	1772311386.139625
-16773.885000	-18123.525000	-20728.395000	-13034.250000	0.000000	0.000000	0.000000	0.000000	1.044291	26.409039	-0.385803	-0.899090	-0.000000	-0.000000	0.000000	0.000000	2.105880	-0.045780	-0.793520	-0.004272	0.984189	0.018921	-1.000000	-1.000000	-1.000000	-1.000000	-1.000000	-1.000000	-1.000000	146.965517	0.000000	-1.000000	-1.000000	363715.000000	1772311386.143690
-16779.195000	-18108.945000	-20733.165000	-13039.200000	0.000000	0.000000	0.000000	0.000000	-1.016536	19.359659	-1.426964	-2.103432	-0.000000	-0.000000	0.000000	0.000000	2.105880	-0.045780	-0.793520	-0.004272	0.984189	0.018921	-1.000000	-1.000000	-1.000000	-1.000000	-1.000000	-1.000000	-1.000000	146.965517	0.000000	-1.000000	-1.000000	363716.000000	1772311386.143695
-16780.590000	-18120.600000	-20733.480000	-13039.155000	0.000000	0.000000	0.000000	0.000000	-2.641407	6.444920	-1.880884	-2.312939	-0.000000	-0.000000	0.000000	0.000000	2.014320	-0.274680	-0.610400	-0.004578	0.983884	0.020508	-1.000000	-1.000000	-1.000000	-1.000000	-1.000000	-1.000000	-1.000000	146.965517	0.000000	-1.000000	-1.000000	363717.000000	1772311386.148732
-16773.435000	-18142.470000	-20726.280000	-13033.350000	0.000000	0.000000	0.000000	0.000000	-2.795783	-11.192370	-1.160309	-1.216346	-0.000000	-0.000000	0.000000	0.000000	2.014320	-0.274680	-0.610400	-0.004578	0.983884	0.020508	-1.000000	-1.000000	-1.000000	-1.000000	-1.000000	-1.000000	-1.000000	146.965517	0.000000	-1.000000	-1.000000	363718.000000	1772311386.148737
-16774.380000	-18163.620000	-20726.955000	-13033.170000	0.000000	0.000000	0.000000	0.000000	-0.984670	-29.338630	0.911859	1.102265	-0.000000	-0.000000	0.000000	0.000000	2.014320	-0.274680	-0.610400	-0.004578	0.983884	0.020508	-1.000000	-1.000000	-1.000000	-1.000000	-1.000000	-1.000000	-1.000000	146.965517	0.000000	-1.000000	-1.000000	363719.000000	1772311386.151802
-16784.370000	-18150.615000	-20737.800000	-13043.205000	0.000000	0.000000	0.000000	0.000000	1.711646	-40.763951	3.169272	3.439887	-0.000000	-0.000000	0.000000	0.000000	2.014320	-0.274680	-0.610400	-0.004578	0.983884	0.020508	-1.000000	-1.000000	-1.000000	-1.000000	-1.000000	-1.000000	-1.000000	146.965517	0.000000	-1.000000	-1.000000	363720.000000	1772311386.151804
-16787.295000	-18146.970000	-20740.230000	-13045.590000	0.000000	0.000000	0.000000	0.000000	3.122591	-38.610151	3.652481	3.966029	-0.000000	-0.000000	0.000000	0.000000	2.014320	-0.274680	-0.610400	-0.004578	0.983884	0.020508	-1.000000	-1.000000	-1.000000	-1.000000	-1.000000	-1.000000	-1.000000	146.965517	0.000000	-1.000000	-1.000000	363721.000000	1772311386.155797
-16774.335000	-18151.290000	-20725.470000	-13031.955000	0.000000	0.000000	0.000000	0.000000	2.609467	-22.510064	2.189409	2.520185	-0.000000	-0.000000	0.000000	0.000000	2.014320	-0.274680	-0.610400	-0.004578	0.983884	0.020508	-1.000000	-1.000000	-1.000000	-1.000000	-1.000000	-1.000000	-1.000000	146.965517	0.000000	-1.000000	-1.000000	363722.000000	1772311386.155801
-16762.545000	-18146.970000	-20714.130000	-13020.435000	0.000000	0.000000	0.000000	0.000000	1.976569	-0.228795	1.038417	1.245368	-0.000000	-0.000000	0.000000	0.000000	2.014320	-0.274680	-0.610400	-0.004578	0.983884	0.020508	-1.000000	-1.000000	-1.000000	-1.000000	-1.000000	-1.000000	-1.000000	146.965517	0.000000	-1.000000	-1.000000	363723.000000	1772311386.159728
-16764.705000	-18144.720000	-20716.200000	-13023.720000	0.000000	0.000000	0.000000	0.000000	2.630494	18.284503	1.682141	1.614556	-0.000000	-0.000000	0.000000	0.000000	2.014320	-0.274680	-0.610400	-0.004578	0.983884	0.020508	-1.000000	-1.000000	-1.000000	-1.000000	-1.000000	-1.000000	-1.000000	146.965517	0.000000	-1.000000	-1.000000	363724.000000	1772311386.159732
-16774.920000	-18156.870000	-20724.795000	-13032.045000	0.000000	0.000000	0.000000	0.000000	3.175615	26.760311	2.498588	2.146932	-0.000000	-0.000000	0.000000	0.000000	2.014320	-0.274680	-0.610400	-0.004578	0.983884	0.020508	-1.000000	-1.000000	-1.000000	-1.000000	-1.000000	-1.000000	-1.000000	146.965517	0.000000	-1.000000	-1.000000	363725.000000	1772311386.163795
-16771.230000	-18199.485000	-20721.240000	-13026.780000	0.000000	0.000000	0.000000	0.000000	1.456043	23.350970	1.137958	0.701741	-0.000000	-0.000000	0.000000	0.000000	2.014320	-0.274680	-0.610400	-0.004578	0.983884	0.020508	-1.000000	-1.000000	-1.000000	-1.000000	-1.000000	-1.000000	-1.000000	146.965517	0.000000	-1.000000	-1.000000	363726.000000	1772311386.163798
-16763.310000	-18234.045000	-20714.265000	-13020.255000	0.000000	0.000000	0.000000	0.000000	-1.956389	9.967144	-1.987626	-2.178118	-0.000000	-0.000000	0.000000	0.000000	2.121140	-0.061040	-0.610400	-0.003906	0.983213	0.020935	-1.000000	-1.000000	-1.000000	-1.000000	-1.000000	-1.000000	-1.000000	146.965517	0.000000	-1.000000	-1.000000	363727.000000	1772311386.167792
-16762.365000	-18212.265000	-20714.265000	-13021.425000	0.000000	0.000000	0.000000	0.000000	-4.337466	-6.274041	-4.328602	-4.121703	-0.000000	-0.000000	0.000000	0.000000	2.121140	-0.061040	-0.610400	-0.003906	0.983213	0.020935	-1.000000	-1.000000	-1.000000	-1.000000	-1.000000	-1.000000	-1.000000	146.965517	0.000000	-1.000000	-1.000000	363728.000000	1772311386.167795
-16753.905000	-18215.595000	-20703.195000	-13010.175000	0.000000	0.000000	0.000000	0.000000	-4.095494	-14.871298	-4.243483	-3.847076	-0.000000	-0.000000	0.000000	0.000000	2.121140	-0.061040	-0.610400	-0.003906	0.983213	0.020935	-1.000000	-1.000000	-1.000000	-1.000000	-1.000000	-1.000000	-1.000000	146.965517	0.000000	-1.000000	-1.000000	363729.000000	1772311386.173251
-16762.095000	-18230.580000	-20713.545000	-13017.915000	0.000000	0.000000	0.000000	0.000000	-2.014041	-11.024987	-2.236356	-1.922738	-0.000000	-0.000000	0.000000	0.000000	2.121140	-0.061040	-0.610400	-0.003906	0.983213	0.020935	-1.000000	-1.000000	-1.000000	-1.000000	-1.000000	-1.000000	-1.000000	146.965517	0.000000	-1.000000	-1.000000	363730.000000	1772311386.173254
-16771.050000	-18240.615000	-20722.905000	-13027.995000	0.000000	0.000000	0.000000	0.000000	-0.303752	-0.199831	-0.433767	-0.222200	-0.000000	-0.000000	0.000000	0.000000	2.121140	-0.061040	-0.610400	-0.003906	0.983213	0.020935	-1.000000	-1.000000	-1.000000	-1.000000	-1.000000	-1.000000	-1.000000	146.965517	0.000000	-1.000000	-1.000000	363731.000000	1772311386.177003
-16775.235000	-18226.935000	-20725.065000	-13029.615000	0.000000	0.000000	0.000000	0.000000	-0.583583	9.231858	-0.573554	-0.378317	-0.000000	-0.000000	0.000000	0.000000	2.121140	-0.061040	-0.610400	-0.003906	0.983213	0.020935	-1.000000	-1.000000	-1.000000	-1.000000	-1.000000	-1.000000	-1.000000	146.965517	0.000000	-1.000000	-1.000000	363732.000000	1772311386.177006
-16768.980000	-18238.680000	-20719.980000	-13024.035000	0.000000	0.000000	0.000000	0.000000	-2.027468	13.299540	-1.839007	-1.697850	-0.000000	-0.000000	0.000000	0.000000	2.121140	-0.061040	-0.610400	-0.003906	0.983213	0.020935	-1.000000	-1.000000	-1.000000	-1.000000	-1.000000	-1.000000	-1.000000	146.965517	0.000000	-1.000000	-1.000000	363733.000000	1772311386.183250
-16767.450000	-18243.270000	-20719.215000	-13024.305000	0.000000	0.000000	0.000000	0.000000	-2.262013	11.754304	-1.909648	-1.942474	-0.000000	-0.000000	0.000000	0.000000	2.121140	-0.061040	-0.610400	-0.003906	0.983213	0.020935	-1.000000	-1.000000	-1.000000	-1.000000	-1.000000	-1.000000	-1.000000	146.965517	0.000000	-1.000000	-1.000000	363734.000000	1772311386.183252
-16773.930000	-18250.470000	-20725.920000	-13031.955000	0.000000	0.000000	0.000000	0.000000	-0.351482	5.906000	-0.017714	-0.342796	-0.000000	-0.000000	0.000000	0.000000	2.121140	-0.061040	-0.610400	-0.003906	0.983213	0.020935	-1.000000	-1.000000	-1.000000	-1.000000	-1.000000	-1.000000	-1.000000	146.965517	0.000000	-1.000000	-1.000000	363735.000000	1772311386.183836
-16780.815000	-18248.445000	-20734.110000	-13039.425000	0.000000	0.000000	0.000000	0.000000	2.089004	-1.402376	2.199141	1.563964	-0.000000	-0.000000	0.000000	0.000000	2.121140	-0.061040	-0.610400	-0.003906	0.983213	0.020935	-1.000000	-1.000000	-1.000000	-1.000000	-1.000000	-1.000000	-1.000000	146.965517	0.000000	-1.000000	-1.000000	363736.000000	1772311386.183839
-16769.790000	-18230.715000	-20724.120000	-13028.580000	0.000000	0.000000	0.000000	0.000000	3.270588	-6.424371	3.082158	2.362629	-0.000000	-0.000000	0.000000	0.000000	2.639980	-0.030520	-0.717220	-0.004211	0.983457	0.021179	-1.000000	-1.000000	-1.000000	-1.000000	-1.000000	-1.000000	-1.000000	146.965517	0.000000	-1.000000	-1.000000	363737.000000	1772311386.187769
-16772.355000	-18224.730000	-20723.265000	-13026.915000	0.000000	0.000000	0.000000	0.000000	3.319608	-6.628421	2.980035	2.574940	-0.000000	-0.000000	0.000000	0.000000	2.639980	-0.030520	-0.717220	-0.004211	0.983457	0.021179	-1.000000	-1.000000	-1.000000	-1.000000	-1.000000	-1.000000	-1.000000	146.965517	0.000000	-1.000000	-1.000000	363738.000000	1772311386.187772
-16775.910000	-18200.295000	-20725.695000	-13030.470000	0.000000	0.000000	0.000000	0.000000	2.907380	-2.571675	2.833401	2.984159	-0.000000	-0.000000	0.000000	0.000000	2.639980	-0.030520	-0.717220	-0.004211	0.983457	0.021179	-1.000000	-1.000000	-1.000000	-1.000000	-1.000000	-1.000000	-1.000000	146.965517	0.000000	-1.000000	-1.000000	363739.000000	1772311386.191906
-16775.730000	-18154.305000	-20727.990000	-13034.970000	0.000000	0.000000	0.000000	0.000000	1.886059	3.394414	2.392672	2.907692	-0.000000	-0.000000	0.000000	0.000000	2.639980	-0.030520	-0.717220	-0.004211	0.983457	0.021179	-1.000000	-1.000000	-1.000000	-1.000000	-1.000000	-1.000000	-1.000000	146.965517	0.000000	-1.000000	-1.000000	363740.000000	1772311386.191909
-16780.275000	-18138.105000	-20731.950000	-13038.840000	0.000000	0.000000	0.000000	0.000000	0.203729	8.971339	1.033192	1.422248	-0.000000	-0.000000	0.000000	0.000000	2.639980	-0.030520	-0.717220	-0.004211	0.983457	0.021179	-1.000000	-1.000000	-1.000000	-1.000000	-1.000000	-1.000000	-1.000000	146.965517	0.000000	-1.000000	-1.000000	363741.000000	1772311386.195912
-16786.530000	-18117.450000	-20737.755000	-13044.915000	0.000000	0.000000	0.000000	0.000000	-1.671860	11.129078	-1.104010	-1.148479	-0.000000	-0.000000	0.000000	0.000000	2.639980	-0.030520	-0.717220	-0.004211	0.983457	0.021179	-1.000000	-1.000000	-1.000000	-1.000000	-1.000000	-1.000000	-1.000000	146.965517	0.000000	-1.000000	-1.000000	363742.000000	1772311386.195914
-16793.910000	-18123.435000	-20746.665000	-13053.690000	0.000000	0.000000	0.000000	0.000000	-3.253678	6.926427	-3.287268	-3.626124	-0.000000	-0.000000	0.000000	0.000000	2.639980	-0.030520	-0.717220	-0.004211	0.983457	0.021179	-1.000000	-1.000000	-1.000000	-1.000000	-1.000000	-1.000000	-1.000000	146.965517	0.000000	-1.000000	-1.000000	363743.000000	1772311386.199856
-16781.265000	-18162.000000	-20734.110000	-13040.505000	0.000000	0.000000	0.000000	0.000000	-3.778055	-4.241890	-4.384608	-4.627222	-0.000000	-0.000000	0.000000	0.000000	2.639980	-0.030520	-0.717220	-0.004211	0.983457	0.021179	-1.000000	-1.000000	-1.000000	-1.000000	-1.000000	-1.000000	-1.000000	146.965517	0.000000	-1.000000	-1.000000	363744.000000	1772311386.199859
-16764.345000	-18199.395000	-20717.595000	-13025.745000	0.000000	0.000000	0.000000	0.000000	-1.928227	-19.877767	-2.843076	-2.714245	-0.000000	-0.000000	0.000000	0.000000	2.639980	-0.030520	-0.717220	-0.004211	0.983457	0.021179	-1.000000	-1.000000	-1.000000	-1.000000	-1.000000	-1.000000	-1.000000	146.965517	0.000000	-1.000000	-1.000000	363745.000000	1772311386.203833
-16754.040000	-18220.770000	-20705.760000	-13015.305000	0.000000	0.000000	0.000000	0.000000	2.612343	-33.674677	1.796055	2.203916	-0.000000	-0.000000	0.000000	0.000000	2.639980	-0.030520	-0.717220	-0.004211	0.983457	0.021179	-1.000000	-1.000000	-1.000000	-1.000000	-1.000000	-1.000000	-1.000000	146.965517	0.000000	-1.000000	-1.000000	363746.000000	1772311386.203835
-16759.530000	-18220.770000	-20711.745000	-13018.995000	0.000000	0.000000	0.000000	0.000000	7.289034	-37.052359	6.962513	7.343518	-0.000000	-0.000000	0.000000	0.000000	3.448760	-0.122080	-0.732480	-0.004395	0.983579	0.021606	-1.000000	-1.000000	-1.000000	-1.000000	-1.000000	-1.000000	-1.000000	146.965517	0.000000	-1.000000	-1.000000	363747.000000	1772311386.208013
-16769.790000	-18210.015000	-20724.210000	-13030.110000	0.000000	0.000000	0.000000	0.000000	7.993019	-24.796761	8.245396	8.519821	-0.000000	-0.000000	0.000000	0.000000	3.448760	-0.122080	-0.732480	-0.004395	0.983579	0.021606	-1.000000	-1.000000	-1.000000	-1.000000	-1.000000	-1.000000	-1.000000	146.965517	0.000000	-1.000000	-1.000000	363748.000000	1772311386.208016
-16766.595000	-18216.495000	-20719.575000	-13028.940000	0.000000	0.000000	0.000000	0.000000	3.153029	-0.329126	3.683211	3.978315	-0.000000	-0.000000	0.000000	0.000000	3.448760	-0.122080	-0.732480	-0.004395	0.983579	0.021606	-1.000000	-1.000000	-1.000000	-1.000000	-1.000000	-1.000000	-1.000000	146.965517	0.000000	-1.000000	-1.000000	363749.000000	1772311386.212049
-16773.120000	-18211.230000	-20723.580000	-13030.515000	0.000000	0.000000	0.000000	0.000000	-4.304156	25.165107	-3.789386	-3.530158	-0.000000	-0.000000	0.000000	0.000000	3.448760	-0.122080	-0.732480	-0.004395	0.983579	0.021606	-1.000000	-1.000000	-1.000000	-1.000000	-1.000000	-1.000000	-1.000000	146.965517	0.000000	-1.000000	-1.000000	363750.000000	1772311386.212052
-16765.470000	-18240.570000	-20717.820000	-13024.575000	0.000000	0.000000	0.000000	0.000000	-9.642964	39.702533	-9.154226	-9.087479	-0.000000	-0.000000	0.000000	0.000000	3.448760	-0.122080	-0.732480	-0.004395	0.983579	0.021606	-1.000000	-1.000000	-1.000000	-1.000000	-1.000000	-1.000000	-1.000000	146.965517	0.000000	-1.000000	-1.000000	363751.000000	1772311386.215918
-16762.140000	-18276.480000	-20714.490000	-13021.110000	0.000000	0.000000	0.000000	0.000000	-9.901278	36.935753	-9.460538	-9.564931	-0.000000	-0.000000	0.000000	0.000000	3.448760	-0.122080	-0.732480	-0.004395	0.983579	0.021606	-1.000000	-1.000000	-1.000000	-1.000000	-1.000000	-1.000000	-1.000000	146.965517	0.000000	-1.000000	-1.000000	363752.000000	1772311386.215920
-16761.420000	-18291.465000	-20715.795000	-13023.495000	0.000000	0.000000	0.000000	0.000000	-5.415170	19.256906	-5.264551	-5.459831	-0.000000	-0.000000	0.000000	0.000000	3.448760	-0.122080	-0.732480	-0.004395	0.983579	0.021606	-1.000000	-1.000000	-1.000000	-1.000000	-1.000000	-1.000000	-1.000000	146.965517	0.000000	-1.000000	-1.000000	363753.000000	1772311386.219925
-16765.920000	-18303.705000	-20721.870000	-13027.140000	0.000000	0.000000	0.000000	0.000000	0.657871	-2.874777	0.260599	-0.001908	-0.000000	-0.000000	0.000000	0.000000	3.448760	-0.122080	-0.732480	-0.004395	0.983579	0.021606	-1.000000	-1.000000	-1.000000	-1.000000	-1.000000	-1.000000	-1.000000	146.965517	0.000000	-1.000000	-1.000000	363754.000000	1772311386.219927
-16758.405000	-18300.645000	-20711.565000	-13017.015000	0.000000	0.000000	0.000000	0.000000	4.910231	-17.459198	4.019915	3.776446	-0.000000	-0.000000	0.000000	0.000000	3.448760	-0.122080	-0.732480	-0.004395	0.983579	0.021606	-1.000000	-1.000000	-1.000000	-1.000000	-1.000000	-1.000000	-1.000000	146.965517	0.000000	-1.000000	-1.000000	363755.000000	1772311386.224009
-16762.815000	-18278.370000	-20714.175000	-13020.030000	0.000000	0.000000	0.000000	0.000000	6.058278	-18.228151	5.225177	5.109601	-0.000000	-0.000000	0.000000	0.000000	3.448760	-0.122080	-0.732480	-0.004395	0.983579	0.021606	-1.000000	-1.000000	-1.000000	-1.000000	-1.000000	-1.000000	-1.000000	146.965517	0.000000	-1.000000	-1.000000	363756.000000	1772311386.224012
-16773.840000	-18247.005000	-20725.875000	-13033.350000	0.000000	0.000000	0.000000	0.000000	4.455156	-6.630668	4.355589	4.294943	-0.000000	-0.000000	0.000000	0.000000	3.280900	0.076300	-0.778260	-0.004211	0.983762	0.020325	-1.000000	-1.000000	-1.000000	-1.000000	-1.000000	-1.000000	-1.000000	146.965517	0.000000	-1.000000	-1.000000	363757.000000	1772311386.229541
-16782.255000	-18222.345000	-20735.415000	-13043.115000	0.000000	0.000000	0.000000	0.000000	0.869012	10.019686	1.608104	1.383409	-0.000000	-0.000000	0.000000	0.000000	3.280900	0.076300	-0.778260	-0.004211	0.983762	0.020325	-1.000000	-1.000000	-1.000000	-1.000000	-1.000000	-1.000000	-1.000000	146.965517	0.000000	-1.000000	-1.000000	363758.000000	1772311386.229544
-16767.045000	-18207.765000	-20719.710000	-13027.185000	0.000000	0.000000	0.000000	0.000000	-2.825177	22.139257	-1.820139	-2.288596	-0.000000	-0.000000	0.000000	0.000000	3.280900	0.076300	-0.778260	-0.004211	0.983762	0.020325	-1.000000	-1.000000	-1.000000	-1.000000	-1.000000	-1.000000	-1.000000	146.965517	0.000000	-1.000000	-1.000000	363759.000000	1772311386.231998
-16767.090000	-18218.250000	-20720.655000	-13026.420000	0.000000	0.000000	0.000000	0.000000	-3.826666	22.406583	-3.231592	-3.703574	-0.000000	-0.000000	0.000000	0.000000	3.280900	0.076300	-0.778260	-0.004211	0.983762	0.020325	-1.000000	-1.000000	-1.000000	-1.000000	-1.000000	-1.000000	-1.000000	146.965517	0.000000	-1.000000	-1.000000	363760.000000	1772311386.232001
-16767.315000	-18214.830000	-20721.870000	-13026.825000	0.000000	0.000000	0.000000	0.000000	-1.377476	9.714401	-1.500949	-1.562214	-0.000000	-0.000000	0.000000	0.000000	3.280900	0.076300	-0.778260	-0.004211	0.983762	0.020325	-1.000000	-1.000000	-1.000000	-1.000000	-1.000000	-1.000000	-1.000000	146.965517	0.000000	-1.000000	-1.000000	363761.000000	1772311386.235790
-16770.330000	-18215.235000	-20725.380000	-13031.685000	0.000000	0.000000	0.000000	0.000000	2.113479	-9.556997	1.373593	1.913815	-0.000000	-0.000000	0.000000	0.000000	3.280900	0.076300	-0.778260	-0.004211	0.983762	0.020325	-1.000000	-1.000000	-1.000000	-1.000000	-1.000000	-1.000000	-1.000000	146.965517	0.000000	-1.000000	-1.000000	363762.000000	1772311386.235792
-16765.245000	-18223.965000	-20719.305000	-13026.555000	0.000000	0.000000	0.000000	0.000000	3.923860	-25.572189	2.966342	3.803944	-0.000000	-0.000000	0.000000	0.000000	3.280900	0.076300	-0.778260	-0.004211	0.983762	0.020325	-1.000000	-1.000000	-1.000000	-1.000000	-1.000000	-1.000000	-1.000000	146.965517	0.000000	-1.000000	-1.000000	363763.000000	1772311386.240019
-16767.765000	-18230.265000	-20719.575000	-13025.115000	0.000000	0.000000	0.000000	0.000000	3.388551	-31.654210	2.770913	3.368561	-0.000000	-0.000000	0.000000	0.000000	3.280900	0.076300	-0.778260	-0.004211	0.983762	0.020325	-1.000000	-1.000000	-1.000000	-1.000000	-1.000000	-1.000000	-1.000000	146.965517	0.000000	-1.000000	-1.000000	363764.000000	1772311386.240022
-16773.390000	-18254.160000	-20722.950000	-13028.760000	0.000000	0.000000	0.000000	0.000000	1.277479	-27.263440	1.482659	1.592218	-0.000000	-0.000000	0.000000	0.000000	3.280900	0.076300	-0.778260	-0.004211	0.983762	0.020325	-1.000000	-1.000000	-1.000000	-1.000000	-1.000000	-1.000000	-1.000000	146.965517	0.000000	-1.000000	-1.000000	363765.000000	1772311386.247248
-16768.530000	-18272.880000	-20718.045000	-13025.745000	0.000000	0.000000	0.000000	0.000000	-1.299314	-16.546535	-0.192868	-0.467847	-0.000000	-0.000000	0.000000	0.000000	3.280900	0.076300	-0.778260	-0.004211	0.983762	0.020325	-1.000000	-1.000000	-1.000000	-1.000000	-1.000000	-1.000000	-1.000000	146.965517	0.000000	-1.000000	-1.000000	363766.000000	1772311386.247252
-16765.380000	-18289.440000	-20716.290000	-13023.315000	0.000000	0.000000	0.000000	0.000000	-2.943236	-4.632447	-1.470442	-1.967305	-0.000000	-0.000000	0.000000	0.000000	2.334780	-0.045780	-0.656180	-0.004395	0.984678	0.019104	-1.000000	-1.000000	-1.000000	-1.000000	-1.000000	-1.000000	-1.000000	146.965517	0.000000	-1.000000	-1.000000	363767.000000	1772311386.247997
-16772.940000	-18290.070000	-20725.200000	-13031.235000	0.000000	0.000000	0.000000	0.000000	-2.849252	5.600161	-1.929436	-2.462537	-0.000000	-0.000000	0.000000	0.000000	2.334780	-0.045780	-0.656180	-0.004395	0.984678	0.019104	-1.000000	-1.000000	-1.000000	-1.000000	-1.000000	-1.000000	-1.000000	146.965517	0.000000	-1.000000	-1.000000	363768.000000	1772311386.248000
-16772.490000	-18261.270000	-20725.740000	-13033.080000	0.000000	0.000000	0.000000	0.000000	-1.752411	14.207277	-2.071202	-2.391836	-0.000000	-0.000000	0.000000	0.000000	2.334780	-0.045780	-0.656180	-0.004395	0.984678	0.019104	-1.000000	-1.000000	-1.000000	-1.000000	-1.000000	-1.000000	-1.000000	146.965517	0.000000	-1.000000	-1.000000	363769.000000	1772311386.252024
-16766.550000	-18231.615000	-20719.800000	-13028.580000	0.000000	0.000000	0.000000	0.000000	-0.615092	22.351333	-2.124463	-2.146056	-0.000000	-0.000000	0.000000	0.000000	2.334780	-0.045780	-0.656180	-0.004395	0.984678	0.019104	-1.000000	-1.000000	-1.000000	-1.000000	-1.000000	-1.000000	-1.000000	146.965517	0.000000	-1.000000	-1.000000	363770.000000	1772311386.252027
-16758.720000	-18231.660000	-20711.790000	-13022.640000	0.000000	0.000000	0.000000	0.000000	0.663459	28.611229	-1.282205	-1.213777	-0.000000	-0.000000	0.000000	0.000000	2.334780	-0.045780	-0.656180	-0.004395	0.984678	0.019104	-1.000000	-1.000000	-1.000000	-1.000000	-1.000000	-1.000000	-1.000000	146.965517	0.000000	-1.000000	-1.000000	363771.000000	1772311386.256010
-16775.190000	-18228.015000	-20730.825000	-13038.975000	0.000000	0.000000	0.000000	0.000000	1.958172	28.092345	0.492739	0.433905	-0.000000	-0.000000	0.000000	0.000000	2.334780	-0.045780	-0.656180	-0.004395	0.984678	0.019104	-1.000000	-1.000000	-1.000000	-1.000000	-1.000000	-1.000000	-1.000000	146.965517	0.000000	-1.000000	-1.000000	363772.000000	1772311386.256013
-16775.775000	-18258.480000	-20728.485000	-13035.195000	0.000000	0.000000	0.000000	0.000000	1.934079	17.100610	1.479922	1.451920	-0.000000	-0.000000	0.000000	0.000000	2.334780	-0.045780	-0.656180	-0.004395	0.984678	0.019104	-1.000000	-1.000000	-1.000000	-1.000000	-1.000000	-1.000000	-1.000000	146.965517	0.000000	-1.000000	-1.000000	363773.000000	1772311386.260045
-16764.345000	-18266.265000	-20715.255000	-13021.425000	0.000000	0.000000	0.000000	0.000000	0.314256	-2.268787	0.990892	1.395558	-0.000000	-0.000000	0.000000	0.000000	2.334780	-0.045780	-0.656180	-0.004395	0.984678	0.019104	-1.000000	-1.000000	-1.000000	-1.000000	-1.000000	-1.000000	-1.000000	146.965517	0.000000	-1.000000	-1.000000	363774.000000	1772311386.260047
-16766.370000	-18260.505000	-20718.090000	-13025.520000	0.000000	0.000000	0.000000	0.000000	-0.994769	-21.695901	0.627866	1.545164	-0.000000	-0.000000	0.000000	0.000000	2.334780	-0.045780	-0.656180	-0.004395	0.984678	0.019104	-1.000000	-1.000000	-1.000000	-1.000000	-1.000000	-1.000000	-1.000000	146.965517	0.000000	-1.000000	-1.000000	363775.000000	1772311386.264136
-16765.470000	-18264.105000	-20717.190000	-13023.675000	0.000000	0.000000	0.000000	0.000000	-0.736171	-31.349949	1.232786	2.218914	-0.000000	-0.000000	0.000000	0.000000	2.334780	-0.045780	-0.656180	-0.004395	0.984678	0.019104	-1.000000	-1.000000	-1.000000	-1.000000	-1.000000	-1.000000	-1.000000	146.965517	0.000000	-1.000000	-1.000000	363776.000000	1772311386.264140
-16763.670000	-18272.205000	-20714.490000	-13021.245000	0.000000	0.000000	0.000000	0.000000	0.321158	-27.445098	1.816428	2.315870	-0.000000	-0.000000	0.000000	0.000000	1.464960	-0.030520	-0.671440	-0.004272	0.984556	0.019165	-1.000000	-1.000000	-1.000000	-1.000000	-1.000000	-1.000000	-1.000000	146.965517	0.000000	-1.000000	-1.000000	363777.000000	1772311386.268151
-16758.270000	-18277.515000	-20709.990000	-13017.825000	0.000000	0.000000	0.000000	0.000000	1.125197	-14.358394	1.608349	1.368987	-0.000000	-0.000000	0.000000	0.000000	1.464960	-0.030520	-0.671440	-0.004272	0.984556	0.019165	-1.000000	-1.000000	-1.000000	-1.000000	-1.000000	-1.000000	-1.000000	146.965517	0.000000	-1.000000	-1.000000	363778.000000	1772311386.268154
-16754.715000	-18290.340000	-20708.415000	-13016.655000	0.000000	0.000000	0.000000	0.000000	1.410826	0.151061	0.804667	-0.082022	-0.000000	-0.000000	0.000000	0.000000	1.464960	-0.030520	-0.671440	-0.004272	0.984556	0.019165	-1.000000	-1.000000	-1.000000	-1.000000	-1.000000	-1.000000	-1.000000	146.965517	0.000000	-1.000000	-1.000000	363779.000000	1772311386.272047
-16753.140000	-18322.200000	-20706.840000	-13015.620000	0.000000	0.000000	0.000000	0.000000	1.249975	9.637451	-0.184452	-1.392691	-0.000000	-0.000000	0.000000	0.000000	1.464960	-0.030520	-0.671440	-0.004272	0.984556	0.019165	-1.000000	-1.000000	-1.000000	-1.000000	-1.000000	-1.000000	-1.000000	146.965517	0.000000	-1.000000	-1.000000	363780.000000	1772311386.272050
-16751.970000	-18366.930000	-20705.040000	-13014.225000	0.000000	0.000000	0.000000	0.000000	0.597784	10.767909	-1.120080	-2.219833	-0.000000	-0.000000	0.000000	0.000000	1.464960	-0.030520	-0.671440	-0.004272	0.984556	0.019165	-1.000000	-1.000000	-1.000000	-1.000000	-1.000000	-1.000000	-1.000000	146.965517	0.000000	-1.000000	-1.000000	363781.000000	1772311386.276617
-16751.250000	-18376.470000	-20704.995000	-13015.305000	0.000000	0.000000	0.000000	0.000000	-0.513135	4.855536	-1.823253	-2.470898	-0.000000	-0.000000	0.000000	0.000000	1.464960	-0.030520	-0.671440	-0.004272	0.984556	0.019165	-1.000000	-1.000000	-1.000000	-1.000000	-1.000000	-1.000000	-1.000000	146.965517	0.000000	-1.000000	-1.000000	363782.000000	1772311386.276620
-16756.380000	-18347.580000	-20709.630000	-13017.690000	0.000000	0.000000	0.000000	0.000000	-1.825477	-1.132990	-2.250892	-2.287053	-0.000000	-0.000000	0.000000	0.000000	1.464960	-0.030520	-0.671440	-0.004272	0.984556	0.019165	-1.000000	-1.000000	-1.000000	-1.000000	-1.000000	-1.000000	-1.000000	146.965517	0.000000	-1.000000	-1.000000	363783.000000	1772311386.280150
-16762.905000	-18314.820000	-20712.690000	-13020.435000	0.000000	0.000000	0.000000	0.000000	-3.104685	1.004082	-2.549883	-1.937619	-0.000000	-0.000000	0.000000	0.000000	1.464960	-0.030520	-0.671440	-0.004272	0.984556	0.019165	-1.000000	-1.000000	-1.000000	-1.000000	-1.000000	-1.000000	-1.000000	146.965517	0.000000	-1.000000	-1.000000	363784.000000	1772311386.280153
-16774.290000	-18292.140000	-20724.075000	-13030.515000	0.000000	0.000000	0.000000	0.000000	-4.198482	12.365549	-2.838334	-1.677142	-0.000000	-0.000000	0.000000	0.000000	1.464960	-0.030520	-0.671440	-0.004272	0.984556	0.019165	-1.000000	-1.000000	-1.000000	-1.000000	-1.000000	-1.000000	-1.000000	146.965517	0.000000	-1.000000	-1.000000	363785.000000	1772311386.286068
-16765.695000	-18266.040000	-20721.240000	-13029.480000	0.000000	0.000000	0.000000	0.000000	-4.514839	24.973227	-2.907793	-1.557119	-0.000000	-0.000000	0.000000	0.000000	1.464960	-0.030520	-0.671440	-0.004272	0.984556	0.019165	-1.000000	-1.000000	-1.000000	-1.000000	-1.000000	-1.000000	-1.000000	146.965517	0.000000	-1.000000	-1.000000	363786.000000	1772311386.286071
-16758.270000	-18274.905000	-20712.915000	-13021.560000	0.000000	0.000000	0.000000	0.000000	-2.776028	28.555117	-1.876872	-0.918752	-0.000000	-0.000000	0.000000	0.000000	0.259420	-0.076300	-0.717220	-0.005005	0.985166	0.019470	-1.000000	-1.000000	-1.000000	-1.000000	-1.000000	-1.000000	-1.000000	146.965517	0.000000	-1.000000	-1.000000	363787.000000	1772311386.293662
-16759.485000	-18310.815000	-20712.465000	-13018.770000	0.000000	0.000000	0.000000	0.000000	1.353479	17.429733	0.969122	1.107247	-0.000000	-0.000000	0.000000	0.000000	0.259420	-0.076300	-0.717220	-0.005005	0.985166	0.019470	-1.000000	-1.000000	-1.000000	-1.000000	-1.000000	-1.000000	-1.000000	146.965517	0.000000	-1.000000	-1.000000	363788.000000	1772311386.293665
-16757.370000	-18331.965000	-20709.225000	-13015.080000	0.000000	0.000000	0.000000	0.000000	5.808815	-6.059588	4.604514	4.042335	-0.000000	-0.000000	0.000000	0.000000	0.259420	-0.076300	-0.717220	-0.005005	0.985166	0.019470	-1.000000	-1.000000	-1.000000	-1.000000	-1.000000	-1.000000	-1.000000	146.965517	0.000000	-1.000000	-1.000000	363789.000000	1772311386.293668
-16754.535000	-18357.975000	-20705.130000	-13012.740000	0.000000	0.000000	0.000000	0.000000	7.893127	-31.399418	6.898664	6.103853	-0.000000	-0.000000	0.000000	0.000000	0.259420	-0.076300	-0.717220	-0.005005	0.985166	0.019470	-1.000000	-1.000000	-1.000000	-1.000000	-1.000000	-1.000000	-1.000000	146.965517	0.000000	-1.000000	-1.000000	363790.000000	1772311386.293670
-16745.490000	-18382.725000	-20691.405000	-13000.995000	0.000000	0.000000	0.000000	0.000000	6.838844	-45.943409	6.816614	6.048533	-0.000000	-0.000000	0.000000	0.000000	0.259420	-0.076300	-0.717220	-0.005005	0.985166	0.019470	-1.000000	-1.000000	-1.000000	-1.000000	-1.000000	-1.000000	-1.000000	146.965517	0.000000	-1.000000	-1.000000	363791.000000	1772311386.296200
-16746.255000	-18426.330000	-20689.065000	-12999.195000	0.000000	0.000000	0.000000	0.000000	3.803084	-43.572770	4.936347	4.138399	-0.000000	-0.000000	0.000000	0.000000	0.259420	-0.076300	-0.717220	-0.005005	0.985166	0.019470	-1.000000	-1.000000	-1.000000	-1.000000	-1.000000	-1.000000	-1.000000	146.965517	0.000000	-1.000000	-1.000000	363792.000000	1772311386.296203
-16754.175000	-18466.020000	-20694.915000	-13004.685000	0.000000	0.000000	0.000000	0.000000	0.027069	-27.651837	1.919548	1.094390	-0.000000	-0.000000	0.000000	0.000000	0.259420	-0.076300	-0.717220	-0.005005	0.985166	0.019470	-1.000000	-1.000000	-1.000000	-1.000000	-1.000000	-1.000000	-1.000000	146.965517	0.000000	-1.000000	-1.000000	363793.000000	1772311386.300126
-16761.780000	-18474.120000	-20698.560000	-13004.955000	0.000000	0.000000	0.000000	0.000000	-3.979430	-6.138237	-2.142661	-2.652994	-0.000000	-0.000000	0.000000	0.000000	0.259420	-0.076300	-0.717220	-0.005005	0.985166	0.019470	-1.000000	-1.000000	-1.000000	-1.000000	-1.000000	-1.000000	-1.000000	146.965517	0.000000	-1.000000	-1.000000	363794.000000	1772311386.300129
-16757.910000	-18449.955000	-20705.040000	-13010.805000	0.000000	0.000000	0.000000	0.000000	-7.301722	15.261889	-6.532896	-6.221118	-0.000000	-0.000000	0.000000	0.000000	0.259420	-0.076300	-0.717220	-0.005005	0.985166	0.019470	-1.000000	-1.000000	-1.000000	-1.000000	-1.000000	-1.000000	-1.000000	146.965517	0.000000	-1.000000	-1.000000	363795.000000	1772311386.304214
-16745.040000	-18425.205000	-20705.670000	-13015.215000	0.000000	0.000000	0.000000	0.000000	-7.946555	34.069583	-9.478138	-8.272893	-0.000000	-0.000000	0.000000	0.000000	0.259420	-0.076300	-0.717220	-0.005005	0.985166	0.019470	-1.000000	-1.000000	-1.000000	-1.000000	-1.000000	-1.000000	-1.000000	146.965517	0.000000	-1.000000	-1.000000	363796.000000	1772311386.304217
-16748.955000	-18401.085000	-20712.285000	-13023.180000	0.000000	0.000000	0.000000	0.000000	-4.739850	47.059329	-9.401561	-8.032284	-0.000000	-0.000000	0.000000	0.000000	1.434440	-0.076300	-0.350980	-0.005371	0.983396	0.021057	-1.000000	-1.000000	-1.000000	-1.000000	-1.000000	-1.000000	-1.000000	146.965517	0.000000	-1.000000	-1.000000	363797.000000	1772311386.308283
-16758.990000	-18382.680000	-20721.015000	-13019.400000	0.000000	0.000000	0.000000	0.000000	0.329787	49.289727	-6.342761	-5.543366	-0.000000	-0.000000	0.000000	0.000000	1.434440	-0.076300	-0.350980	-0.005371	0.983396	0.021057	-1.000000	-1.000000	-1.000000	-1.000000	-1.000000	-1.000000	-1.000000	146.965517	0.000000	-1.000000	-1.000000	363798.000000	1772311386.308286
-16759.935000	-18390.870000	-20718.360000	-13011.030000	0.000000	0.000000	0.000000	0.000000	3.611897	37.525909	-1.775282	-1.160296	-0.000000	-0.000000	0.000000	0.000000	1.434440	-0.076300	-0.350980	-0.005371	0.983396	0.021057	-1.000000	-1.000000	-1.000000	-1.000000	-1.000000	-1.000000	-1.000000	146.965517	0.000000	-1.000000	-1.000000	363799.000000	1772311386.312130
-16757.370000	-18412.515000	-20709.540000	-13005.045000	0.000000	0.000000	0.000000	0.000000	3.725139	13.167520	3.046682	4.323123	-0.000000	-0.000000	0.000000	0.000000	1.434440	-0.076300	-0.350980	-0.005371	0.983396	0.021057	-1.000000	-1.000000	-1.000000	-1.000000	-1.000000	-1.000000	-1.000000	146.965517	0.000000	-1.000000	-1.000000	363800.000000	1772311386.312134
-16764.300000	-18390.015000	-20709.090000	-13003.470000	0.000000	0.000000	0.000000	0.000000	2.106466	-16.184605	7.403421	9.012148	-0.000000	-0.000000	0.000000	0.000000	1.434440	-0.076300	-0.350980	-0.005371	0.983396	0.021057	-1.000000	-1.000000	-1.000000	-1.000000	-1.000000	-1.000000	-1.000000	146.965517	0.000000	-1.000000	-1.000000	363801.000000	1772311386.316175
-16784.460000	-18360.000000	-20720.025000	-13016.880000	0.000000	0.000000	0.000000	0.000000	0.094949	-37.822645	9.810532	10.316162	-0.000000	-0.000000	0.000000	0.000000	1.434440	-0.076300	-0.350980	-0.005371	0.983396	0.021057	-1.000000	-1.000000	-1.000000	-1.000000	-1.000000	-1.000000	-1.000000	146.965517	0.000000	-1.000000	-1.000000	363802.000000	1772311386.316178
-16787.430000	-18343.215000	-20722.005000	-13030.020000	0.000000	0.000000	0.000000	0.000000	-2.108115	-41.817213	8.500696	6.636362	-0.000000	-0.000000	0.000000	0.000000	1.434440	-0.076300	-0.350980	-0.005371	0.983396	0.021057	-1.000000	-1.000000	-1.000000	-1.000000	-1.000000	-1.000000	-1.000000	146.965517	0.000000	-1.000000	-1.000000	363803.000000	1772311386.322162
-16781.220000	-18347.265000	-20724.210000	-13029.390000	0.000000	0.000000	0.000000	0.000000	-3.497829	-29.532674	3.799588	-0.634242	-0.000000	-0.000000	0.000000	0.000000	1.434440	-0.076300	-0.350980	-0.005371	0.983396	0.021057	-1.000000	-1.000000	-1.000000	-1.000000	-1.000000	-1.000000	-1.000000	146.965517	0.000000	-1.000000	-1.000000	363804.000000	1772311386.322166
-16780.230000	-18360.045000	-20729.430000	-13030.695000	0.000000	0.000000	0.000000	0.000000	-2.234621	-11.939593	-1.677429	-7.162201	-0.000000	-0.000000	0.000000	0.000000	1.434440	-0.076300	-0.350980	-0.005371	0.983396	0.021057	-1.000000	-1.000000	-1.000000	-1.000000	-1.000000	-1.000000	-1.000000	146.965517	0.000000	-1.000000	-1.000000	363805.000000	1772311386.324207
-16791.345000	-18349.605000	-20736.450000	-13040.640000	0.000000	0.000000	0.000000	0.000000	1.448040	0.520606	-5.436542	-9.235169	-0.000000	-0.000000	0.000000	0.000000	1.434440	-0.076300	-0.350980	-0.005371	0.983396	0.021057	-1.000000	-1.000000	-1.000000	-1.000000	-1.000000	-1.000000	-1.000000	146.965517	0.000000	-1.000000	-1.000000	363806.000000	1772311386.324210
-16790.805000	-18350.505000	-20738.160000	-13045.770000	0.000000	0.000000	0.000000	0.000000	4.771329	5.204761	-6.517835	-6.795151	-0.000000	-0.000000	0.000000	0.000000	0.503580	0.213640	0.534100	-0.006165	0.985044	0.018982	-1.000000	-1.000000	-1.000000	-1.000000	-1.000000	-1.000000	-1.000000	146.965517	0.000000	-1.000000	-1.000000	363807.000000	1772311386.328317
-16774.245000	-18329.805000	-20726.640000	-13034.655000	0.000000	0.000000	0.000000	0.000000	5.894989	5.640372	-4.852769	-1.995529	-0.000000	-0.000000	0.000000	0.000000	0.503580	0.213640	0.534100	-0.006165	0.985044	0.018982	-1.000000	-1.000000	-1.000000	-1.000000	-1.000000	-1.000000	-1.000000	146.965517	0.000000	-1.000000	-1.000000	363808.000000	1772311386.328321
-16752.645000	-18326.115000	-20709.945000	-13018.905000	0.000000	0.000000	0.000000	0.000000	5.926473	5.934001	-0.598039	3.613614	-0.000000	-0.000000	0.000000	0.000000	0.503580	0.213640	0.534100	-0.006165	0.985044	0.018982	-1.000000	-1.000000	-1.000000	-1.000000	-1.000000	-1.000000	-1.000000	146.965517	0.000000	-1.000000	-1.000000	363809.000000	1772311386.334114
-16754.670000	-18342.900000	-20711.430000	-13020.840000	0.000000	0.000000	0.000000	0.000000	6.178514	6.789683	4.911323	8.749979	-0.000000	-0.000000	0.000000	0.000000	0.503580	0.213640	0.534100	-0.006165	0.985044	0.018982	-1.000000	-1.000000	-1.000000	-1.000000	-1.000000	-1.000000	-1.000000	146.965517	0.000000	-1.000000	-1.000000	363810.000000	1772311386.334117
-16758.450000	-18346.095000	-20713.545000	-13019.805000	0.000000	0.000000	0.000000	0.000000	5.272130	5.830148	8.439703	11.014699	-0.000000	-0.000000	0.000000	0.000000	0.503580	0.213640	0.534100	-0.006165	0.985044	0.018982	-1.000000	-1.000000	-1.000000	-1.000000	-1.000000	-1.000000	-1.000000	146.965517	0.000000	-1.000000	-1.000000	363811.000000	1772311386.336239
-16762.455000	-18319.995000	-20718.000000	-13025.070000	0.000000	0.000000	0.000000	0.000000	1.112895	2.555632	7.144823	8.448112	-0.000000	-0.000000	0.000000	0.000000	0.503580	0.213640	0.534100	-0.006165	0.985044	0.018982	-1.000000	-1.000000	-1.000000	-1.000000	-1.000000	-1.000000	-1.000000	146.965517	0.000000	-1.000000	-1.000000	363812.000000	1772311386.336241
-16760.025000	-18288.180000	-20719.170000	-13032.630000	0.000000	0.000000	0.000000	0.000000	-5.469980	0.669111	1.471862	1.738969	-0.000000	-0.000000	0.000000	0.000000	0.503580	0.213640	0.534100	-0.006165	0.985044	0.018982	-1.000000	-1.000000	-1.000000	-1.000000	-1.000000	-1.000000	-1.000000	146.965517	0.000000	-1.000000	-1.000000	363813.000000	1772311386.342037
-16743.690000	-18323.550000	-20702.160000	-13014.495000	0.000000	0.000000	0.000000	0.000000	-10.630673	2.285945	-4.852280	-5.680856	-0.000000	-0.000000	0.000000	0.000000	0.503580	0.213640	0.534100	-0.006165	0.985044	0.018982	-1.000000	-1.000000	-1.000000	-1.000000	-1.000000	-1.000000	-1.000000	146.965517	0.000000	-1.000000	-1.000000	363814.000000	1772311386.342040
-16744.590000	-18365.895000	-20703.420000	-13002.165000	0.000000	0.000000	0.000000	0.000000	-10.894157	2.697990	-7.701240	-9.299115	-0.000000	-0.000000	0.000000	0.000000	0.503580	0.213640	0.534100	-0.006165	0.985044	0.018982	-1.000000	-1.000000	-1.000000	-1.000000	-1.000000	-1.000000	-1.000000	146.965517	0.000000	-1.000000	-1.000000	363815.000000	1772311386.344344
-16770.330000	-18365.220000	-20725.605000	-13022.955000	0.000000	0.000000	0.000000	0.000000	-7.020900	-3.096755	-6.551232	-7.554198	-0.000000	-0.000000	0.000000	0.000000	0.503580	0.213640	0.534100	-0.006165	0.985044	0.018982	-1.000000	-1.000000	-1.000000	-1.000000	-1.000000	-1.000000	-1.000000	146.965517	0.000000	-1.000000	-1.000000	363816.000000	1772311386.344348
-16767.315000	-18348.390000	-20720.655000	-13031.055000	0.000000	0.000000	0.000000	0.000000	-3.131998	-11.072424	-4.407025	-3.920302	-0.000000	-0.000000	0.000000	0.000000	0.167860	1.403920	0.839300	-0.004944	0.985898	0.017334	-1.000000	-1.000000	-1.000000	-1.000000	-1.000000	-1.000000	-1.000000	146.965517	0.000000	-1.000000	-1.000000	363817.000000	1772311386.348566
-16774.470000	-18323.730000	-20727.945000	-13030.875000	0.000000	0.000000	0.000000	0.000000	-1.346879	-11.984333	-3.112404	-2.212915	-0.000000	-0.000000	0.000000	0.000000	0.167860	1.403920	0.839300	-0.004944	0.985898	0.017334	-1.000000	-1.000000	-1.000000	-1.000000	-1.000000	-1.000000	-1.000000	146.965517	0.000000	-1.000000	-1.000000	363818.000000	1772311386.348569
-16750.215000	-18334.440000	-20723.535000	-13019.175000	0.000000	0.000000	0.000000	0.000000	0.080023	-2.887498	-1.840114	-1.951699	-0.000000	-0.000000	0.000000	0.000000	0.167860	1.403920	0.839300	-0.004944	0.985898	0.017334	-1.000000	-1.000000	-1.000000	-1.000000	-1.000000	-1.000000	-1.000000	146.965517	0.000000	-1.000000	-1.000000	363819.000000	1772311386.352322
-16713.045000	-18351.495000	-20717.145000	-13017.870000	0.000000	0.000000	0.000000	0.000000	4.087155	9.060053	0.558920	-0.464195	-0.000000	-0.000000	0.000000	0.000000	0.167860	1.403920	0.839300	-0.004944	0.985898	0.017334	-1.000000	-1.000000	-1.000000	-1.000000	-1.000000	-1.000000	-1.000000	146.965517	0.000000	-1.000000	-1.000000	363820.000000	1772311386.352324
-16692.930000	-18364.860000	-20710.845000	-13014.540000	0.000000	0.000000	0.000000	0.000000	11.269885	14.188206	4.085383	2.824021	-0.000000	-0.000000	0.000000	0.000000	0.167860	1.403920	0.839300	-0.004944	0.985898	0.017334	-1.000000	-1.000000	-1.000000	-1.000000	-1.000000	-1.000000	-1.000000	146.965517	0.000000	-1.000000	-1.000000	363821.000000	1772311386.356371
-16691.355000	-18355.320000	-20705.940000	-13015.305000	0.000000	0.000000	0.000000	0.000000	17.452111	9.916000	7.386851	5.866222	-0.000000	-0.000000	0.000000	0.000000	0.167860	1.403920	0.839300	-0.004944	0.985898	0.017334	-1.000000	-1.000000	-1.000000	-1.000000	-1.000000	-1.000000	-1.000000	146.965517	0.000000	-1.000000	-1.000000	363822.000000	1772311386.356374
-16708.905000	-18333.540000	-20705.355000	-13016.655000	0.000000	0.000000	0.000000	0.000000	16.123914	2.088651	8.547271	6.459612	-0.000000	-0.000000	0.000000	0.000000	0.167860	1.403920	0.839300	-0.004944	0.985898	0.017334	-1.000000	-1.000000	-1.000000	-1.000000	-1.000000	-1.000000	-1.000000	146.965517	0.000000	-1.000000	-1.000000	363823.000000	1772311386.360411
-16771.320000	-18299.745000	-20716.830000	-13026.510000	0.000000	0.000000	0.000000	0.000000	3.833122	-1.580789	6.284972	3.966812	-0.000000	-0.000000	0.000000	0.000000	0.167860	1.403920	0.839300	-0.004944	0.985898	0.017334	-1.000000	-1.000000	-1.000000	-1.000000	-1.000000	-1.000000	-1.000000	146.965517	0.000000	-1.000000	-1.000000	363824.000000	1772311386.360413
-16843.230000	-18283.230000	-20706.480000	-13020.840000	0.000000	0.000000	0.000000	0.000000	-17.092941	1.481563	1.086164	-0.400287	-0.000000	-0.000000	0.000000	0.000000	0.167860	1.403920	0.839300	-0.004944	0.985898	0.017334	-1.000000	-1.000000	-1.000000	-1.000000	-1.000000	-1.000000	-1.000000	146.965517	0.000000	-1.000000	-1.000000	363825.000000	1772311386.364386
-16884.765000	-18281.880000	-20734.830000	-13014.495000	0.000000	0.000000	0.000000	0.000000	-38.096790	6.877899	-4.800857	-3.971017	-0.000000	-0.000000	0.000000	0.000000	0.167860	1.403920	0.839300	-0.004944	0.985898	0.017334	-1.000000	-1.000000	-1.000000	-1.000000	-1.000000	-1.000000	-1.000000	146.965517	0.000000	-1.000000	-1.000000	363826.000000	1772311386.364389
-16863.120000	-18294.210000	-20760.615000	-13005.495000	0.000000	0.000000	0.000000	0.000000	-46.033713	7.519277	-9.727684	-4.363568	-0.000000	-0.000000	0.000000	0.000000	0.305200	1.800680	2.227960	-0.005371	0.987119	0.018616	-1.000000	-1.000000	-1.000000	-1.000000	-1.000000	-1.000000	-1.000000	146.965517	0.000000	-1.000000	-1.000000	363827.000000	1772311386.368430
-16788.240000	-18295.425000	-20723.400000	-12978.720000	0.000000	0.000000	0.000000	0.000000	-29.831291	0.305895	-12.175468	-1.180226	-0.000000	-0.000000	0.000000	0.000000	0.305200	1.800680	2.227960	-0.005371	0.987119	0.018616	-1.000000	-1.000000	-1.000000	-1.000000	-1.000000	-1.000000	-1.000000	146.965517	0.000000	-1.000000	-1.000000	363828.000000	1772311386.368433
-16750.215000	-18288.135000	-20699.280000	-12980.565000	0.000000	0.000000	0.000000	0.000000	9.077066	-10.768303	-8.452804	3.789305	-0.000000	-0.000000	0.000000	0.000000	0.305200	1.800680	2.227960	-0.005371	0.987119	0.018616	-1.000000	-1.000000	-1.000000	-1.000000	-1.000000	-1.000000	-1.000000	146.965517	0.000000	-1.000000	-1.000000	363829.000000	1772311386.372747
-16746.480000	-18266.940000	-20706.120000	-13020.165000	0.000000	0.000000	0.000000	0.000000	51.782807	-17.865890	2.266671	6.239168	-0.000000	-0.000000	0.000000	0.000000	0.305200	1.800680	2.227960	-0.005371	0.987119	0.018616	-1.000000	-1.000000	-1.000000	-1.000000	-1.000000	-1.000000	-1.000000	146.965517	0.000000	-1.000000	-1.000000	363830.000000	1772311386.372750
-16756.695000	-18260.280000	-20716.830000	-13038.930000	0.000000	0.000000	0.000000	0.000000	72.608896	-15.907355	13.048183	1.731350	-0.000000	-0.000000	0.000000	0.000000	0.305200	1.800680	2.227960	-0.005371	0.987119	0.018616	-1.000000	-1.000000	-1.000000	-1.000000	-1.000000	-1.000000	-1.000000	146.965517	0.000000	-1.000000	-1.000000	363831.000000	1772311386.376486
-16765.245000	-18230.895000	-20720.430000	-13044.420000	0.000000	0.000000	0.000000	0.000000	58.706160	-6.194216	15.605175	-8.243080	-0.000000	-0.000000	0.000000	0.000000	0.305200	1.800680	2.227960	-0.005371	0.987119	0.018616	-1.000000	-1.000000	-1.000000	-1.000000	-1.000000	-1.000000	-1.000000	146.965517	0.000000	-1.000000	-1.000000	363832.000000	1772311386.376488
-16768.485000	-18191.070000	-20715.840000	-13017.690000	0.000000	0.000000	0.000000	0.000000	18.929867	6.235827	8.893544	-15.386107	-0.000000	-0.000000	0.000000	0.000000	0.305200	1.800680	2.227960	-0.005371	0.987119	0.018616	-1.000000	-1.000000	-1.000000	-1.000000	-1.000000	-1.000000	-1.000000	146.965517	0.000000	-1.000000	-1.000000	363833.000000	1772311386.380465
-16764.255000	-18192.150000	-20716.830000	-13004.280000	0.000000	0.000000	0.000000	0.000000	-24.484540	15.992854	-1.277813	-12.135829	-0.000000	-0.000000	0.000000	0.000000	0.305200	1.800680	2.227960	-0.005371	0.987119	0.018616	-1.000000	-1.000000	-1.000000	-1.000000	-1.000000	-1.000000	-1.000000	146.965517	0.000000	-1.000000	-1.000000	363834.000000	1772311386.380468
-16763.895000	-18229.635000	-20708.325000	-13012.965000	0.000000	0.000000	0.000000	0.000000	-51.284985	17.262167	-8.421528	0.405800	-0.000000	-0.000000	0.000000	0.000000	0.305200	1.800680	2.227960	-0.005371	0.987119	0.018616	-1.000000	-1.000000	-1.000000	-1.000000	-1.000000	-1.000000	-1.000000	146.965517	0.000000	-1.000000	-1.000000	363835.000000	1772311386.385939
-16772.895000	-18262.845000	-20729.700000	-13045.005000	0.000000	0.000000	0.000000	0.000000	-53.826918	6.339801	-10.047482	12.559829	-0.000000	-0.000000	0.000000	0.000000	0.305200	1.800680	2.227960	-0.005371	0.987119	0.018616	-1.000000	-1.000000	-1.000000	-1.000000	-1.000000	-1.000000	-1.000000	146.965517	0.000000	-1.000000	-1.000000	363836.000000	1772311386.385941
-16786.530000	-18242.370000	-20759.490000	-13055.760000	0.000000	0.000000	0.000000	0.000000	-37.763375	-11.868530	-8.522344	14.982647	-0.000000	-0.000000	0.000000	0.000000	-2.136400	3.082520	3.799740	-0.005066	0.989011	0.016540	-1.000000	-1.000000	-1.000000	-1.000000	-1.000000	-1.000000	-1.000000	146.965517	0.000000	-1.000000	-1.000000	363837.000000	1772311386.388491
-16742.340000	-18244.755000	-20686.095000	-13042.665000	0.000000	0.000000	0.000000	0.000000	-13.995733	-24.599756	-5.964590	7.646048	-0.000000	-0.000000	0.000000	0.000000	-2.136400	3.082520	3.799740	-0.005066	0.989011	0.016540	-1.000000	-1.000000	-1.000000	-1.000000	-1.000000	-1.000000	-1.000000	146.965517	0.000000	-1.000000	-1.000000	363838.000000	1772311386.388494
-16747.380000	-18251.190000	-20634.435000	-13030.965000	0.000000	0.000000	0.000000	0.000000	9.042919	-22.937928	0.905608	-1.122059	-0.000000	-0.000000	0.000000	0.000000	-2.136400	3.082520	3.799740	-0.005066	0.989011	0.016540	-1.000000	-1.000000	-1.000000	-1.000000	-1.000000	-1.000000	-1.000000	146.965517	0.000000	-1.000000	-1.000000	363839.000000	1772311386.392472
-16776.540000	-18235.125000	-20641.230000	-13045.410000	0.000000	0.000000	0.000000	0.000000	24.520704	-9.157406	13.296490	-4.360252	-0.000000	-0.000000	0.000000	0.000000	-2.136400	3.082520	3.799740	-0.005066	0.989011	0.016540	-1.000000	-1.000000	-1.000000	-1.000000	-1.000000	-1.000000	-1.000000	146.965517	0.000000	-1.000000	-1.000000	363840.000000	1772311386.392475
-16789.455000	-18184.770000	-20676.690000	-13020.705000	0.000000	0.000000	0.000000	0.000000	26.554802	9.046982	21.771140	-2.125650	-0.000000	-0.000000	0.000000	0.000000	-2.136400	3.082520	3.799740	-0.005066	0.989011	0.016540	-1.000000	-1.000000	-1.000000	-1.000000	-1.000000	-1.000000	-1.000000	146.965517	0.000000	-1.000000	-1.000000	363841.000000	1772311386.396528
-16824.465000	-18163.305000	-20771.865000	-12957.480000	0.000000	0.000000	0.000000	0.000000	15.531098	25.093475	13.994017	3.241921	-0.000000	-0.000000	0.000000	0.000000	-2.136400	3.082520	3.799740	-0.005066	0.989011	0.016540	-1.000000	-1.000000	-1.000000	-1.000000	-1.000000	-1.000000	-1.000000	146.965517	0.000000	-1.000000	-1.000000	363842.000000	1772311386.396531
-16791.750000	-18180.360000	-20752.290000	-12963.420000	0.000000	0.000000	0.000000	0.000000	-0.189881	32.615683	-10.080261	10.156302	-0.000000	-0.000000	0.000000	0.000000	-2.136400	3.082520	3.799740	-0.005066	0.989011	0.016540	-1.000000	-1.000000	-1.000000	-1.000000	-1.000000	-1.000000	-1.000000	146.965517	0.000000	-1.000000	-1.000000	363843.000000	1772311386.400566
-16771.725000	-18191.745000	-20703.870000	-12969.090000	0.000000	0.000000	0.000000	0.000000	-9.234470	25.946639	-32.712081	13.749158	-0.000000	-0.000000	0.000000	0.000000	-2.136400	3.082520	3.799740	-0.005066	0.989011	0.016540	-1.000000	-1.000000	-1.000000	-1.000000	-1.000000	-1.000000	-1.000000	146.965517	0.000000	-1.000000	-1.000000	363844.000000	1772311386.400568
-16757.505000	-18211.095000	-20652.975000	-12992.715000	0.000000	0.000000	0.000000	0.000000	-5.846050	6.114085	-32.852695	7.871124	-0.000000	-0.000000	0.000000	0.000000	-2.136400	3.082520	3.799740	-0.005066	0.989011	0.016540	-1.000000	-1.000000	-1.000000	-1.000000	-1.000000	-1.000000	-1.000000	146.965517	0.000000	-1.000000	-1.000000	363845.000000	1772311386.404394
-16687.260000	-18248.130000	-20609.955000	-13086.855000	0.000000	0.000000	0.000000	0.000000	6.257839	-17.886375	-7.437598	-8.477016	-0.000000	-0.000000	0.000000	0.000000	-2.136400	3.082520	3.799740	-0.005066	0.989011	0.016540	-1.000000	-1.000000	-1.000000	-1.000000	-1.000000	-1.000000	-1.000000	146.965517	0.000000	-1.000000	-1.000000	363846.000000	1772311386.404397
-16641.990000	-18273.555000	-20559.870000	-13036.905000	0.000000	0.000000	0.000000	0.000000	19.568755	-35.385771	26.667901	-28.390618	-0.000000	-0.000000	0.000000	0.000000	2.884140	3.204600	5.356260	-0.001953	0.981138	0.022217	-1.000000	-1.000000	-1.000000	-1.000000	-1.000000	-1.000000	-1.000000	146.965517	0.000000	-1.000000	-1.000000	363847.000000	1772311386.408623
-16674.120000	-18279.630000	-20646.765000	-12993.210000	0.000000	0.000000	0.000000	0.000000	25.908722	-39.191121	46.329054	-36.895864	-0.000000	-0.000000	0.000000	0.000000	2.884140	3.204600	5.356260	-0.001953	0.981138	0.022217	-1.000000	-1.000000	-1.000000	-1.000000	-1.000000	-1.000000	-1.000000	146.965517	0.000000	-1.000000	-1.000000	363848.000000	1772311386.408625
-16765.920000	-18317.655000	-20854.845000	-13040.145000	0.000000	0.000000	0.000000	0.000000	15.891849	-28.116439	32.803644	-23.850181	-0.000000	-0.000000	0.000000	0.000000	2.884140	3.204600	5.356260	-0.001953	0.981138	0.022217	-1.000000	-1.000000	-1.000000	-1.000000	-1.000000	-1.000000	-1.000000	146.965517	0.000000	-1.000000	-1.000000	363849.000000	1772311386.412443
-16776.855000	-18366.165000	-20841.120000	-13062.240000	0.000000	0.000000	0.000000	0.000000	-12.339704	-8.708942	-13.810411	1.211771	-0.000000	-0.000000	0.000000	0.000000	2.884140	3.204600	5.356260	-0.001953	0.981138	0.022217	-1.000000	-1.000000	-1.000000	-1.000000	-1.000000	-1.000000	-1.000000	146.965517	0.000000	-1.000000	-1.000000	363850.000000	1772311386.412446
-16746.840000	-18367.560000	-20767.095000	-13040.280000	0.000000	0.000000	0.000000	0.000000	-43.027561	9.333990	-60.967865	20.451920	-0.000000	-0.000000	0.000000	0.000000	2.884140	3.204600	5.356260	-0.001953	0.981138	0.022217	-1.000000	-1.000000	-1.000000	-1.000000	-1.000000	-1.000000	-1.000000	146.965517	0.000000	-1.000000	-1.000000	363851.000000	1772311386.416492
-16741.080000	-18354.735000	-20769.795000	-13056.480000	0.000000	0.000000	0.000000	0.000000	-53.092169	21.709744	-67.729374	26.669512	-0.000000	-0.000000	0.000000	0.000000	2.884140	3.204600	5.356260	-0.001953	0.981138	0.022217	-1.000000	-1.000000	-1.000000	-1.000000	-1.000000	-1.000000	-1.000000	146.965517	0.000000	-1.000000	-1.000000	363852.000000	1772311386.416495
-16707.510000	-18353.790000	-20792.745000	-13058.955000	0.000000	0.000000	0.000000	0.000000	-34.195705	29.568534	-28.537686	22.558120	-0.000000	-0.000000	0.000000	0.000000	2.884140	3.204600	5.356260	-0.001953	0.981138	0.022217	-1.000000	-1.000000	-1.000000	-1.000000	-1.000000	-1.000000	-1.000000	146.965517	0.000000	-1.000000	-1.000000	363853.000000	1772311386.423714
-16692.795000	-18334.125000	-20818.305000	-13069.980000	0.000000	0.000000	0.000000	0.000000	1.775626	33.246407	24.723754	12.883642	-0.000000	-0.000000	0.000000	0.000000	2.884140	3.204600	5.356260	-0.001953	0.981138	0.022217	-1.000000	-1.000000	-1.000000	-1.000000	-1.000000	-1.000000	-1.000000	146.965517	0.000000	-1.000000	-1.000000	363854.000000	1772311386.423718
-16712.775000	-18307.665000	-20789.865000	-13053.015000	0.000000	0.000000	0.000000	0.000000	33.948077	31.423200	58.379935	2.576064	-0.000000	-0.000000	0.000000	0.000000	2.884140	3.204600	5.356260	-0.001953	0.981138	0.022217	-1.000000	-1.000000	-1.000000	-1.000000	-1.000000	-1.000000	-1.000000	146.965517	0.000000	-1.000000	-1.000000	363855.000000	1772311386.424534
-16843.815000	-18277.020000	-20790.855000	-13041.045000	0.000000	0.000000	0.000000	0.000000	43.483217	24.071477	61.556794	-3.815352	-0.000000	-0.000000	0.000000	0.000000	2.884140	3.204600	5.356260	-0.001953	0.981138	0.022217	-1.000000	-1.000000	-1.000000	-1.000000	-1.000000	-1.000000	-1.000000	146.965517	0.000000	-1.000000	-1.000000	363856.000000	1772311386.424537
-16893.540000	-18267.210000	-20790.270000	-13039.605000	0.000000	0.000000	0.000000	0.000000	23.288377	12.553837	42.385164	-4.624460	-0.000000	-0.000000	0.000000	0.000000	8.286180	2.350040	7.156940	-0.008972	0.981321	0.041809	-1.000000	-1.000000	-1.000000	-1.000000	-1.000000	-1.000000	-1.000000	146.965517	0.000000	-1.000000	-1.000000	363857.000000	1772311386.428550
-16794.405000	-18259.425000	-20792.565000	-13034.970000	0.000000	0.000000	0.000000	0.000000	-10.835756	-1.688175	14.252549	-2.345384	-0.000000	-0.000000	0.000000	0.000000	8.286180	2.350040	7.156940	-0.008972	0.981321	0.041809	-1.000000	-1.000000	-1.000000	-1.000000	-1.000000	-1.000000	-1.000000	146.965517	0.000000	-1.000000	-1.000000	363858.000000	1772311386.428552
-16714.665000	-18242.235000	-20770.020000	-13028.805000	0.000000	0.000000	0.000000	0.000000	-26.947932	-16.312232	-11.022250	-0.680891	-0.000000	-0.000000	0.000000	0.000000	8.286180	2.350040	7.156940	-0.008972	0.981321	0.041809	-1.000000	-1.000000	-1.000000	-1.000000	-1.000000	-1.000000	-1.000000	146.965517	0.000000	-1.000000	-1.000000	363859.000000	1772311386.432559
-16727.310000	-18235.890000	-20769.795000	-13031.055000	0.000000	0.000000	0.000000	0.000000	-9.625257	-27.255047	-25.601605	-1.272567	-0.000000	-0.000000	0.000000	0.000000	8.286180	2.350040	7.156940	-0.008972	0.981321	0.041809	-1.000000	-1.000000	-1.000000	-1.000000	-1.000000	-1.000000	-1.000000	146.965517	0.000000	-1.000000	-1.000000	363860.000000	1772311386.432562
-16811.865000	-18226.620000	-20781.630000	-13019.940000	0.000000	0.000000	0.000000	0.000000	20.956204	-31.018132	-28.321193	-3.464148	-0.000000	-0.000000	0.000000	0.000000	8.286180	2.350040	7.156940	-0.008972	0.981321	0.041809	-1.000000	-1.000000	-1.000000	-1.000000	-1.000000	-1.000000	-1.000000	146.965517	0.000000	-1.000000	-1.000000	363861.000000	1772311386.436549
-16884.180000	-18169.470000	-20774.880000	-12996.090000	0.000000	0.000000	0.000000	0.000000	31.537927	-26.174654	-23.605905	-5.012886	-0.000000	-0.000000	0.000000	0.000000	8.286180	2.350040	7.156940	-0.008972	0.981321	0.041809	-1.000000	-1.000000	-1.000000	-1.000000	-1.000000	-1.000000	-1.000000	146.965517	0.000000	-1.000000	-1.000000	363862.000000	1772311386.436551
-16950.645000	-18116.640000	-20788.065000	-13020.840000	0.000000	0.000000	0.000000	0.000000	10.255088	-12.737489	-16.283210	-4.392895	-0.000000	-0.000000	0.000000	0.000000	8.286180	2.350040	7.156940	-0.008972	0.981321	0.041809	-1.000000	-1.000000	-1.000000	-1.000000	-1.000000	-1.000000	-1.000000	146.965517	0.000000	-1.000000	-1.000000	363863.000000	1772311386.440648
-16926.300000	-18116.145000	-20788.650000	-13049.010000	0.000000	0.000000	0.000000	0.000000	-24.560682	5.076327	-9.056499	-3.789730	-0.000000	-0.000000	0.000000	0.000000	8.286180	2.350040	7.156940	-0.008972	0.981321	0.041809	-1.000000	-1.000000	-1.000000	-1.000000	-1.000000	-1.000000	-1.000000	146.965517	0.000000	-1.000000	-1.000000	363864.000000	1772311386.440651
-16932.330000	-18136.350000	-20793.465000	-13074.840000	0.000000	0.000000	0.000000	0.000000	-43.501998	16.934196	-2.974783	-6.449965	-0.000000	-0.000000	0.000000	0.000000	8.286180	2.350040	7.156940	-0.008972	0.981321	0.041809	-1.000000	-1.000000	-1.000000	-1.000000	-1.000000	-1.000000	-1.000000	146.965517	0.000000	-1.000000	-1.000000	363865.000000	1772311386.444580
