Channel1	Channel2	Channel3	Channel4	Channel5	Channel6	Channel7	Channel8	FilteredChannel1	FilteredChannel2	FilteredChannel3	FilteredChannel4	FilteredChannel5	FilteredChannel6	FilteredChannel7	FilteredChannel8	GyroX	GyroY	GyroZ	AccX	AccY	AccZ	PPG1	PPG2	rawPPG1	rawPPG2	rawPPG3	Hr	Hrv	Battery	Trigger	PhysicalTrigger	AutoTrigger	NumMeasurements	Timestamp
-4780.395000	23635.170000	-18153.360000	-14789.790000	0.000000	0.000000	0.000000	0.000000	76.628576	31.876853	102.461214	116.227829	-0.000000	-0.000000	-0.000000	0.000000	4.562740	-0.824040	-1.083460	-0.016602	0.803648	0.589232	-1.000000	-1.000000	-1.000000	-1.000000	-1.000000	-1.000000	-1.000000	139.172414	0.000000	-1.000000	-1.000000	429590.000000	1772918888.538045
-4854.690000	23516.100000	-18265.815000	-14910.075000	0.000000	0.000000	0.000000	0.000000	32.302462	6.436697	35.518370	45.500010	-0.000000	-0.000000	-0.000000	0.000000	4.562740	-0.824040	-1.083460	-0.016602	0.803648	0.589232	-1.000000	-1.000000	-1.000000	-1.000000	-1.000000	-1.000000	-1.000000	139.172414	0.000000	-1.000000	-1.000000	429591.000000	1772918888.538048
-4892.265000	23449.050000	-18311.445000	-14969.700000	0.000000	0.000000	0.000000	0.000000	-28.561099	-27.701519	-49.709894	-48.722360	-0.000000	-0.000000	-0.000000	0.000000	4.562740	-0.824040	-1.083460	-0.016602	0.803648	0.589232	-1.000000	-1.000000	-1.000000	-1.000000	-1.000000	-1.000000	-1.000000	139.172414	0.000000	-1.000000	-1.000000	429592.000000	1772918888.542066
-4878.585000	23521.770000	-18278.055000	-14936.265000	0.000000	0.000000	0.000000	0.000000	-73.108504	-52.076825	-107.247649	-115.774764	-0.000000	-0.000000	-0.000000	0.000000	4.562740	-0.824040	-1.083460	-0.016602	0.803648	0.589232	-1.000000	-1.000000	-1.000000	-1.000000	-1.000000	-1.000000	-1.000000	139.172414	0.000000	-1.000000	-1.000000	429593.000000	1772918888.542069
-4841.865000	23565.555000	-18223.245000	-14878.170000	0.000000	0.000000	0.000000	0.000000	-78.231890	-44.397048	-106.557432	-120.134651	-0.000000	-0.000000	-0.000000	0.000000	5.447820	-0.381500	-1.159760	-0.016052	0.804075	0.588377	-1.000000	-1.000000	-1.000000	-1.000000	-1.000000	-1.000000	-1.000000	139.172414	0.000000	-1.000000	-1.000000	429594.000000	1772918888.546093
-4762.395000	23599.260000	-18112.905000	-14760.630000	0.000000	0.000000	0.000000	0.000000	-42.119961	-2.211177	-49.012556	-60.523534	-0.000000	-0.000000	-0.000000	0.000000	5.447820	-0.381500	-1.159760	-0.016052	0.804075	0.588377	-1.000000	-1.000000	-1.000000	-1.000000	-1.000000	-1.000000	-1.000000	139.172414	0.000000	-1.000000	-1.000000	429595.000000	1772918888.546097
-4721.805000	23698.800000	-18060.840000	-14690.340000	0.000000	0.000000	0.000000	0.000000	15.494003	50.999373	33.687778	30.193611	-0.000000	-0.000000	-0.000000	0.000000	5.447820	-0.381500	-1.159760	-0.016052	0.804075	0.588377	-1.000000	-1.000000	-1.000000	-1.000000	-1.000000	-1.000000	-1.000000	139.172414	0.000000	-1.000000	-1.000000	429596.000000	1772918888.550083
-4781.205000	23888.025000	-18132.525000	-14760.315000	0.000000	0.000000	0.000000	0.000000	62.783584	88.926225	96.095225	102.441214	-0.000000	-0.000000	-0.000000	0.000000	5.447820	-0.381500	-1.159760	-0.016052	0.804075	0.588377	-1.000000	-1.000000	-1.000000	-1.000000	-1.000000	-1.000000	-1.000000	139.172414	0.000000	-1.000000	-1.000000	429597.000000	1772918888.550086
-4824.945000	23953.995000	-18186.435000	-14819.040000	0.000000	0.000000	0.000000	0.000000	72.150705	99.346454	102.700730	115.455496	-0.000000	-0.000000	-0.000000	0.000000	5.447820	-0.381500	-1.159760	-0.016052	0.804075	0.588377	-1.000000	-1.000000	-1.000000	-1.000000	-1.000000	-1.000000	-1.000000	139.172414	0.000000	-1.000000	-1.000000	429598.000000	1772918888.554094
-4905.630000	23995.395000	-18295.740000	-14934.600000	0.000000	0.000000	0.000000	0.000000	38.791701	77.867053	50.824597	62.885724	-0.000000	-0.000000	-0.000000	0.000000	5.447820	-0.381500	-1.159760	-0.016052	0.804075	0.588377	-1.000000	-1.000000	-1.000000	-1.000000	-1.000000	-1.000000	-1.000000	139.172414	0.000000	-1.000000	-1.000000	429599.000000	1772918888.554096
-4970.340000	23987.835000	-18384.345000	-15038.640000	0.000000	0.000000	0.000000	0.000000	-16.248134	25.197160	-28.436232	-23.763905	-0.000000	-0.000000	-0.000000	0.000000	5.447820	-0.381500	-1.159760	-0.016052	0.804075	0.588377	-1.000000	-1.000000	-1.000000	-1.000000	-1.000000	-1.000000	-1.000000	139.172414	0.000000	-1.000000	-1.000000	429600.000000	1772918888.558091
-4934.385000	23936.400000	-18335.070000	-14992.065000	0.000000	0.000000	0.000000	0.000000	-60.393125	-45.622247	-90.269276	-95.526224	-0.000000	-0.000000	-0.000000	0.000000	5.447820	-0.381500	-1.159760	-0.016052	0.804075	0.588377	-1.000000	-1.000000	-1.000000	-1.000000	-1.000000	-1.000000	-1.000000	139.172414	0.000000	-1.000000	-1.000000	429601.000000	1772918888.558094
-4891.590000	23897.745000	-18277.155000	-14927.805000	0.000000	0.000000	0.000000	0.000000	-67.227139	-110.373263	-99.107363	-111.254264	-0.000000	-0.000000	-0.000000	0.000000	5.447820	-0.381500	-1.159760	-0.016052	0.804075	0.588377	-1.000000	-1.000000	-1.000000	-1.000000	-1.000000	-1.000000	-1.000000	139.172414	0.000000	-1.000000	-1.000000	429602.000000	1772918888.562051
-4822.695000	23928.120000	-18181.035000	-14828.895000	0.000000	0.000000	0.000000	0.000000	-32.125355	-142.742782	-49.232792	-61.340366	-0.000000	-0.000000	-0.000000	0.000000	5.447820	-0.381500	-1.159760	-0.016052	0.804075	0.588377	-1.000000	-1.000000	-1.000000	-1.000000	-1.000000	-1.000000	-1.000000	139.172414	0.000000	-1.000000	-1.000000	429603.000000	1772918888.562054
-4745.520000	23996.115000	-18077.940000	-14714.460000	0.000000	0.000000	0.000000	0.000000	24.684211	-125.226741	31.093179	25.604376	-0.000000	-0.000000	-0.000000	0.000000	5.691980	-0.595140	-0.091560	-0.017761	0.805235	0.589415	-1.000000	-1.000000	-1.000000	-1.000000	-1.000000	-1.000000	-1.000000	139.172414	0.000000	-1.000000	-1.000000	429604.000000	1772918888.566055
-4752.090000	24007.005000	-18098.955000	-14731.065000	0.000000	0.000000	0.000000	0.000000	71.344273	-61.896873	97.347076	101.051380	-0.000000	-0.000000	-0.000000	0.000000	5.691980	-0.595140	-0.091560	-0.017761	0.805235	0.589415	-1.000000	-1.000000	-1.000000	-1.000000	-1.000000	-1.000000	-1.000000	139.172414	0.000000	-1.000000	-1.000000	429605.000000	1772918888.566059
-4772.925000	23944.050000	-18140.040000	-14776.875000	0.000000	0.000000	0.000000	0.000000	81.492091	16.902382	112.248655	122.697628	-0.000000	-0.000000	-0.000000	0.000000	5.691980	-0.595140	-0.091560	-0.017761	0.805235	0.589415	-1.000000	-1.000000	-1.000000	-1.000000	-1.000000	-1.000000	-1.000000	139.172414	0.000000	-1.000000	-1.000000	429606.000000	1772918888.570024
-4815.405000	23832.945000	-18206.055000	-14848.965000	0.000000	0.000000	0.000000	0.000000	48.639381	70.385447	66.610023	77.842437	-0.000000	-0.000000	-0.000000	0.000000	5.691980	-0.595140	-0.091560	-0.017761	0.805235	0.589415	-1.000000	-1.000000	-1.000000	-1.000000	-1.000000	-1.000000	-1.000000	139.172414	0.000000	-1.000000	-1.000000	429607.000000	1772918888.570027
-4895.460000	23724.810000	-18320.220000	-14974.335000	0.000000	0.000000	0.000000	0.000000	-10.359999	75.088490	-15.196023	-9.287000	-0.000000	-0.000000	-0.000000	0.000000	5.691980	-0.595140	-0.091560	-0.017761	0.805235	0.589415	-1.000000	-1.000000	-1.000000	-1.000000	-1.000000	-1.000000	-1.000000	139.172414	0.000000	-1.000000	-1.000000	429608.000000	1772918888.574303
-4899.195000	23685.435000	-18317.610000	-14977.170000	0.000000	0.000000	0.000000	0.000000	-66.138559	40.677833	-91.019622	-93.348335	-0.000000	-0.000000	-0.000000	0.000000	5.691980	-0.595140	-0.091560	-0.017761	0.805235	0.589415	-1.000000	-1.000000	-1.000000	-1.000000	-1.000000	-1.000000	-1.000000	139.172414	0.000000	-1.000000	-1.000000	429609.000000	1772918888.574306
-4873.725000	23706.180000	-18275.715000	-14927.445000	0.000000	0.000000	0.000000	0.000000	-90.912086	1.096866	-121.839608	-130.587805	-0.000000	-0.000000	-0.000000	0.000000	5.691980	-0.595140	-0.091560	-0.017761	0.805235	0.589415	-1.000000	-1.000000	-1.000000	-1.000000	-1.000000	-1.000000	-1.000000	139.172414	0.000000	-1.000000	-1.000000	429610.000000	1772918888.578168
-4820.985000	23716.575000	-18198.495000	-14847.615000	0.000000	0.000000	0.000000	0.000000	-71.694999	-12.299453	-90.972679	-100.650431	-0.000000	-0.000000	-0.000000	0.000000	5.691980	-0.595140	-0.091560	-0.017761	0.805235	0.589415	-1.000000	-1.000000	-1.000000	-1.000000	-1.000000	-1.000000	-1.000000	139.172414	0.000000	-1.000000	-1.000000	429611.000000	1772918888.578170
-4724.145000	23717.880000	-18067.230000	-14704.605000	0.000000	0.000000	0.000000	0.000000	-17.794120	5.986499	-14.014226	-18.873910	-0.000000	-0.000000	-0.000000	0.000000	5.691980	-0.595140	-0.091560	-0.017761	0.805235	0.589415	-1.000000	-1.000000	-1.000000	-1.000000	-1.000000	-1.000000	-1.000000	139.172414	0.000000	-1.000000	-1.000000	429612.000000	1772918888.582120
-4712.175000	23761.710000	-18056.385000	-14681.475000	0.000000	0.000000	0.000000	0.000000	44.058996	37.122150	69.786471	72.526058	-0.000000	-0.000000	-0.000000	0.000000	5.691980	-0.595140	-0.091560	-0.017761	0.805235	0.589415	-1.000000	-1.000000	-1.000000	-1.000000	-1.000000	-1.000000	-1.000000	139.172414	0.000000	-1.000000	-1.000000	429613.000000	1772918888.582123
-4747.590000	23763.690000	-18110.475000	-14738.040000	0.000000	0.000000	0.000000	0.000000	81.741959	57.878119	116.041571	125.029772	-0.000000	-0.000000	-0.000000	0.000000	5.798800	-1.541260	0.808780	-0.019592	0.807432	0.589293	-1.000000	-1.000000	-1.000000	-1.000000	-1.000000	-1.000000	-1.000000	139.172414	0.000000	-1.000000	-1.000000	429614.000000	1772918888.586156
-4805.910000	23819.400000	-18187.605000	-14820.390000	0.000000	0.000000	0.000000	0.000000	74.378999	55.985800	98.605927	108.953715	-0.000000	-0.000000	-0.000000	0.000000	5.798800	-1.541260	0.808780	-0.019592	0.807432	0.589293	-1.000000	-1.000000	-1.000000	-1.000000	-1.000000	-1.000000	-1.000000	139.172414	0.000000	-1.000000	-1.000000	429615.000000	1772918888.586159
-4906.440000	23872.455000	-18325.260000	-14968.890000	0.000000	0.000000	0.000000	0.000000	25.979920	34.265967	26.810077	32.515149	-0.000000	-0.000000	-0.000000	0.000000	5.798800	-1.541260	0.808780	-0.019592	0.807432	0.589293	-1.000000	-1.000000	-1.000000	-1.000000	-1.000000	-1.000000	-1.000000	139.172414	0.000000	-1.000000	-1.000000	429616.000000	1772918888.589838
-4942.755000	23869.305000	-18363.600000	-15021.315000	0.000000	0.000000	0.000000	0.000000	-36.830360	4.249624	-60.181865	-62.903466	-0.000000	-0.000000	-0.000000	0.000000	5.798800	-1.541260	0.808780	-0.019592	0.807432	0.589293	-1.000000	-1.000000	-1.000000	-1.000000	-1.000000	-1.000000	-1.000000	139.172414	0.000000	-1.000000	-1.000000	429617.000000	1772918888.589840
-4916.070000	23911.335000	-18318.780000	-14975.100000	0.000000	0.000000	0.000000	0.000000	-79.083397	-24.077925	-114.341996	-124.867138	-0.000000	-0.000000	-0.000000	0.000000	5.798800	-1.541260	0.808780	-0.019592	0.807432	0.589293	-1.000000	-1.000000	-1.000000	-1.000000	-1.000000	-1.000000	-1.000000	139.172414	0.000000	-1.000000	-1.000000	429618.000000	1772918888.594437
-4870.440000	23927.535000	-18258.615000	-14909.400000	0.000000	0.000000	0.000000	0.000000	-76.249444	-44.081233	-104.507269	-117.739839	-0.000000	-0.000000	-0.000000	0.000000	5.798800	-1.541260	0.808780	-0.019592	0.807432	0.589293	-1.000000	-1.000000	-1.000000	-1.000000	-1.000000	-1.000000	-1.000000	139.172414	0.000000	-1.000000	-1.000000	429619.000000	1772918888.594440
-4764.015000	23922.720000	-18121.005000	-14759.595000	0.000000	0.000000	0.000000	0.000000	-29.063960	-51.898426	-35.574602	-44.427573	-0.000000	-0.000000	-0.000000	0.000000	5.798800	-1.541260	0.808780	-0.019592	0.807432	0.589293	-1.000000	-1.000000	-1.000000	-1.000000	-1.000000	-1.000000	-1.000000	139.172414	0.000000	-1.000000	-1.000000	429620.000000	1772918888.598240
-4711.275000	24016.455000	-18052.470000	-14671.890000	0.000000	0.000000	0.000000	0.000000	37.422811	-46.868432	55.483111	56.219006	-0.000000	-0.000000	-0.000000	0.000000	5.798800	-1.541260	0.808780	-0.019592	0.807432	0.589293	-1.000000	-1.000000	-1.000000	-1.000000	-1.000000	-1.000000	-1.000000	139.172414	0.000000	-1.000000	-1.000000	429621.000000	1772918888.598243
-4744.395000	24086.655000	-18103.410000	-14723.190000	0.000000	0.000000	0.000000	0.000000	86.822692	-28.842820	119.506586	130.223244	-0.000000	-0.000000	-0.000000	0.000000	5.798800	-1.541260	0.808780	-0.019592	0.807432	0.589293	-1.000000	-1.000000	-1.000000	-1.000000	-1.000000	-1.000000	-1.000000	139.172414	0.000000	-1.000000	-1.000000	429622.000000	1772918888.601373
-4795.200000	24130.080000	-18173.655000	-14798.160000	0.000000	0.000000	0.000000	0.000000	89.896223	-1.671239	119.542520	135.069902	-0.000000	-0.000000	-0.000000	0.000000	5.798800	-1.541260	0.808780	-0.019592	0.807432	0.589293	-1.000000	-1.000000	-1.000000	-1.000000	-1.000000	-1.000000	-1.000000	139.172414	0.000000	-1.000000	-1.000000	429623.000000	1772918888.601376
-4892.715000	24173.235000	-18303.120000	-14937.615000	0.000000	0.000000	0.000000	0.000000	42.976272	22.618173	53.574067	65.639997	-0.000000	-0.000000	-0.000000	0.000000	7.492660	-1.388660	0.778260	-0.019043	0.806150	0.588805	-1.000000	-1.000000	-1.000000	-1.000000	-1.000000	-1.000000	-1.000000	139.172414	0.000000	-1.000000	-1.000000	429624.000000	1772918888.606649
-4951.890000	24098.580000	-18382.815000	-15039.315000	0.000000	0.000000	0.000000	0.000000	-28.940717	29.988854	-43.049427	-41.203610	-0.000000	-0.000000	-0.000000	0.000000	7.492660	-1.388660	0.778260	-0.019043	0.806150	0.588805	-1.000000	-1.000000	-1.000000	-1.000000	-1.000000	-1.000000	-1.000000	139.172414	0.000000	-1.000000	-1.000000	429625.000000	1772918888.606651
-4913.190000	23991.795000	-18328.995000	-14988.645000	0.000000	0.000000	0.000000	0.000000	-86.211124	12.381991	-117.327685	-127.295561	-0.000000	-0.000000	-0.000000	0.000000	7.492660	-1.388660	0.778260	-0.019043	0.806150	0.588805	-1.000000	-1.000000	-1.000000	-1.000000	-1.000000	-1.000000	-1.000000	139.172414	0.000000	-1.000000	-1.000000	429626.000000	1772918888.639153
-4859.955000	23875.110000	-18261.360000	-14914.170000	0.000000	0.000000	0.000000	0.000000	-95.960142	-25.671172	-126.949763	-143.927143	-0.000000	-0.000000	-0.000000	0.000000	7.492660	-1.388660	0.778260	-0.019043	0.806150	0.588805	-1.000000	-1.000000	-1.000000	-1.000000	-1.000000	-1.000000	-1.000000	139.172414	0.000000	-1.000000	-1.000000	429627.000000	1772918888.639157
-4802.265000	23925.510000	-18173.430000	-14817.870000	0.000000	0.000000	0.000000	0.000000	-52.922757	-62.085681	-66.720599	-81.648203	-0.000000	-0.000000	-0.000000	0.000000	7.492660	-1.388660	0.778260	-0.019043	0.806150	0.588805	-1.000000	-1.000000	-1.000000	-1.000000	-1.000000	-1.000000	-1.000000	139.172414	0.000000	-1.000000	-1.000000	429628.000000	1772918888.639181
-4730.130000	24086.295000	-18072.315000	-14699.160000	0.000000	0.000000	0.000000	0.000000	17.111398	-64.411392	28.166774	23.453297	-0.000000	-0.000000	-0.000000	0.000000	7.492660	-1.388660	0.778260	-0.019043	0.806150	0.588805	-1.000000	-1.000000	-1.000000	-1.000000	-1.000000	-1.000000	-1.000000	139.172414	0.000000	-1.000000	-1.000000	429629.000000	1772918888.639183
-4727.700000	24064.470000	-18080.865000	-14701.140000	0.000000	0.000000	0.000000	0.000000	75.570773	-17.923479	105.976482	114.153811	-0.000000	-0.000000	-0.000000	0.000000	7.492660	-1.388660	0.778260	-0.019043	0.806150	0.588805	-1.000000	-1.000000	-1.000000	-1.000000	-1.000000	-1.000000	-1.000000	139.172414	0.000000	-1.000000	-1.000000	429630.000000	1772918888.639190
-4773.105000	24092.370000	-18150.390000	-14768.595000	0.000000	0.000000	0.000000	0.000000	92.483937	50.989882	126.002307	142.967666	-0.000000	-0.000000	-0.000000	0.000000	7.492660	-1.388660	0.778260	-0.019043	0.806150	0.588805	-1.000000	-1.000000	-1.000000	-1.000000	-1.000000	-1.000000	-1.000000	139.172414	0.000000	-1.000000	-1.000000	429631.000000	1772918888.639192
-4847.265000	24148.620000	-18249.255000	-14875.605000	0.000000	0.000000	0.000000	0.000000	59.984921	97.335606	78.074667	95.229870	-0.000000	-0.000000	-0.000000	0.000000	7.492660	-1.388660	0.778260	-0.019043	0.806150	0.588805	-1.000000	-1.000000	-1.000000	-1.000000	-1.000000	-1.000000	-1.000000	139.172414	0.000000	-1.000000	-1.000000	429632.000000	1772918888.639195
-4963.860000	24224.310000	-18394.380000	-15044.040000	0.000000	0.000000	0.000000	0.000000	-4.969196	99.220415	-12.451606	-3.865300	-0.000000	-0.000000	-0.000000	0.000000	7.492660	-1.388660	0.778260	-0.019043	0.806150	0.588805	-1.000000	-1.000000	-1.000000	-1.000000	-1.000000	-1.000000	-1.000000	139.172414	0.000000	-1.000000	-1.000000	429633.000000	1772918888.639197
-4967.505000	24257.925000	-18390.600000	-15049.620000	0.000000	0.000000	0.000000	0.000000	-69.313327	65.296442	-98.363008	-103.086506	-0.000000	-0.000000	-0.000000	0.000000	6.042960	-0.747740	0.564620	-0.015198	0.804441	0.587218	-1.000000	-1.000000	-1.000000	-1.000000	-1.000000	-1.000000	-1.000000	139.172414	0.000000	-1.000000	-1.000000	429634.000000	1772918888.639201
-4907.610000	24174.540000	-18315.315000	-14967.405000	0.000000	0.000000	0.000000	0.000000	-97.882946	13.973263	-132.624703	-148.513102	-0.000000	-0.000000	-0.000000	0.000000	6.042960	-0.747740	0.564620	-0.015198	0.804441	0.587218	-1.000000	-1.000000	-1.000000	-1.000000	-1.000000	-1.000000	-1.000000	139.172414	0.000000	-1.000000	-1.000000	429635.000000	1772918888.639203
-4829.985000	24042.150000	-18217.125000	-14862.105000	0.000000	0.000000	0.000000	0.000000	-72.003057	-42.367758	-93.659793	-112.122287	-0.000000	-0.000000	-0.000000	0.000000	6.042960	-0.747740	0.564620	-0.015198	0.804441	0.587218	-1.000000	-1.000000	-1.000000	-1.000000	-1.000000	-1.000000	-1.000000	139.172414	0.000000	-1.000000	-1.000000	429636.000000	1772918888.639206
-4726.170000	24024.870000	-18077.940000	-14704.290000	0.000000	0.000000	0.000000	0.000000	-3.865371	-92.083829	-1.149562	-12.028923	-0.000000	-0.000000	-0.000000	0.000000	6.042960	-0.747740	0.564620	-0.015198	0.804441	0.587218	-1.000000	-1.000000	-1.000000	-1.000000	-1.000000	-1.000000	-1.000000	139.172414	0.000000	-1.000000	-1.000000	429637.000000	1772918888.639208
-4703.490000	23994.090000	-18059.805000	-14671.395000	0.000000	0.000000	0.000000	0.000000	69.383959	-115.193925	94.782539	97.360152	-0.000000	-0.000000	-0.000000	0.000000	6.042960	-0.747740	0.564620	-0.015198	0.804441	0.587218	-1.000000	-1.000000	-1.000000	-1.000000	-1.000000	-1.000000	-1.000000	139.172414	0.000000	-1.000000	-1.000000	429638.000000	1772918888.639211
-4736.970000	24013.890000	-18109.755000	-14726.070000	0.000000	0.000000	0.000000	0.000000	106.877078	-95.265311	141.252760	155.758746	-0.000000	-0.000000	-0.000000	0.000000	6.042960	-0.747740	0.564620	-0.015198	0.804441	0.587218	-1.000000	-1.000000	-1.000000	-1.000000	-1.000000	-1.000000	-1.000000	139.172414	0.000000	-1.000000	-1.000000	429639.000000	1772918888.639213
-4789.845000	24042.780000	-18179.820000	-14802.300000	0.000000	0.000000	0.000000	0.000000	87.219539	-36.739044	112.037679	130.290164	-0.000000	-0.000000	-0.000000	0.000000	6.042960	-0.747740	0.564620	-0.015198	0.804441	0.587218	-1.000000	-1.000000	-1.000000	-1.000000	-1.000000	-1.000000	-1.000000	139.172414	0.000000	-1.000000	-1.000000	429640.000000	1772918888.639216
-4893.435000	23987.025000	-18318.960000	-14953.005000	0.000000	0.000000	0.000000	0.000000	20.899264	34.351573	23.147461	35.011352	-0.000000	-0.000000	-0.000000	0.000000	6.042960	-0.747740	0.564620	-0.015198	0.804441	0.587218	-1.000000	-1.000000	-1.000000	-1.000000	-1.000000	-1.000000	-1.000000	139.172414	0.000000	-1.000000	-1.000000	429641.000000	1772918888.639218
-4921.470000	23905.440000	-18350.145000	-14998.005000	0.000000	0.000000	0.000000	0.000000	-57.059363	83.213007	-78.202226	-78.974564	-0.000000	-0.000000	-0.000000	0.000000	6.042960	-0.747740	0.564620	-0.015198	0.804441	0.587218	-1.000000	-1.000000	-1.000000	-1.000000	-1.000000	-1.000000	-1.000000	139.172414	0.000000	-1.000000	-1.000000	429642.000000	1772918888.642674
-4905.135000	23948.820000	-18315.315000	-14962.005000	0.000000	0.000000	0.000000	0.000000	-106.003870	89.468807	-138.926837	-151.592835	-0.000000	-0.000000	-0.000000	0.000000	6.042960	-0.747740	0.564620	-0.015198	0.804441	0.587218	-1.000000	-1.000000	-1.000000	-1.000000	-1.000000	-1.000000	-1.000000	139.172414	0.000000	-1.000000	-1.000000	429643.000000	1772918888.642678
-4872.240000	24022.845000	-18265.545000	-14916.555000	0.000000	0.000000	0.000000	0.000000	-100.901715	64.031078	-127.553494	-145.275381	-0.000000	-0.000000	-0.000000	0.000000	6.928040	-0.473060	-0.656180	-0.012634	0.804441	0.587096	-1.000000	-1.000000	-1.000000	-1.000000	-1.000000	-1.000000	-1.000000	139.172414	0.000000	-1.000000	-1.000000	429644.000000	1772918888.646287
-4770.585000	24078.330000	-18128.880000	-14771.385000	0.000000	0.000000	0.000000	0.000000	-45.886403	34.691300	-51.864093	-65.791704	-0.000000	-0.000000	-0.000000	0.000000	6.928040	-0.473060	-0.656180	-0.012634	0.804441	0.587096	-1.000000	-1.000000	-1.000000	-1.000000	-1.000000	-1.000000	-1.000000	139.172414	0.000000	-1.000000	-1.000000	429645.000000	1772918888.646290
-4692.690000	24014.385000	-18045.135000	-14662.485000	0.000000	0.000000	0.000000	0.000000	30.874505	15.482543	48.516278	44.984509	-0.000000	-0.000000	-0.000000	0.000000	6.928040	-0.473060	-0.656180	-0.012634	0.804441	0.587096	-1.000000	-1.000000	-1.000000	-1.000000	-1.000000	-1.000000	-1.000000	139.172414	0.000000	-1.000000	-1.000000	429646.000000	1772918888.650289
-4696.965000	23855.355000	-18066.870000	-14682.870000	0.000000	0.000000	0.000000	0.000000	92.074200	-3.449533	123.326474	132.103448	-0.000000	-0.000000	-0.000000	0.000000	6.928040	-0.473060	-0.656180	-0.012634	0.804441	0.587096	-1.000000	-1.000000	-1.000000	-1.000000	-1.000000	-1.000000	-1.000000	139.172414	0.000000	-1.000000	-1.000000	429647.000000	1772918888.650292
-4734.180000	23779.845000	-18119.295000	-14742.630000	0.000000	0.000000	0.000000	0.000000	106.948811	-35.314676	134.221999	151.171433	-0.000000	-0.000000	-0.000000	0.000000	6.928040	-0.473060	-0.656180	-0.012634	0.804441	0.587096	-1.000000	-1.000000	-1.000000	-1.000000	-1.000000	-1.000000	-1.000000	139.172414	0.000000	-1.000000	-1.000000	429648.000000	1772918888.656931
-4813.425000	23685.030000	-18234.675000	-14868.090000	0.000000	0.000000	0.000000	0.000000	67.525055	-72.310554	75.704688	91.917397	-0.000000	-0.000000	-0.000000	0.000000	6.928040	-0.473060	-0.656180	-0.012634	0.804441	0.587096	-1.000000	-1.000000	-1.000000	-1.000000	-1.000000	-1.000000	-1.000000	139.172414	0.000000	-1.000000	-1.000000	429649.000000	1772918888.656936
-4852.305000	23458.005000	-18295.065000	-14950.080000	0.000000	0.000000	0.000000	0.000000	-5.130848	-93.419388	-20.646817	-13.946868	-0.000000	-0.000000	-0.000000	0.000000	6.928040	-0.473060	-0.656180	-0.012634	0.804441	0.587096	-1.000000	-1.000000	-1.000000	-1.000000	-1.000000	-1.000000	-1.000000	139.172414	0.000000	-1.000000	-1.000000	429650.000000	1772918888.658696
-4839.570000	23433.480000	-18270.900000	-14928.480000	0.000000	0.000000	0.000000	0.000000	-71.831880	-86.739099	-103.089872	-109.457819	-0.000000	-0.000000	-0.000000	0.000000	6.928040	-0.473060	-0.656180	-0.012634	0.804441	0.587096	-1.000000	-1.000000	-1.000000	-1.000000	-1.000000	-1.000000	-1.000000	139.172414	0.000000	-1.000000	-1.000000	429651.000000	1772918888.658698
-4813.605000	23464.530000	-18227.745000	-14878.935000	0.000000	0.000000	0.000000	0.000000	-97.666307	-48.633355	-127.921586	-143.496120	-0.000000	-0.000000	-0.000000	0.000000	6.928040	-0.473060	-0.656180	-0.012634	0.804441	0.587096	-1.000000	-1.000000	-1.000000	-1.000000	-1.000000	-1.000000	-1.000000	139.172414	0.000000	-1.000000	-1.000000	429652.000000	1772918888.662290
-4731.570000	23450.895000	-18111.960000	-14752.845000	0.000000	0.000000	0.000000	0.000000	-72.000598	17.272052	-84.482988	-100.060514	-0.000000	-0.000000	-0.000000	0.000000	6.928040	-0.473060	-0.656180	-0.012634	0.804441	0.587096	-1.000000	-1.000000	-1.000000	-1.000000	-1.000000	-1.000000	-1.000000	139.172414	0.000000	-1.000000	-1.000000	429653.000000	1772918888.662293
-4647.330000	23480.955000	-18000.765000	-14621.670000	0.000000	0.000000	0.000000	0.000000	-11.325923	88.976361	1.609458	-4.923742	-0.000000	-0.000000	-0.000000	0.000000	8.148840	0.412020	-1.480220	-0.013123	0.803282	0.587706	-1.000000	-1.000000	-1.000000	-1.000000	-1.000000	-1.000000	-1.000000	139.172414	0.000000	-1.000000	-1.000000	429654.000000	1772918888.670895
-4657.905000	23466.645000	-18023.940000	-14641.245000	0.000000	0.000000	0.000000	0.000000	51.450451	134.177775	83.971224	90.180831	-0.000000	-0.000000	-0.000000	0.000000	8.148840	0.412020	-1.480220	-0.013123	0.803282	0.587706	-1.000000	-1.000000	-1.000000	-1.000000	-1.000000	-1.000000	-1.000000	139.172414	0.000000	-1.000000	-1.000000	429655.000000	1772918888.670898
-4701.105000	23480.055000	-18083.295000	-14705.685000	0.000000	0.000000	0.000000	0.000000	82.096864	132.501800	117.275976	132.511625	-0.000000	-0.000000	-0.000000	0.000000	8.148840	0.412020	-1.480220	-0.013123	0.803282	0.587706	-1.000000	-1.000000	-1.000000	-1.000000	-1.000000	-1.000000	-1.000000	139.172414	0.000000	-1.000000	-1.000000	429656.000000	1772918888.670902
-4767.030000	23419.395000	-18177.030000	-14805.990000	0.000000	0.000000	0.000000	0.000000	64.026536	85.893352	82.974337	98.321411	-0.000000	-0.000000	-0.000000	0.000000	8.148840	0.412020	-1.480220	-0.013123	0.803282	0.587706	-1.000000	-1.000000	-1.000000	-1.000000	-1.000000	-1.000000	-1.000000	139.172414	0.000000	-1.000000	-1.000000	429657.000000	1772918888.670904
-4864.860000	23345.910000	-18302.715000	-14952.510000	0.000000	0.000000	0.000000	0.000000	8.874374	13.330587	1.446466	8.134927	-0.000000	-0.000000	-0.000000	0.000000	8.148840	0.412020	-1.480220	-0.013123	0.803282	0.587706	-1.000000	-1.000000	-1.000000	-1.000000	-1.000000	-1.000000	-1.000000	139.172414	0.000000	-1.000000	-1.000000	429658.000000	1772918888.676802
-4858.200000	23276.520000	-18285.975000	-14941.530000	0.000000	0.000000	0.000000	0.000000	-51.282192	-59.416694	-81.078638	-86.895775	-0.000000	-0.000000	-0.000000	0.000000	8.148840	0.412020	-1.480220	-0.013123	0.803282	0.587706	-1.000000	-1.000000	-1.000000	-1.000000	-1.000000	-1.000000	-1.000000	139.172414	0.000000	-1.000000	-1.000000	429659.000000	1772918888.676806
-4813.065000	23209.920000	-18227.880000	-14876.145000	0.000000	0.000000	0.000000	0.000000	-81.142023	-107.895014	-117.276815	-132.456567	-0.000000	-0.000000	-0.000000	0.000000	8.148840	0.412020	-1.480220	-0.013123	0.803282	0.587706	-1.000000	-1.000000	-1.000000	-1.000000	-1.000000	-1.000000	-1.000000	139.172414	0.000000	-1.000000	-1.000000	429660.000000	1772918888.678648
-4728.150000	23188.995000	-18114.930000	-14756.400000	0.000000	0.000000	0.000000	0.000000	-61.912817	-116.821060	-85.172695	-101.157571	-0.000000	-0.000000	-0.000000	0.000000	8.148840	0.412020	-1.480220	-0.013123	0.803282	0.587706	-1.000000	-1.000000	-1.000000	-1.000000	-1.000000	-1.000000	-1.000000	139.172414	0.000000	-1.000000	-1.000000	429661.000000	1772918888.678651
-4586.130000	23151.285000	-17938.845000	-14559.570000	0.000000	0.000000	0.000000	0.000000	-2.800206	-86.033910	-1.270081	-9.074721	-0.000000	-0.000000	-0.000000	0.000000	8.148840	0.412020	-1.480220	-0.013123	0.803282	0.587706	-1.000000	-1.000000	-1.000000	-1.000000	-1.000000	-1.000000	-1.000000	139.172414	0.000000	-1.000000	-1.000000	429662.000000	1772918888.682440
-4641.615000	23176.710000	-17999.100000	-14607.315000	0.000000	0.000000	0.000000	0.000000	63.133590	-30.069574	88.141957	92.949127	-0.000000	-0.000000	-0.000000	0.000000	8.148840	0.412020	-1.480220	-0.013123	0.803282	0.587706	-1.000000	-1.000000	-1.000000	-1.000000	-1.000000	-1.000000	-1.000000	139.172414	0.000000	-1.000000	-1.000000	429663.000000	1772918888.682443
-4689.720000	23180.175000	-18063.855000	-14675.445000	0.000000	0.000000	0.000000	0.000000	94.363129	29.353766	128.859129	143.861245	-0.000000	-0.000000	-0.000000	0.000000	8.606640	0.274680	0.030520	-0.014160	0.804624	0.588927	-1.000000	-1.000000	-1.000000	-1.000000	-1.000000	-1.000000	-1.000000	139.172414	0.000000	-1.000000	-1.000000	429664.000000	1772918888.686477
-4743.405000	23203.710000	-18138.105000	-14755.815000	0.000000	0.000000	0.000000	0.000000	68.761632	72.244067	93.559637	110.585419	-0.000000	-0.000000	-0.000000	0.000000	8.606640	0.274680	0.030520	-0.014160	0.804624	0.588927	-1.000000	-1.000000	-1.000000	-1.000000	-1.000000	-1.000000	-1.000000	139.172414	0.000000	-1.000000	-1.000000	429665.000000	1772918888.686480
-4860.405000	23262.345000	-18293.985000	-14930.505000	0.000000	0.000000	0.000000	0.000000	1.561194	87.391137	3.131916	12.692251	-0.000000	-0.000000	-0.000000	0.000000	8.606640	0.274680	0.030520	-0.014160	0.804624	0.588927	-1.000000	-1.000000	-1.000000	-1.000000	-1.000000	-1.000000	-1.000000	139.172414	0.000000	-1.000000	-1.000000	429666.000000	1772918888.690467
-4902.480000	23349.735000	-18340.245000	-14994.630000	0.000000	0.000000	0.000000	0.000000	-68.886522	76.748180	-91.431849	-94.996440	-0.000000	-0.000000	-0.000000	0.000000	8.606640	0.274680	0.030520	-0.014160	0.804624	0.588927	-1.000000	-1.000000	-1.000000	-1.000000	-1.000000	-1.000000	-1.000000	139.172414	0.000000	-1.000000	-1.000000	429667.000000	1772918888.690469
-4876.740000	23401.575000	-18299.745000	-14952.735000	0.000000	0.000000	0.000000	0.000000	-104.840794	50.879959	-139.393450	-154.887262	-0.000000	-0.000000	-0.000000	0.000000	8.606640	0.274680	0.030520	-0.014160	0.804624	0.588927	-1.000000	-1.000000	-1.000000	-1.000000	-1.000000	-1.000000	-1.000000	139.172414	0.000000	-1.000000	-1.000000	429668.000000	1772918888.694360
-4832.865000	23443.380000	-18235.935000	-14888.160000	0.000000	0.000000	0.000000	0.000000	-86.443662	19.008362	-114.120648	-133.806117	-0.000000	-0.000000	-0.000000	0.000000	8.606640	0.274680	0.030520	-0.014160	0.804624	0.588927	-1.000000	-1.000000	-1.000000	-1.000000	-1.000000	-1.000000	-1.000000	139.172414	0.000000	-1.000000	-1.000000	429669.000000	1772918888.694364
-4717.755000	23411.430000	-18088.380000	-14726.565000	0.000000	0.000000	0.000000	0.000000	-21.986829	-14.968877	-27.640893	-41.343419	-0.000000	-0.000000	-0.000000	0.000000	8.606640	0.274680	0.030520	-0.014160	0.804624	0.588927	-1.000000	-1.000000	-1.000000	-1.000000	-1.000000	-1.000000	-1.000000	139.172414	0.000000	-1.000000	-1.000000	429670.000000	1772918888.698424
-4686.705000	23492.250000	-18050.400000	-14666.850000	0.000000	0.000000	0.000000	0.000000	56.550866	-47.071562	76.048612	75.559943	-0.000000	-0.000000	-0.000000	0.000000	8.606640	0.274680	0.030520	-0.014160	0.804624	0.588927	-1.000000	-1.000000	-1.000000	-1.000000	-1.000000	-1.000000	-1.000000	139.172414	0.000000	-1.000000	-1.000000	429671.000000	1772918888.698426
-4726.800000	23551.335000	-18105.570000	-14723.370000	0.000000	0.000000	0.000000	0.000000	108.535445	-66.723853	142.665903	156.126691	-0.000000	-0.000000	-0.000000	0.000000	8.606640	0.274680	0.030520	-0.014160	0.804624	0.588927	-1.000000	-1.000000	-1.000000	-1.000000	-1.000000	-1.000000	-1.000000	139.172414	0.000000	-1.000000	-1.000000	429672.000000	1772918888.702402
-4784.940000	23637.825000	-18180.720000	-14800.365000	0.000000	0.000000	0.000000	0.000000	105.122768	-63.068418	135.433465	156.355127	-0.000000	-0.000000	-0.000000	0.000000	8.606640	0.274680	0.030520	-0.014160	0.804624	0.588927	-1.000000	-1.000000	-1.000000	-1.000000	-1.000000	-1.000000	-1.000000	139.172414	0.000000	-1.000000	-1.000000	429673.000000	1772918888.702405
-4890.105000	23684.580000	-18316.080000	-14945.715000	0.000000	0.000000	0.000000	0.000000	47.599244	-37.732564	58.150826	76.032155	-0.000000	-0.000000	-0.000000	0.000000	10.651480	0.015260	-0.808780	-0.013550	0.805418	0.589964	-1.000000	-1.000000	-1.000000	-1.000000	-1.000000	-1.000000	-1.000000	139.172414	0.000000	-1.000000	-1.000000	429674.000000	1772918888.706583
-4942.080000	23652.720000	-18378.720000	-15026.580000	0.000000	0.000000	0.000000	0.000000	-33.071450	-6.882088	-47.124525	-41.031161	-0.000000	-0.000000	-0.000000	0.000000	10.651480	0.015260	-0.808780	-0.013550	0.805418	0.589964	-1.000000	-1.000000	-1.000000	-1.000000	-1.000000	-1.000000	-1.000000	139.172414	0.000000	-1.000000	-1.000000	429675.000000	1772918888.706586
-4879.665000	23499.945000	-18304.785000	-14954.625000	0.000000	0.000000	0.000000	0.000000	-93.171987	7.295461	-123.431727	-131.693460	-0.000000	-0.000000	-0.000000	0.000000	10.651480	0.015260	-0.808780	-0.013550	0.805418	0.589964	-1.000000	-1.000000	-1.000000	-1.000000	-1.000000	-1.000000	-1.000000	139.172414	0.000000	-1.000000	-1.000000	429676.000000	1772918888.711545
-4838.355000	23435.055000	-18248.715000	-14893.695000	0.000000	0.000000	0.000000	0.000000	-99.521102	-7.060518	-129.159203	-146.930452	-0.000000	-0.000000	-0.000000	0.000000	10.651480	0.015260	-0.808780	-0.013550	0.805418	0.589964	-1.000000	-1.000000	-1.000000	-1.000000	-1.000000	-1.000000	-1.000000	139.172414	0.000000	-1.000000	-1.000000	429677.000000	1772918888.711548
-4770.675000	23471.415000	-18147.240000	-14770.890000	0.000000	0.000000	0.000000	0.000000	-51.024197	-35.157906	-64.154395	-81.584103	-0.000000	-0.000000	-0.000000	0.000000	10.651480	0.015260	-0.808780	-0.013550	0.805418	0.589964	-1.000000	-1.000000	-1.000000	-1.000000	-1.000000	-1.000000	-1.000000	139.172414	0.000000	-1.000000	-1.000000	429678.000000	1772918888.713790
-4711.005000	23576.355000	-18069.705000	-14662.395000	0.000000	0.000000	0.000000	0.000000	21.492363	-42.976113	31.537162	24.275235	-0.000000	-0.000000	-0.000000	0.000000	10.651480	0.015260	-0.808780	-0.013550	0.805418	0.589964	-1.000000	-1.000000	-1.000000	-1.000000	-1.000000	-1.000000	-1.000000	139.172414	0.000000	-1.000000	-1.000000	429679.000000	1772918888.713793
-4742.775000	23696.325000	-18109.575000	-14677.605000	0.000000	0.000000	0.000000	0.000000	77.072779	-9.084649	104.513481	112.216307	-0.000000	-0.000000	-0.000000	0.000000	10.651480	0.015260	-0.808780	-0.013550	0.805418	0.589964	-1.000000	-1.000000	-1.000000	-1.000000	-1.000000	-1.000000	-1.000000	139.172414	0.000000	-1.000000	-1.000000	429680.000000	1772918888.717429
-4781.520000	23760.630000	-18164.745000	-14740.245000	0.000000	0.000000	0.000000	0.000000	86.865644	53.050306	116.360874	135.656708	-0.000000	-0.000000	-0.000000	0.000000	10.651480	0.015260	-0.808780	-0.013550	0.805418	0.589964	-1.000000	-1.000000	-1.000000	-1.000000	-1.000000	-1.000000	-1.000000	139.172414	0.000000	-1.000000	-1.000000	429681.000000	1772918888.717432
-4873.905000	23846.310000	-18283.905000	-14875.560000	0.000000	0.000000	0.000000	0.000000	47.818081	105.176366	62.897545	82.814443	-0.000000	-0.000000	-0.000000	0.000000	10.651480	0.015260	-0.808780	-0.013550	0.805418	0.589964	-1.000000	-1.000000	-1.000000	-1.000000	-1.000000	-1.000000	-1.000000	139.172414	0.000000	-1.000000	-1.000000	429682.000000	1772918888.724982
-4966.155000	23860.035000	-18411.255000	-15075.990000	0.000000	0.000000	0.000000	0.000000	-17.745073	114.241176	-25.737170	-18.855249	-0.000000	-0.000000	-0.000000	0.000000	10.651480	0.015260	-0.808780	-0.013550	0.805418	0.589964	-1.000000	-1.000000	-1.000000	-1.000000	-1.000000	-1.000000	-1.000000	139.172414	0.000000	-1.000000	-1.000000	429683.000000	1772918888.724985
-4936.905000	23782.770000	-18380.295000	-15088.815000	0.000000	0.000000	0.000000	0.000000	-74.525534	71.526986	-102.198673	-117.669525	-0.000000	-0.000000	-0.000000	0.000000	12.497940	1.846460	-1.281840	-0.012451	0.805113	0.589659	-1.000000	-1.000000	-1.000000	-1.000000	-1.000000	-1.000000	-1.000000	139.172414	0.000000	-1.000000	-1.000000	429684.000000	1772918888.727899
-4910.310000	23802.435000	-18329.400000	-15006.870000	0.000000	0.000000	0.000000	0.000000	-90.592041	-5.847147	-123.708306	-158.654339	-0.000000	-0.000000	-0.000000	0.000000	12.497940	1.846460	-1.281840	-0.012451	0.805113	0.589659	-1.000000	-1.000000	-1.000000	-1.000000	-1.000000	-1.000000	-1.000000	139.172414	0.000000	-1.000000	-1.000000	429685.000000	1772918888.727902
-4853.070000	23878.350000	-18242.550000	-14896.665000	0.000000	0.000000	0.000000	0.000000	-56.338156	-79.875014	-76.549889	-112.841482	-0.000000	-0.000000	-0.000000	0.000000	12.497940	1.846460	-1.281840	-0.012451	0.805113	0.589659	-1.000000	-1.000000	-1.000000	-1.000000	-1.000000	-1.000000	-1.000000	139.172414	0.000000	-1.000000	-1.000000	429686.000000	1772918888.731196
-4755.105000	23941.215000	-18115.155000	-14745.330000	0.000000	0.000000	0.000000	0.000000	9.086896	-111.369260	13.905717	-0.722941	-0.000000	-0.000000	-0.000000	0.000000	12.497940	1.846460	-1.281840	-0.012451	0.805113	0.589659	-1.000000	-1.000000	-1.000000	-1.000000	-1.000000	-1.000000	-1.000000	139.172414	0.000000	-1.000000	-1.000000	429687.000000	1772918888.731199
-4727.430000	23886.720000	-18095.715000	-14715.135000	0.000000	0.000000	0.000000	0.000000	71.688360	-90.334497	99.834018	117.853428	-0.000000	-0.000000	-0.000000	0.000000	12.497940	1.846460	-1.281840	-0.012451	0.805113	0.589659	-1.000000	-1.000000	-1.000000	-1.000000	-1.000000	-1.000000	-1.000000	139.172414	0.000000	-1.000000	-1.000000	429688.000000	1772918888.735542
-4744.980000	23808.960000	-18126.630000	-14738.715000	0.000000	0.000000	0.000000	0.000000	99.977297	-43.238691	136.274770	178.718424	-0.000000	-0.000000	-0.000000	0.000000	12.497940	1.846460	-1.281840	-0.012451	0.805113	0.589659	-1.000000	-1.000000	-1.000000	-1.000000	-1.000000	-1.000000	-1.000000	139.172414	0.000000	-1.000000	-1.000000	429689.000000	1772918888.735545
-4825.755000	23900.175000	-18225.045000	-14833.305000	0.000000	0.000000	0.000000	0.000000	78.387021	-2.816142	103.121243	149.335889	-0.000000	-0.000000	-0.000000	0.000000	12.497940	1.846460	-1.281840	-0.012451	0.805113	0.589659	-1.000000	-1.000000	-1.000000	-1.000000	-1.000000	-1.000000	-1.000000	139.172414	0.000000	-1.000000	-1.000000	429690.000000	1772918888.737905
-4964.355000	23929.785000	-18395.955000	-15019.065000	0.000000	0.000000	0.000000	0.000000	14.839830	22.275765	15.282424	44.849644	-0.000000	-0.000000	-0.000000	0.000000	12.497940	1.846460	-1.281840	-0.012451	0.805113	0.589659	-1.000000	-1.000000	-1.000000	-1.000000	-1.000000	-1.000000	-1.000000	139.172414	0.000000	-1.000000	-1.000000	429691.000000	1772918888.737909
-5008.320000	23921.910000	-18436.680000	-15083.415000	0.000000	0.000000	0.000000	0.000000	-61.575697	38.411626	-84.884974	-82.974778	-0.000000	-0.000000	-0.000000	0.000000	12.497940	1.846460	-1.281840	-0.012451	0.805113	0.589659	-1.000000	-1.000000	-1.000000	-1.000000	-1.000000	-1.000000	-1.000000	139.172414	0.000000	-1.000000	-1.000000	429692.000000	1772918888.742044
-4970.115000	23998.905000	-18394.830000	-15068.160000	0.000000	0.000000	0.000000	0.000000	-110.850465	46.818202	-145.137512	-169.918091	-0.000000	-0.000000	-0.000000	0.000000	12.497940	1.846460	-1.281840	-0.012451	0.805113	0.589659	-1.000000	-1.000000	-1.000000	-1.000000	-1.000000	-1.000000	-1.000000	139.172414	0.000000	-1.000000	-1.000000	429693.000000	1772918888.742046
-4903.695000	23980.545000	-18314.730000	-14975.145000	0.000000	0.000000	0.000000	0.000000	-102.764969	45.213806	-130.295018	-170.454402	-0.000000	-0.000000	-0.000000	0.000000	12.467420	4.379620	-0.763000	-0.012512	0.801145	0.584959	-1.000000	-1.000000	-1.000000	-1.000000	-1.000000	-1.000000	-1.000000	139.172414	0.000000	-1.000000	-1.000000	429694.000000	1772918888.746613
-4765.320000	23877.135000	-18139.455000	-14775.435000	0.000000	0.000000	0.000000	0.000000	-38.063522	30.653469	-45.525132	-83.347369	-0.000000	-0.000000	-0.000000	0.000000	12.467420	4.379620	-0.763000	-0.012512	0.801145	0.584959	-1.000000	-1.000000	-1.000000	-1.000000	-1.000000	-1.000000	-1.000000	139.172414	0.000000	-1.000000	-1.000000	429695.000000	1772918888.746615
-4696.335000	23875.020000	-18054.315000	-14664.915000	0.000000	0.000000	0.000000	0.000000	50.651270	1.754624	66.467543	47.911196	-0.000000	-0.000000	-0.000000	0.000000	12.467420	4.379620	-0.763000	-0.012512	0.801145	0.584959	-1.000000	-1.000000	-1.000000	-1.000000	-1.000000	-1.000000	-1.000000	139.172414	0.000000	-1.000000	-1.000000	429696.000000	1772918888.755299
-4720.995000	23794.200000	-18099.630000	-14708.565000	0.000000	0.000000	0.000000	0.000000	115.989071	-31.704561	146.841527	154.739721	-0.000000	-0.000000	-0.000000	0.000000	12.467420	4.379620	-0.763000	-0.012512	0.801145	0.584959	-1.000000	-1.000000	-1.000000	-1.000000	-1.000000	-1.000000	-1.000000	139.172414	0.000000	-1.000000	-1.000000	429697.000000	1772918888.755302
-4746.735000	23729.220000	-18158.895000	-14766.570000	0.000000	0.000000	0.000000	0.000000	121.228084	-53.542867	150.276039	177.830597	-0.000000	-0.000000	-0.000000	0.000000	12.467420	4.379620	-0.763000	-0.012512	0.801145	0.584959	-1.000000	-1.000000	-1.000000	-1.000000	-1.000000	-1.000000	-1.000000	139.172414	0.000000	-1.000000	-1.000000	429698.000000	1772918888.755306
-4856.985000	23734.845000	-18319.680000	-14913.270000	0.000000	0.000000	0.000000	0.000000	63.063001	-53.772389	73.158903	104.683539	-0.000000	-0.000000	-0.000000	0.000000	12.467420	4.379620	-0.763000	-0.012512	0.801145	0.584959	-1.000000	-1.000000	-1.000000	-1.000000	-1.000000	-1.000000	-1.000000	139.172414	0.000000	-1.000000	-1.000000	429699.000000	1772918888.755309
-4940.505000	23709.690000	-18385.245000	-14994.540000	0.000000	0.000000	0.000000	0.000000	-27.970251	-31.054459	-43.522333	-22.642910	-0.000000	-0.000000	-0.000000	0.000000	12.467420	4.379620	-0.763000	-0.012512	0.801145	0.584959	-1.000000	-1.000000	-1.000000	-1.000000	-1.000000	-1.000000	-1.000000	139.172414	0.000000	-1.000000	-1.000000	429700.000000	1772918888.758835
-4953.690000	23710.185000	-18351.855000	-14963.355000	0.000000	0.000000	0.000000	0.000000	-105.968173	6.192664	-136.850909	-133.835085	-0.000000	-0.000000	-0.000000	0.000000	12.467420	4.379620	-0.763000	-0.012512	0.801145	0.584959	-1.000000	-1.000000	-1.000000	-1.000000	-1.000000	-1.000000	-1.000000	139.172414	0.000000	-1.000000	-1.000000	429701.000000	1772918888.758837
-4899.780000	23695.920000	-18282.600000	-14927.220000	0.000000	0.000000	0.000000	0.000000	-131.387241	41.754985	-155.930533	-169.993077	-0.000000	-0.000000	-0.000000	0.000000	12.467420	4.379620	-0.763000	-0.012512	0.801145	0.584959	-1.000000	-1.000000	-1.000000	-1.000000	-1.000000	-1.000000	-1.000000	139.172414	0.000000	-1.000000	-1.000000	429702.000000	1772918888.762568
-4778.775000	23752.485000	-18169.515000	-14794.515000	0.000000	0.000000	0.000000	0.000000	-90.346101	61.989622	-92.412774	-116.662419	-0.000000	-0.000000	-0.000000	0.000000	12.467420	4.379620	-0.763000	-0.012512	0.801145	0.584959	-1.000000	-1.000000	-1.000000	-1.000000	-1.000000	-1.000000	-1.000000	139.172414	0.000000	-1.000000	-1.000000	429703.000000	1772918888.762572
-4723.515000	23847.345000	-18103.905000	-14686.650000	0.000000	0.000000	0.000000	0.000000	-3.569350	64.736177	15.701118	-7.282754	-0.000000	-0.000000	-0.000000	0.000000	8.820280	2.472120	-1.236060	-0.016540	0.803160	0.580748	-1.000000	-1.000000	-1.000000	-1.000000	-1.000000	-1.000000	-1.000000	139.172414	0.000000	-1.000000	-1.000000	429704.000000	1772918888.768485
-4763.790000	23924.295000	-18132.210000	-14745.735000	0.000000	0.000000	0.000000	0.000000	81.468212	56.544132	108.219469	98.056211	-0.000000	-0.000000	-0.000000	0.000000	8.820280	2.472120	-1.236060	-0.016540	0.803160	0.580748	-1.000000	-1.000000	-1.000000	-1.000000	-1.000000	-1.000000	-1.000000	139.172414	0.000000	-1.000000	-1.000000	429705.000000	1772918888.768488
-4795.920000	23918.265000	-18161.730000	-14800.185000	0.000000	0.000000	0.000000	0.000000	117.245072	40.737981	137.097835	142.419421	-0.000000	-0.000000	-0.000000	0.000000	8.820280	2.472120	-1.236060	-0.016540	0.803160	0.580748	-1.000000	-1.000000	-1.000000	-1.000000	-1.000000	-1.000000	-1.000000	139.172414	0.000000	-1.000000	-1.000000	429706.000000	1772918888.772156
-4894.515000	23835.915000	-18284.580000	-14898.465000	0.000000	0.000000	0.000000	0.000000	87.343460	12.271263	92.355477	105.349795	-0.000000	-0.000000	-0.000000	0.000000	8.820280	2.472120	-1.236060	-0.016540	0.803160	0.580748	-1.000000	-1.000000	-1.000000	-1.000000	-1.000000	-1.000000	-1.000000	139.172414	0.000000	-1.000000	-1.000000	429707.000000	1772918888.772160
-5006.475000	23724.000000	-18415.170000	-15029.415000	0.000000	0.000000	0.000000	0.000000	13.050554	-32.599675	1.929530	13.899122	-0.000000	-0.000000	-0.000000	0.000000	8.820280	2.472120	-1.236060	-0.016540	0.803160	0.580748	-1.000000	-1.000000	-1.000000	-1.000000	-1.000000	-1.000000	-1.000000	139.172414	0.000000	-1.000000	-1.000000	429708.000000	1772918888.774735
-4998.015000	23732.370000	-18409.320000	-15023.340000	0.000000	0.000000	0.000000	0.000000	-63.374321	-81.794749	-86.291322	-78.560073	-0.000000	-0.000000	-0.000000	0.000000	8.820280	2.472120	-1.236060	-0.016540	0.803160	0.580748	-1.000000	-1.000000	-1.000000	-1.000000	-1.000000	-1.000000	-1.000000	139.172414	0.000000	-1.000000	-1.000000	429709.000000	1772918888.774738
-4963.680000	23790.960000	-18431.190000	-14995.530000	0.000000	0.000000	0.000000	0.000000	-99.829306	-106.602231	-126.376294	-121.719757	-0.000000	-0.000000	-0.000000	0.000000	8.820280	2.472120	-1.236060	-0.016540	0.803160	0.580748	-1.000000	-1.000000	-1.000000	-1.000000	-1.000000	-1.000000	-1.000000	139.172414	0.000000	-1.000000	-1.000000	429710.000000	1772918888.782494
-4970.115000	23809.815000	-18339.795000	-14873.040000	0.000000	0.000000	0.000000	0.000000	-78.292935	-84.729995	-98.767658	-93.464158	-0.000000	-0.000000	-0.000000	0.000000	8.820280	2.472120	-1.236060	-0.016540	0.803160	0.580748	-1.000000	-1.000000	-1.000000	-1.000000	-1.000000	-1.000000	-1.000000	139.172414	0.000000	-1.000000	-1.000000	429711.000000	1772918888.782498
-4881.375000	23879.205000	-18156.915000	-14700.015000	0.000000	0.000000	0.000000	0.000000	-15.945286	-23.687753	-18.172447	-9.724518	-0.000000	-0.000000	-0.000000	0.000000	8.820280	2.472120	-1.236060	-0.016540	0.803160	0.580748	-1.000000	-1.000000	-1.000000	-1.000000	-1.000000	-1.000000	-1.000000	139.172414	0.000000	-1.000000	-1.000000	429712.000000	1772918888.782502
-4733.145000	24009.075000	-18113.805000	-14697.135000	0.000000	0.000000	0.000000	0.000000	53.726840	46.750064	77.431951	84.810112	-0.000000	-0.000000	-0.000000	0.000000	8.820280	2.472120	-1.236060	-0.016540	0.803160	0.580748	-1.000000	-1.000000	-1.000000	-1.000000	-1.000000	-1.000000	-1.000000	139.172414	0.000000	-1.000000	-1.000000	429713.000000	1772918888.782504
-4733.145000	24009.075000	-18113.805000	-14697.135000	0.000000	0.000000	0.000000	0.000000	101.785169	96.320425	139.707660	136.820872	-0.000000	-0.000000	-0.000000	0.000000	8.820280	2.472120	-1.236060	-0.016540	0.803160	0.580748	-1.000000	-1.000000	-1.000000	-1.000000	-1.000000	-1.000000	-1.000000	139.172414	0.000000	-1.000000	-1.000000	429714.000000	1772918888.787952
-4733.145000	24009.075000	-18113.805000	-14697.135000	0.000000	0.000000	0.000000	0.000000	107.053420	103.887065	133.909706	116.431999	-0.000000	-0.000000	-0.000000	0.000000	8.820280	2.472120	-1.236060	-0.016540	0.803160	0.580748	-1.000000	-1.000000	-1.000000	-1.000000	-1.000000	-1.000000	-1.000000	139.172414	0.000000	-1.000000	-1.000000	429715.000000	1772918888.787956
-4733.145000	24009.075000	-18113.805000	-14697.135000	0.000000	0.000000	0.000000	0.000000	64.182320	65.643566	64.655136	38.924797	-0.000000	-0.000000	-0.000000	0.000000	8.820280	2.472120	-1.236060	-0.016540	0.803160	0.580748	-1.000000	-1.000000	-1.000000	-1.000000	-1.000000	-1.000000	-1.000000	139.172414	0.000000	-1.000000	-1.000000	429716.000000	1772918888.787958
-5110.290000	24295.995000	-18538.155000	-15006.825000	0.000000	0.000000	0.000000	0.000000	-13.284035	6.461132	-35.888838	-55.710113	-0.000000	-0.000000	-0.000000	0.000000	11.322920	-0.946120	2.929920	-0.022339	0.824888	0.582457	-1.000000	-1.000000	-1.000000	-1.000000	-1.000000	-1.000000	-1.000000	139.172414	0.000000	-1.000000	-1.000000	429718.000000	1772918888.794770
-4915.260000	24319.845000	-18393.930000	-14846.580000	0.000000	0.000000	0.000000	0.000000	-98.002135	-33.509071	-131.441895	-130.516218	-0.000000	-0.000000	-0.000000	0.000000	11.322920	-0.946120	2.929920	-0.022339	0.824888	0.582457	-1.000000	-1.000000	-1.000000	-1.000000	-1.000000	-1.000000	-1.000000	139.172414	0.000000	-1.000000	-1.000000	429719.000000	1772918888.794774
-4689.945000	24434.955000	-18124.380000	-14637.690000	0.000000	0.000000	0.000000	0.000000	-140.186485	-37.982664	-171.741568	-147.441370	-0.000000	-0.000000	-0.000000	0.000000	11.322920	-0.946120	2.929920	-0.022339	0.824888	0.582457	-1.000000	-1.000000	-1.000000	-1.000000	-1.000000	-1.000000	-1.000000	139.172414	0.000000	-1.000000	-1.000000	429720.000000	1772918888.798780
-4731.075000	24582.060000	-18132.705000	-14609.655000	0.000000	0.000000	0.000000	0.000000	-99.645787	-22.593106	-116.220604	-84.862384	-0.000000	-0.000000	-0.000000	0.000000	11.322920	-0.946120	2.929920	-0.022339	0.824888	0.582457	-1.000000	-1.000000	-1.000000	-1.000000	-1.000000	-1.000000	-1.000000	139.172414	0.000000	-1.000000	-1.000000	429721.000000	1772918888.798784
-4939.470000	24621.255000	-18283.635000	-14789.520000	0.000000	0.000000	0.000000	0.000000	-7.574026	-7.611803	1.966241	18.961132	-0.000000	-0.000000	-0.000000	0.000000	11.322920	-0.946120	2.929920	-0.022339	0.824888	0.582457	-1.000000	-1.000000	-1.000000	-1.000000	-1.000000	-1.000000	-1.000000	139.172414	0.000000	-1.000000	-1.000000	429722.000000	1772918888.802607
-5045.265000	24604.695000	-18365.805000	-14947.605000	0.000000	0.000000	0.000000	0.000000	57.725259	-6.752411	94.483001	86.223063	-0.000000	-0.000000	-0.000000	0.000000	11.322920	-0.946120	2.929920	-0.022339	0.824888	0.582457	-1.000000	-1.000000	-1.000000	-1.000000	-1.000000	-1.000000	-1.000000	139.172414	0.000000	-1.000000	-1.000000	429723.000000	1772918888.802611
-5027.355000	24588.945000	-18402.795000	-15091.695000	0.000000	0.000000	0.000000	0.000000	57.846308	-25.663678	107.435736	73.874382	-0.000000	-0.000000	-0.000000	0.000000	4.761120	-5.005280	1.861720	-0.018616	0.837339	0.574706	-1.000000	-1.000000	-1.000000	-1.000000	-1.000000	-1.000000	-1.000000	139.172414	0.000000	-1.000000	-1.000000	429724.000000	1772918888.806854
-4930.425000	24561.495000	-18396.945000	-15118.155000	0.000000	0.000000	0.000000	0.000000	23.037506	-55.034364	58.655241	7.769967	-0.000000	-0.000000	-0.000000	0.000000	4.761120	-5.005280	1.861720	-0.018616	0.837339	0.574706	-1.000000	-1.000000	-1.000000	-1.000000	-1.000000	-1.000000	-1.000000	139.172414	0.000000	-1.000000	-1.000000	429725.000000	1772918888.806859
-4877.595000	24544.485000	-18354.600000	-15025.320000	0.000000	0.000000	0.000000	0.000000	3.820686	-75.074989	1.404294	-47.993562	-0.000000	-0.000000	-0.000000	0.000000	4.761120	-5.005280	1.861720	-0.018616	0.837339	0.574706	-1.000000	-1.000000	-1.000000	-1.000000	-1.000000	-1.000000	-1.000000	139.172414	0.000000	-1.000000	-1.000000	429726.000000	1772918888.810810
-4862.925000	24449.535000	-18343.080000	-14948.595000	0.000000	0.000000	0.000000	0.000000	17.352879	-71.535304	-24.858213	-45.119518	-0.000000	-0.000000	-0.000000	0.000000	4.761120	-5.005280	1.861720	-0.018616	0.837339	0.574706	-1.000000	-1.000000	-1.000000	-1.000000	-1.000000	-1.000000	-1.000000	139.172414	0.000000	-1.000000	-1.000000	429727.000000	1772918888.810815
-4903.695000	24289.065000	-18291.825000	-14833.395000	0.000000	0.000000	0.000000	0.000000	41.315321	-47.727356	-15.221230	14.825475	-0.000000	-0.000000	-0.000000	0.000000	4.761120	-5.005280	1.861720	-0.018616	0.837339	0.574706	-1.000000	-1.000000	-1.000000	-1.000000	-1.000000	-1.000000	-1.000000	139.172414	0.000000	-1.000000	-1.000000	429728.000000	1772918888.814773
-4801.950000	24194.430000	-18124.470000	-14730.795000	0.000000	0.000000	0.000000	0.000000	47.353362	-18.588450	13.529801	89.392076	-0.000000	-0.000000	-0.000000	0.000000	4.761120	-5.005280	1.861720	-0.018616	0.837339	0.574706	-1.000000	-1.000000	-1.000000	-1.000000	-1.000000	-1.000000	-1.000000	139.172414	0.000000	-1.000000	-1.000000	429729.000000	1772918888.814776
-4717.890000	24225.030000	-18060.165000	-14685.075000	0.000000	0.000000	0.000000	0.000000	31.557674	9.100279	43.076764	130.506442	-0.000000	-0.000000	-0.000000	0.000000	4.761120	-5.005280	1.861720	-0.018616	0.837339	0.574706	-1.000000	-1.000000	-1.000000	-1.000000	-1.000000	-1.000000	-1.000000	139.172414	0.000000	-1.000000	-1.000000	429730.000000	1772918888.817909
-4681.080000	24308.595000	-18106.740000	-14665.995000	0.000000	0.000000	0.000000	0.000000	8.783241	42.963456	55.106432	112.412724	-0.000000	-0.000000	-0.000000	0.000000	4.761120	-5.005280	1.861720	-0.018616	0.837339	0.574706	-1.000000	-1.000000	-1.000000	-1.000000	-1.000000	-1.000000	-1.000000	139.172414	0.000000	-1.000000	-1.000000	429731.000000	1772918888.817913
-4867.785000	24264.585000	-18310.230000	-14834.880000	0.000000	0.000000	0.000000	0.000000	-14.678523	84.987734	30.318195	38.958848	-0.000000	-0.000000	-0.000000	0.000000	4.761120	-5.005280	1.861720	-0.018616	0.837339	0.574706	-1.000000	-1.000000	-1.000000	-1.000000	-1.000000	-1.000000	-1.000000	139.172414	0.000000	-1.000000	-1.000000	429732.000000	1772918888.824384
-4985.505000	24071.985000	-18397.755000	-14986.710000	0.000000	0.000000	0.000000	0.000000	-46.824008	112.495566	-33.803285	-64.420598	-0.000000	-0.000000	-0.000000	0.000000	4.761120	-5.005280	1.861720	-0.018616	0.837339	0.574706	-1.000000	-1.000000	-1.000000	-1.000000	-1.000000	-1.000000	-1.000000	139.172414	0.000000	-1.000000	-1.000000	429733.000000	1772918888.824387
-4971.645000	24054.030000	-18379.440000	-15040.980000	0.000000	0.000000	0.000000	0.000000	-83.975835	96.798748	-104.839040	-157.345942	-0.000000	-0.000000	-0.000000	0.000000	-41.140960	0.427280	-0.488320	-0.009460	0.837034	0.540709	-1.000000	-1.000000	-1.000000	-1.000000	-1.000000	-1.000000	-1.000000	139.172414	0.000000	-1.000000	-1.000000	429734.000000	1772918888.826945
-4824.855000	23980.500000	-18229.455000	-14811.165000	0.000000	0.000000	0.000000	0.000000	-96.239321	40.938928	-130.152550	-190.208077	-0.000000	-0.000000	-0.000000	0.000000	-41.140960	0.427280	-0.488320	-0.009460	0.837034	0.540709	-1.000000	-1.000000	-1.000000	-1.000000	-1.000000	-1.000000	-1.000000	139.172414	0.000000	-1.000000	-1.000000	429735.000000	1772918888.826948
-4673.700000	23951.655000	-18025.695000	-14653.440000	0.000000	0.000000	0.000000	0.000000	-55.143966	-20.980113	-78.898313	-130.147287	-0.000000	-0.000000	-0.000000	0.000000	-41.140960	0.427280	-0.488320	-0.009460	0.837034	0.540709	-1.000000	-1.000000	-1.000000	-1.000000	-1.000000	-1.000000	-1.000000	139.172414	0.000000	-1.000000	-1.000000	429736.000000	1772918888.833618
-4777.740000	24004.980000	-18101.835000	-14660.370000	0.000000	0.000000	0.000000	0.000000	26.185912	-55.465003	25.429537	-0.344880	-0.000000	-0.000000	-0.000000	0.000000	-41.140960	0.427280	-0.488320	-0.009460	0.837034	0.540709	-1.000000	-1.000000	-1.000000	-1.000000	-1.000000	-1.000000	-1.000000	139.172414	0.000000	-1.000000	-1.000000	429737.000000	1772918888.833621
-4889.610000	24003.990000	-18223.785000	-14656.770000	0.000000	0.000000	0.000000	0.000000	91.718233	-49.624960	112.449101	122.078109	-0.000000	-0.000000	-0.000000	0.000000	-41.140960	0.427280	-0.488320	-0.009460	0.837034	0.540709	-1.000000	-1.000000	-1.000000	-1.000000	-1.000000	-1.000000	-1.000000	139.172414	0.000000	-1.000000	-1.000000	429738.000000	1772918888.865088
-4859.865000	24018.120000	-18332.685000	-14743.485000	0.000000	0.000000	0.000000	0.000000	95.154253	-15.637508	120.700787	165.865695	-0.000000	-0.000000	-0.000000	0.000000	-41.140960	0.427280	-0.488320	-0.009460	0.837034	0.540709	-1.000000	-1.000000	-1.000000	-1.000000	-1.000000	-1.000000	-1.000000	139.172414	0.000000	-1.000000	-1.000000	429739.000000	1772918888.865093
-4802.400000	23974.200000	-18435.555000	-14941.845000	0.000000	0.000000	0.000000	0.000000	46.647574	19.058487	50.360673	113.907519	-0.000000	-0.000000	-0.000000	0.000000	-41.140960	0.427280	-0.488320	-0.009460	0.837034	0.540709	-1.000000	-1.000000	-1.000000	-1.000000	-1.000000	-1.000000	-1.000000	139.172414	0.000000	-1.000000	-1.000000	429740.000000	1772918888.865108
-4996.575000	23866.380000	-18502.245000	-15106.365000	0.000000	0.000000	0.000000	0.000000	-10.946329	30.220123	-44.806087	1.023847	-0.000000	-0.000000	-0.000000	0.000000	-41.140960	0.427280	-0.488320	-0.009460	0.837034	0.540709	-1.000000	-1.000000	-1.000000	-1.000000	-1.000000	-1.000000	-1.000000	139.172414	0.000000	-1.000000	-1.000000	429741.000000	1772918888.865110
-5001.570000	23838.480000	-18293.130000	-15040.575000	0.000000	0.000000	0.000000	0.000000	-51.104969	11.188774	-100.356899	-107.537782	-0.000000	-0.000000	-0.000000	0.000000	-41.140960	0.427280	-0.488320	-0.009460	0.837034	0.540709	-1.000000	-1.000000	-1.000000	-1.000000	-1.000000	-1.000000	-1.000000	139.172414	0.000000	-1.000000	-1.000000	429742.000000	1772918888.865116
-4799.565000	23878.080000	-17984.655000	-14873.490000	0.000000	0.000000	0.000000	0.000000	-62.054564	-20.873538	-74.627597	-144.457955	-0.000000	-0.000000	-0.000000	0.000000	-41.140960	0.427280	-0.488320	-0.009460	0.837034	0.540709	-1.000000	-1.000000	-1.000000	-1.000000	-1.000000	-1.000000	-1.000000	139.172414	0.000000	-1.000000	-1.000000	429743.000000	1772918888.865118
-4704.165000	23811.255000	-17874.585000	-14714.640000	0.000000	0.000000	0.000000	0.000000	-32.223777	-39.373133	23.694401	-82.419873	-0.000000	-0.000000	-0.000000	0.000000	-123.209240	-7.309540	9.415420	-0.011291	0.915342	0.529234	-1.000000	-1.000000	-1.000000	-1.000000	-1.000000	-1.000000	-1.000000	139.172414	0.000000	-1.000000	-1.000000	429744.000000	1772918888.865121
-4748.580000	23708.070000	-17943.885000	-14710.005000	0.000000	0.000000	0.000000	0.000000	26.110907	-35.749071	126.329403	38.996156	-0.000000	-0.000000	-0.000000	0.000000	-123.209240	-7.309540	9.415420	-0.011291	0.915342	0.529234	-1.000000	-1.000000	-1.000000	-1.000000	-1.000000	-1.000000	-1.000000	139.172414	0.000000	-1.000000	-1.000000	429745.000000	1772918888.865124
-4765.590000	23704.965000	-18122.805000	-14767.290000	0.000000	0.000000	0.000000	0.000000	69.782424	-21.380352	149.768515	137.573630	-0.000000	-0.000000	-0.000000	0.000000	-123.209240	-7.309540	9.415420	-0.011291	0.915342	0.529234	-1.000000	-1.000000	-1.000000	-1.000000	-1.000000	-1.000000	-1.000000	139.172414	0.000000	-1.000000	-1.000000	429746.000000	1772918888.865127
-4773.780000	23610.735000	-18125.640000	-14716.170000	0.000000	0.000000	0.000000	0.000000	65.670230	-6.926981	67.487453	152.005590	-0.000000	-0.000000	-0.000000	0.000000	-123.209240	-7.309540	9.415420	-0.011291	0.915342	0.529234	-1.000000	-1.000000	-1.000000	-1.000000	-1.000000	-1.000000	-1.000000	139.172414	0.000000	-1.000000	-1.000000	429747.000000	1772918888.865129
-4844.115000	23634.630000	-18301.905000	-14833.440000	0.000000	0.000000	0.000000	0.000000	19.355445	5.219696	-67.737186	83.662046	-0.000000	-0.000000	-0.000000	0.000000	-123.209240	-7.309540	9.415420	-0.011291	0.915342	0.529234	-1.000000	-1.000000	-1.000000	-1.000000	-1.000000	-1.000000	-1.000000	139.172414	0.000000	-1.000000	-1.000000	429748.000000	1772918888.865132
-4785.435000	23569.470000	-18326.655000	-14977.440000	0.000000	0.000000	0.000000	0.000000	-37.259477	15.992947	-173.961809	-22.782186	-0.000000	-0.000000	-0.000000	0.000000	-123.209240	-7.309540	9.415420	-0.011291	0.915342	0.529234	-1.000000	-1.000000	-1.000000	-1.000000	-1.000000	-1.000000	-1.000000	139.172414	0.000000	-1.000000	-1.000000	429749.000000	1772918888.865133
-4856.625000	23510.160000	-18369.135000	-15062.400000	0.000000	0.000000	0.000000	0.000000	-71.465709	23.781250	-197.544035	-117.355056	-0.000000	-0.000000	-0.000000	0.000000	-123.209240	-7.309540	9.415420	-0.011291	0.915342	0.529234	-1.000000	-1.000000	-1.000000	-1.000000	-1.000000	-1.000000	-1.000000	139.172414	0.000000	-1.000000	-1.000000	429750.000000	1772918888.865137
-4843.620000	23660.235000	-18281.655000	-14981.805000	0.000000	0.000000	0.000000	0.000000	-70.028806	27.263004	-132.105332	-158.882404	-0.000000	-0.000000	-0.000000	0.000000	-123.209240	-7.309540	9.415420	-0.011291	0.915342	0.529234	-1.000000	-1.000000	-1.000000	-1.000000	-1.000000	-1.000000	-1.000000	139.172414	0.000000	-1.000000	-1.000000	429751.000000	1772918888.865138
-4826.205000	23787.855000	-18216.315000	-14933.340000	0.000000	0.000000	0.000000	0.000000	-40.822522	34.273522	-11.171791	-125.507334	-0.000000	-0.000000	-0.000000	0.000000	-123.209240	-7.309540	9.415420	-0.011291	0.915342	0.529234	-1.000000	-1.000000	-1.000000	-1.000000	-1.000000	-1.000000	-1.000000	139.172414	0.000000	-1.000000	-1.000000	429752.000000	1772918888.865141
-4828.545000	23878.755000	-18093.780000	-14821.110000	0.000000	0.000000	0.000000	0.000000	-0.171238	50.220777	111.929129	-31.413453	-0.000000	-0.000000	-0.000000	0.000000	-123.209240	-7.309540	9.415420	-0.011291	0.915342	0.529234	-1.000000	-1.000000	-1.000000	-1.000000	-1.000000	-1.000000	-1.000000	139.172414	0.000000	-1.000000	-1.000000	429753.000000	1772918888.865143
-4671.540000	24048.450000	-17984.970000	-14713.380000	0.000000	0.000000	0.000000	0.000000	37.414794	64.074171	189.223230	77.554589	-0.000000	-0.000000	-0.000000	0.000000	-118.112400	-35.586320	27.773200	-0.033020	0.998899	0.621275	-1.000000	-1.000000	-1.000000	-1.000000	-1.000000	-1.000000	-1.000000	139.172414	0.000000	-1.000000	-1.000000	429754.000000	1772918888.865789
-4698.540000	24131.700000	-18095.175000	-14812.695000	0.000000	0.000000	0.000000	0.000000	63.173867	60.025453	193.345973	148.311883	-0.000000	-0.000000	-0.000000	0.000000	-118.112400	-35.586320	27.773200	-0.033020	0.998899	0.621275	-1.000000	-1.000000	-1.000000	-1.000000	-1.000000	-1.000000	-1.000000	139.172414	0.000000	-1.000000	-1.000000	429755.000000	1772918888.865793
-4791.240000	24180.795000	-18303.390000	-14907.015000	0.000000	0.000000	0.000000	0.000000	66.614291	30.706021	118.595050	143.781007	-0.000000	-0.000000	-0.000000	0.000000	-118.112400	-35.586320	27.773200	-0.033020	0.998899	0.621275	-1.000000	-1.000000	-1.000000	-1.000000	-1.000000	-1.000000	-1.000000	139.172414	0.000000	-1.000000	-1.000000	429756.000000	1772918888.869959
-4785.165000	24213.195000	-18474.570000	-15022.215000	0.000000	0.000000	0.000000	0.000000	38.510244	-20.003456	-12.855202	64.862541	-0.000000	-0.000000	-0.000000	0.000000	-118.112400	-35.586320	27.773200	-0.033020	0.998899	0.621275	-1.000000	-1.000000	-1.000000	-1.000000	-1.000000	-1.000000	-1.000000	139.172414	0.000000	-1.000000	-1.000000	429757.000000	1772918888.869963
-4855.815000	24083.010000	-18484.290000	-15151.140000	0.000000	0.000000	0.000000	0.000000	-10.599217	-78.625530	-143.665439	-45.730005	-0.000000	-0.000000	-0.000000	0.000000	-118.112400	-35.586320	27.773200	-0.033020	0.998899	0.621275	-1.000000	-1.000000	-1.000000	-1.000000	-1.000000	-1.000000	-1.000000	139.172414	0.000000	-1.000000	-1.000000	429758.000000	1772918888.877259
-4999.725000	24037.920000	-18441.810000	-15093.990000	0.000000	0.000000	0.000000	0.000000	-56.632626	-128.352471	-204.403108	-128.787065	-0.000000	-0.000000	-0.000000	0.000000	-118.112400	-35.586320	27.773200	-0.033020	0.998899	0.621275	-1.000000	-1.000000	-1.000000	-1.000000	-1.000000	-1.000000	-1.000000	139.172414	0.000000	-1.000000	-1.000000	429759.000000	1772918888.877264
-5081.355000	24125.445000	-18391.545000	-15019.965000	0.000000	0.000000	0.000000	0.000000	-82.913394	-148.390512	-161.386211	-139.688518	-0.000000	-0.000000	-0.000000	0.000000	-118.112400	-35.586320	27.773200	-0.033020	0.998899	0.621275	-1.000000	-1.000000	-1.000000	-1.000000	-1.000000	-1.000000	-1.000000	139.172414	0.000000	-1.000000	-1.000000	429760.000000	1772918888.879157
-4908.870000	24236.730000	-18226.395000	-14924.340000	0.000000	0.000000	0.000000	0.000000	-77.729872	-117.270062	-40.286538	-73.078983	-0.000000	-0.000000	-0.000000	0.000000	-118.112400	-35.586320	27.773200	-0.033020	0.998899	0.621275	-1.000000	-1.000000	-1.000000	-1.000000	-1.000000	-1.000000	-1.000000	139.172414	0.000000	-1.000000	-1.000000	429761.000000	1772918888.879159
-4766.670000	24388.965000	-18026.730000	-14788.890000	0.000000	0.000000	0.000000	0.000000	-29.714079	-34.303586	98.122159	33.075269	-0.000000	-0.000000	-0.000000	0.000000	-118.112400	-35.586320	27.773200	-0.033020	0.998899	0.621275	-1.000000	-1.000000	-1.000000	-1.000000	-1.000000	-1.000000	-1.000000	139.172414	0.000000	-1.000000	-1.000000	429762.000000	1772918888.882449
-4764.690000	24538.320000	-17987.040000	-14766.885000	0.000000	0.000000	0.000000	0.000000	49.621135	69.516804	193.130617	122.247964	-0.000000	-0.000000	-0.000000	0.000000	-118.112400	-35.586320	27.773200	-0.033020	0.998899	0.621275	-1.000000	-1.000000	-1.000000	-1.000000	-1.000000	-1.000000	-1.000000	139.172414	0.000000	-1.000000	-1.000000	429763.000000	1772918888.882453
-4910.805000	24572.700000	-18270.765000	-14963.175000	0.000000	0.000000	0.000000	0.000000	112.444820	147.010493	198.255716	146.329410	-0.000000	-0.000000	-0.000000	0.000000	15.870400	-76.544160	68.074860	-0.079468	0.964170	0.767759	-1.000000	-1.000000	-1.000000	-1.000000	-1.000000	-1.000000	-1.000000	139.172414	0.000000	-1.000000	-1.000000	429764.000000	1772918888.886108
-4869.315000	24616.215000	-18553.905000	-15075.540000	0.000000	0.000000	0.000000	0.000000	112.272912	160.644458	95.827666	86.801411	-0.000000	-0.000000	-0.000000	0.000000	15.870400	-76.544160	68.074860	-0.079468	0.964170	0.767759	-1.000000	-1.000000	-1.000000	-1.000000	-1.000000	-1.000000	-1.000000	139.172414	0.000000	-1.000000	-1.000000	429765.000000	1772918888.886112
-5018.400000	24597.720000	-18763.380000	-15241.095000	0.000000	0.000000	0.000000	0.000000	49.690009	104.719917	-75.624327	-27.514499	-0.000000	-0.000000	-0.000000	0.000000	15.870400	-76.544160	68.074860	-0.079468	0.964170	0.767759	-1.000000	-1.000000	-1.000000	-1.000000	-1.000000	-1.000000	-1.000000	139.172414	0.000000	-1.000000	-1.000000	429766.000000	1772918888.890247
-4940.550000	24583.005000	-18696.330000	-15149.790000	0.000000	0.000000	0.000000	0.000000	-33.055586	8.295276	-222.503048	-130.375812	-0.000000	-0.000000	-0.000000	0.000000	15.870400	-76.544160	68.074860	-0.079468	0.964170	0.767759	-1.000000	-1.000000	-1.000000	-1.000000	-1.000000	-1.000000	-1.000000	139.172414	0.000000	-1.000000	-1.000000	429767.000000	1772918888.890249
-4645.755000	24579.135000	-18332.595000	-14814.990000	0.000000	0.000000	0.000000	0.000000	-81.885346	-83.400300	-247.029129	-153.646292	-0.000000	-0.000000	-0.000000	0.000000	15.870400	-76.544160	68.074860	-0.079468	0.964170	0.767759	-1.000000	-1.000000	-1.000000	-1.000000	-1.000000	-1.000000	-1.000000	139.172414	0.000000	-1.000000	-1.000000	429768.000000	1772918888.893965
-4664.205000	24595.380000	-18281.430000	-14809.905000	0.000000	0.000000	0.000000	0.000000	-64.164014	-132.270824	-119.990695	-74.270309	-0.000000	-0.000000	-0.000000	0.000000	15.870400	-76.544160	68.074860	-0.079468	0.964170	0.767759	-1.000000	-1.000000	-1.000000	-1.000000	-1.000000	-1.000000	-1.000000	139.172414	0.000000	-1.000000	-1.000000	429769.000000	1772918888.893969
-4883.220000	24527.115000	-18298.395000	-14731.515000	0.000000	0.000000	0.000000	0.000000	-6.962534	-125.211900	80.158246	54.700836	-0.000000	-0.000000	-0.000000	0.000000	15.870400	-76.544160	68.074860	-0.079468	0.964170	0.767759	-1.000000	-1.000000	-1.000000	-1.000000	-1.000000	-1.000000	-1.000000	139.172414	0.000000	-1.000000	-1.000000	429770.000000	1772918888.898244
-5071.815000	24521.805000	-18477.630000	-14889.645000	0.000000	0.000000	0.000000	0.000000	22.201191	-77.449542	220.401259	141.611606	-0.000000	-0.000000	-0.000000	0.000000	15.870400	-76.544160	68.074860	-0.079468	0.964170	0.767759	-1.000000	-1.000000	-1.000000	-1.000000	-1.000000	-1.000000	-1.000000	139.172414	0.000000	-1.000000	-1.000000	429771.000000	1772918888.898248
-5032.575000	24535.935000	-18493.245000	-14935.545000	0.000000	0.000000	0.000000	0.000000	-6.205265	-15.731685	220.038326	130.828254	-0.000000	-0.000000	-0.000000	0.000000	15.870400	-76.544160	68.074860	-0.079468	0.964170	0.767759	-1.000000	-1.000000	-1.000000	-1.000000	-1.000000	-1.000000	-1.000000	139.172414	0.000000	-1.000000	-1.000000	429772.000000	1772918888.902231
-4881.150000	24416.730000	-18357.525000	-14801.490000	0.000000	0.000000	0.000000	0.000000	-50.340822	36.933349	106.436771	41.918981	-0.000000	-0.000000	-0.000000	0.000000	15.870400	-76.544160	68.074860	-0.079468	0.964170	0.767759	-1.000000	-1.000000	-1.000000	-1.000000	-1.000000	-1.000000	-1.000000	139.172414	0.000000	-1.000000	-1.000000	429773.000000	1772918888.902234
-4913.955000	24283.620000	-18425.070000	-14931.315000	0.000000	0.000000	0.000000	0.000000	-52.511351	62.079236	-26.874755	-55.614926	-0.000000	-0.000000	-0.000000	0.000000	-133.799680	-102.303040	118.768580	-0.099304	0.976194	0.757322	-1.000000	-1.000000	-1.000000	-1.000000	-1.000000	-1.000000	-1.000000	139.172414	0.000000	-1.000000	-1.000000	429774.000000	1772918888.906231
-4987.305000	24131.475000	-18458.595000	-15011.280000	0.000000	0.000000	0.000000	0.000000	-7.515936	51.602620	-108.521843	-109.819580	-0.000000	-0.000000	-0.000000	0.000000	-133.799680	-102.303040	118.768580	-0.099304	0.976194	0.757322	-1.000000	-1.000000	-1.000000	-1.000000	-1.000000	-1.000000	-1.000000	139.172414	0.000000	-1.000000	-1.000000	429775.000000	1772918888.906233
-4934.610000	23971.545000	-18387.675000	-14950.395000	0.000000	0.000000	0.000000	0.000000	43.615088	16.481219	-123.767280	-112.103361	-0.000000	-0.000000	-0.000000	0.000000	-133.799680	-102.303040	118.768580	-0.099304	0.976194	0.757322	-1.000000	-1.000000	-1.000000	-1.000000	-1.000000	-1.000000	-1.000000	139.172414	0.000000	-1.000000	-1.000000	429776.000000	1772918888.909965
-4822.290000	23894.730000	-18378.810000	-14833.035000	0.000000	0.000000	0.000000	0.000000	69.899448	-18.581862	-88.766516	-70.183028	-0.000000	-0.000000	-0.000000	0.000000	-133.799680	-102.303040	118.768580	-0.099304	0.976194	0.757322	-1.000000	-1.000000	-1.000000	-1.000000	-1.000000	-1.000000	-1.000000	139.172414	0.000000	-1.000000	-1.000000	429777.000000	1772918888.909968
-4775.940000	23940.720000	-18301.005000	-14760.495000	0.000000	0.000000	0.000000	0.000000	71.160230	-27.625741	-29.645752	1.721970	-0.000000	-0.000000	-0.000000	0.000000	-133.799680	-102.303040	118.768580	-0.099304	0.976194	0.757322	-1.000000	-1.000000	-1.000000	-1.000000	-1.000000	-1.000000	-1.000000	139.172414	0.000000	-1.000000	-1.000000	429778.000000	1772918888.914285
-4843.845000	23911.200000	-18250.515000	-14730.705000	0.000000	0.000000	0.000000	0.000000	54.217828	1.164401	26.513037	73.739220	-0.000000	-0.000000	-0.000000	0.000000	-133.799680	-102.303040	118.768580	-0.099304	0.976194	0.757322	-1.000000	-1.000000	-1.000000	-1.000000	-1.000000	-1.000000	-1.000000	139.172414	0.000000	-1.000000	-1.000000	429779.000000	1772918888.914288
-5085.630000	23874.975000	-18392.940000	-14828.355000	0.000000	0.000000	0.000000	0.000000	15.270888	51.536203	57.154739	108.476288	-0.000000	-0.000000	-0.000000	0.000000	-133.799680	-102.303040	118.768580	-0.099304	0.976194	0.757322	-1.000000	-1.000000	-1.000000	-1.000000	-1.000000	-1.000000	-1.000000	139.172414	0.000000	-1.000000	-1.000000	429780.000000	1772918888.918262
-5002.740000	23920.020000	-18553.095000	-14899.815000	0.000000	0.000000	0.000000	0.000000	-43.499582	90.286623	45.764501	84.667190	-0.000000	-0.000000	-0.000000	0.000000	-133.799680	-102.303040	118.768580	-0.099304	0.976194	0.757322	-1.000000	-1.000000	-1.000000	-1.000000	-1.000000	-1.000000	-1.000000	139.172414	0.000000	-1.000000	-1.000000	429781.000000	1772918888.918265
-5102.055000	23987.250000	-18674.595000	-14996.790000	0.000000	0.000000	0.000000	0.000000	-93.416450	97.190979	-4.905862	14.705564	-0.000000	-0.000000	-0.000000	0.000000	-133.799680	-102.303040	118.768580	-0.099304	0.976194	0.757322	-1.000000	-1.000000	-1.000000	-1.000000	-1.000000	-1.000000	-1.000000	139.172414	0.000000	-1.000000	-1.000000	429782.000000	1772918888.922085
-5118.120000	23881.995000	-18573.165000	-14955.165000	0.000000	0.000000	0.000000	0.000000	-102.122644	72.220766	-60.238794	-60.146795	-0.000000	-0.000000	-0.000000	0.000000	-133.799680	-102.303040	118.768580	-0.099304	0.976194	0.757322	-1.000000	-1.000000	-1.000000	-1.000000	-1.000000	-1.000000	-1.000000	139.172414	0.000000	-1.000000	-1.000000	429783.000000	1772918888.922087
-5051.970000	23715.900000	-18531.000000	-14916.555000	0.000000	0.000000	0.000000	0.000000	-64.391159	19.858242	-73.384708	-95.165935	-0.000000	-0.000000	-0.000000	0.000000	-292.747840	-75.842200	20.204240	-0.018372	0.920469	0.677977	-1.000000	-1.000000	-1.000000	-1.000000	-1.000000	-1.000000	-1.000000	139.172414	0.000000	-1.000000	-1.000000	429784.000000	1772918888.929053
-4988.430000	23680.845000	-18558.900000	-14943.465000	0.000000	0.000000	0.000000	0.000000	2.548000	-49.496493	-29.445994	-73.227493	-0.000000	-0.000000	-0.000000	0.000000	-292.747840	-75.842200	20.204240	-0.018372	0.920469	0.677977	-1.000000	-1.000000	-1.000000	-1.000000	-1.000000	-1.000000	-1.000000	139.172414	0.000000	-1.000000	-1.000000	429785.000000	1772918888.929057
-4738.680000	23684.085000	-18264.285000	-14871.645000	0.000000	0.000000	0.000000	0.000000	74.499052	-106.489773	44.066819	-14.866268	-0.000000	-0.000000	-0.000000	0.000000	-292.747840	-75.842200	20.204240	-0.018372	0.920469	0.677977	-1.000000	-1.000000	-1.000000	-1.000000	-1.000000	-1.000000	-1.000000	139.172414	0.000000	-1.000000	-1.000000	429786.000000	1772918888.933025
-4775.670000	23710.590000	-18197.820000	-14757.165000	0.000000	0.000000	0.000000	0.000000	126.353752	-117.498346	110.709520	45.944735	-0.000000	-0.000000	-0.000000	0.000000	-292.747840	-75.842200	20.204240	-0.018372	0.920469	0.677977	-1.000000	-1.000000	-1.000000	-1.000000	-1.000000	-1.000000	-1.000000	139.172414	0.000000	-1.000000	-1.000000	429787.000000	1772918888.933028
-4911.750000	23712.705000	-18249.165000	-14743.620000	0.000000	0.000000	0.000000	0.000000	129.339346	-75.364960	138.823502	85.077999	-0.000000	-0.000000	-0.000000	0.000000	-292.747840	-75.842200	20.204240	-0.018372	0.920469	0.677977	-1.000000	-1.000000	-1.000000	-1.000000	-1.000000	-1.000000	-1.000000	139.172414	0.000000	-1.000000	-1.000000	429788.000000	1772918888.936453
-4743.855000	23689.710000	-18275.400000	-14775.525000	0.000000	0.000000	0.000000	0.000000	70.474883	-6.346130	103.941124	88.002096	-0.000000	-0.000000	-0.000000	0.000000	-292.747840	-75.842200	20.204240	-0.018372	0.920469	0.677977	-1.000000	-1.000000	-1.000000	-1.000000	-1.000000	-1.000000	-1.000000	139.172414	0.000000	-1.000000	-1.000000	429789.000000	1772918888.936456
-4865.715000	23723.775000	-18387.225000	-14931.225000	0.000000	0.000000	0.000000	0.000000	-20.238489	51.951879	12.450628	48.901575	-0.000000	-0.000000	-0.000000	0.000000	-292.747840	-75.842200	20.204240	-0.018372	0.920469	0.677977	-1.000000	-1.000000	-1.000000	-1.000000	-1.000000	-1.000000	-1.000000	139.172414	0.000000	-1.000000	-1.000000	429790.000000	1772918888.938686
-5001.255000	23709.960000	-18410.220000	-15011.775000	0.000000	0.000000	0.000000	0.000000	-98.055673	76.574937	-93.498146	-21.038058	-0.000000	-0.000000	-0.000000	0.000000	-292.747840	-75.842200	20.204240	-0.018372	0.920469	0.677977	-1.000000	-1.000000	-1.000000	-1.000000	-1.000000	-1.000000	-1.000000	139.172414	0.000000	-1.000000	-1.000000	429791.000000	1772918888.938689
-5107.770000	23684.130000	-18444.555000	-14992.605000	0.000000	0.000000	0.000000	0.000000	-141.064129	65.656015	-162.173199	-88.673104	-0.000000	-0.000000	-0.000000	0.000000	-292.747840	-75.842200	20.204240	-0.018372	0.920469	0.677977	-1.000000	-1.000000	-1.000000	-1.000000	-1.000000	-1.000000	-1.000000	139.172414	0.000000	-1.000000	-1.000000	429792.000000	1772918888.943507
-5040.765000	23708.790000	-18383.445000	-14921.685000	0.000000	0.000000	0.000000	0.000000	-140.366980	31.563162	-161.441333	-112.789045	-0.000000	-0.000000	-0.000000	0.000000	-292.747840	-75.842200	20.204240	-0.018372	0.920469	0.677977	-1.000000	-1.000000	-1.000000	-1.000000	-1.000000	-1.000000	-1.000000	139.172414	0.000000	-1.000000	-1.000000	429793.000000	1772918888.943509
-4890.555000	23713.155000	-18195.390000	-14823.225000	0.000000	0.000000	0.000000	0.000000	-87.881515	-6.007973	-91.536938	-74.389799	-0.000000	-0.000000	-0.000000	0.000000	-303.338280	-65.175460	11.872280	0.043518	0.807127	0.580138	-1.000000	-1.000000	-1.000000	-1.000000	-1.000000	-1.000000	-1.000000	139.172414	0.000000	-1.000000	-1.000000	429794.000000	1772918888.947876
-4688.280000	23726.835000	-17864.145000	-14664.555000	0.000000	0.000000	0.000000	0.000000	10.098402	-30.298252	22.580949	8.086021	-0.000000	-0.000000	-0.000000	0.000000	-303.338280	-65.175460	11.872280	0.043518	0.807127	0.580138	-1.000000	-1.000000	-1.000000	-1.000000	-1.000000	-1.000000	-1.000000	139.172414	0.000000	-1.000000	-1.000000	429795.000000	1772918888.947878
-4736.160000	23742.585000	-17964.405000	-14633.865000	0.000000	0.000000	0.000000	0.000000	116.231754	-35.846144	135.030062	91.331980	-0.000000	-0.000000	-0.000000	0.000000	-303.338280	-65.175460	11.872280	0.043518	0.807127	0.580138	-1.000000	-1.000000	-1.000000	-1.000000	-1.000000	-1.000000	-1.000000	139.172414	0.000000	-1.000000	-1.000000	429796.000000	1772918888.975844
-4804.515000	23763.780000	-18301.770000	-14701.140000	0.000000	0.000000	0.000000	0.000000	171.371032	-26.965703	178.038029	129.068018	-0.000000	-0.000000	-0.000000	0.000000	-303.338280	-65.175460	11.872280	0.043518	0.807127	0.580138	-1.000000	-1.000000	-1.000000	-1.000000	-1.000000	-1.000000	-1.000000	139.172414	0.000000	-1.000000	-1.000000	429797.000000	1772918888.975848
-4799.790000	23790.600000	-18492.030000	-14848.785000	0.000000	0.000000	0.000000	0.000000	139.535435	-11.824207	104.823364	95.146565	-0.000000	-0.000000	-0.000000	0.000000	-303.338280	-65.175460	11.872280	0.043518	0.807127	0.580138	-1.000000	-1.000000	-1.000000	-1.000000	-1.000000	-1.000000	-1.000000	139.172414	0.000000	-1.000000	-1.000000	429798.000000	1772918888.976029
-4843.665000	23843.070000	-18556.335000	-15029.955000	0.000000	0.000000	0.000000	0.000000	42.472747	2.626388	-47.763912	1.361079	-0.000000	-0.000000	-0.000000	0.000000	-303.338280	-65.175460	11.872280	0.043518	0.807127	0.580138	-1.000000	-1.000000	-1.000000	-1.000000	-1.000000	-1.000000	-1.000000	139.172414	0.000000	-1.000000	-1.000000	429799.000000	1772918888.976031
-4876.470000	23885.145000	-18479.970000	-15006.015000	0.000000	0.000000	0.000000	0.000000	-62.016566	12.887234	-174.209522	-103.204503	-0.000000	-0.000000	-0.000000	0.000000	-303.338280	-65.175460	11.872280	0.043518	0.807127	0.580138	-1.000000	-1.000000	-1.000000	-1.000000	-1.000000	-1.000000	-1.000000	139.172414	0.000000	-1.000000	-1.000000	429800.000000	1772918888.976035
-4798.125000	23832.810000	-18388.035000	-14913.045000	0.000000	0.000000	0.000000	0.000000	-123.004983	15.791499	-187.608332	-155.097898	-0.000000	-0.000000	-0.000000	0.000000	-303.338280	-65.175460	11.872280	0.043518	0.807127	0.580138	-1.000000	-1.000000	-1.000000	-1.000000	-1.000000	-1.000000	-1.000000	139.172414	0.000000	-1.000000	-1.000000	429801.000000	1772918888.976038
-4801.770000	23825.070000	-18432.135000	-14954.895000	0.000000	0.000000	0.000000	0.000000	-119.116710	7.011694	-86.053638	-120.613407	-0.000000	-0.000000	-0.000000	0.000000	-303.338280	-65.175460	11.872280	0.043518	0.807127	0.580138	-1.000000	-1.000000	-1.000000	-1.000000	-1.000000	-1.000000	-1.000000	139.172414	0.000000	-1.000000	-1.000000	429802.000000	1772918888.976041
-4828.545000	23815.575000	-18297.315000	-14836.230000	0.000000	0.000000	0.000000	0.000000	-65.423707	-11.428175	57.991367	-23.886358	-0.000000	-0.000000	-0.000000	0.000000	-303.338280	-65.175460	11.872280	0.043518	0.807127	0.580138	-1.000000	-1.000000	-1.000000	-1.000000	-1.000000	-1.000000	-1.000000	139.172414	0.000000	-1.000000	-1.000000	429803.000000	1772918888.976044
-4847.895000	23929.245000	-18199.170000	-14742.315000	0.000000	0.000000	0.000000	0.000000	-0.650411	-26.130285	165.023569	79.758309	-0.000000	-0.000000	-0.000000	0.000000	-352.811200	-34.945400	-49.656040	0.092590	0.607603	0.560668	-1.000000	-1.000000	-1.000000	-1.000000	-1.000000	-1.000000	-1.000000	139.172414	0.000000	-1.000000	-1.000000	429804.000000	1772918888.976048
-4768.965000	24048.855000	-18194.940000	-14760.540000	0.000000	0.000000	0.000000	0.000000	43.964158	-20.708687	195.056318	143.202146	-0.000000	-0.000000	-0.000000	0.000000	-352.811200	-34.945400	-49.656040	0.092590	0.607603	0.560668	-1.000000	-1.000000	-1.000000	-1.000000	-1.000000	-1.000000	-1.000000	139.172414	0.000000	-1.000000	-1.000000	429805.000000	1772918888.976050
-4783.635000	24058.980000	-18323.685000	-14864.895000	0.000000	0.000000	0.000000	0.000000	61.127346	6.364696	144.319865	139.789993	-0.000000	-0.000000	-0.000000	0.000000	-352.811200	-34.945400	-49.656040	0.092590	0.607603	0.560668	-1.000000	-1.000000	-1.000000	-1.000000	-1.000000	-1.000000	-1.000000	139.172414	0.000000	-1.000000	-1.000000	429806.000000	1772918888.976054
-4916.745000	24121.485000	-18413.190000	-15032.115000	0.000000	0.000000	0.000000	0.000000	53.824398	35.050248	34.911687	69.133768	-0.000000	-0.000000	-0.000000	0.000000	-352.811200	-34.945400	-49.656040	0.092590	0.607603	0.560668	-1.000000	-1.000000	-1.000000	-1.000000	-1.000000	-1.000000	-1.000000	139.172414	0.000000	-1.000000	-1.000000	429807.000000	1772918888.976056
-4917.690000	24206.445000	-18195.390000	-14798.340000	0.000000	0.000000	0.000000	0.000000	24.903859	44.113171	-82.000922	-31.377653	-0.000000	-0.000000	-0.000000	0.000000	-352.811200	-34.945400	-49.656040	0.092590	0.607603	0.560668	-1.000000	-1.000000	-1.000000	-1.000000	-1.000000	-1.000000	-1.000000	139.172414	0.000000	-1.000000	-1.000000	429808.000000	1772918888.976060
-4979.925000	24244.110000	-18132.345000	-14822.730000	0.000000	0.000000	0.000000	0.000000	-13.026407	30.569149	-142.532749	-98.996325	-0.000000	-0.000000	-0.000000	0.000000	-352.811200	-34.945400	-49.656040	0.092590	0.607603	0.560668	-1.000000	-1.000000	-1.000000	-1.000000	-1.000000	-1.000000	-1.000000	139.103448	0.000000	-1.000000	-1.000000	429809.000000	1772918888.976063
-5015.655000	24237.315000	-18327.105000	-15003.675000	0.000000	0.000000	0.000000	0.000000	-39.621253	3.401849	-124.704787	-102.263149	-0.000000	-0.000000	-0.000000	0.000000	-352.811200	-34.945400	-49.656040	0.092590	0.607603	0.560668	-1.000000	-1.000000	-1.000000	-1.000000	-1.000000	-1.000000	-1.000000	139.103448	0.000000	-1.000000	-1.000000	429810.000000	1772918888.979331
-4983.885000	24217.650000	-18291.690000	-14902.740000	0.000000	0.000000	0.000000	0.000000	-42.008277	-27.956535	-68.110809	-65.317405	-0.000000	-0.000000	-0.000000	0.000000	-352.811200	-34.945400	-49.656040	0.092590	0.607603	0.560668	-1.000000	-1.000000	-1.000000	-1.000000	-1.000000	-1.000000	-1.000000	139.103448	0.000000	-1.000000	-1.000000	429811.000000	1772918888.979334
-4874.490000	24360.300000	-18287.280000	-14856.705000	0.000000	0.000000	0.000000	0.000000	-18.004666	-51.577997	-18.166045	-19.434759	-0.000000	-0.000000	-0.000000	0.000000	-352.811200	-34.945400	-49.656040	0.092590	0.607603	0.560668	-1.000000	-1.000000	-1.000000	-1.000000	-1.000000	-1.000000	-1.000000	139.103448	0.000000	-1.000000	-1.000000	429812.000000	1772918888.984039
-4804.065000	24508.530000	-18169.470000	-14860.530000	0.000000	0.000000	0.000000	0.000000	24.527393	-50.600782	15.483264	23.390568	-0.000000	-0.000000	-0.000000	0.000000	-352.811200	-34.945400	-49.656040	0.092590	0.607603	0.560668	-1.000000	-1.000000	-1.000000	-1.000000	-1.000000	-1.000000	-1.000000	139.103448	0.000000	-1.000000	-1.000000	429813.000000	1772918888.984041
-4823.685000	24532.245000	-18021.915000	-14839.155000	0.000000	0.000000	0.000000	0.000000	64.250934	-19.890574	43.658814	52.950745	-0.000000	-0.000000	-0.000000	0.000000	-211.640940	-12.620020	-69.112540	0.123840	0.453429	0.590636	-1.000000	-1.000000	-1.000000	-1.000000	-1.000000	-1.000000	-1.000000	139.103448	0.000000	-1.000000	-1.000000	429814.000000	1772918888.987291
-4947.705000	24596.100000	-18101.430000	-14916.780000	0.000000	0.000000	0.000000	0.000000	72.482113	19.876000	68.313873	57.989502	-0.000000	-0.000000	-0.000000	0.000000	-211.640940	-12.620020	-69.112540	0.123840	0.453429	0.590636	-1.000000	-1.000000	-1.000000	-1.000000	-1.000000	-1.000000	-1.000000	139.103448	0.000000	-1.000000	-1.000000	429815.000000	1772918888.987294
-5062.230000	24635.610000	-18628.155000	-15101.145000	0.000000	0.000000	0.000000	0.000000	34.046925	40.868593	62.869990	33.367544	-0.000000	-0.000000	-0.000000	0.000000	-211.640940	-12.620020	-69.112540	0.123840	0.453429	0.590636	-1.000000	-1.000000	-1.000000	-1.000000	-1.000000	-1.000000	-1.000000	139.103448	0.000000	-1.000000	-1.000000	429816.000000	1772918888.991232
-4930.020000	24665.400000	-18714.240000	-15074.055000	0.000000	0.000000	0.000000	0.000000	-31.121990	33.150352	-1.767753	-12.835826	-0.000000	-0.000000	-0.000000	0.000000	-211.640940	-12.620020	-69.112540	0.123840	0.453429	0.590636	-1.000000	-1.000000	-1.000000	-1.000000	-1.000000	-1.000000	-1.000000	139.103448	0.000000	-1.000000	-1.000000	429817.000000	1772918888.991234
-4881.870000	24694.380000	-18425.745000	-14921.685000	0.000000	0.000000	0.000000	0.000000	-75.201283	6.178446	-89.950086	-49.791097	-0.000000	-0.000000	-0.000000	0.000000	-211.640940	-12.620020	-69.112540	0.123840	0.453429	0.590636	-1.000000	-1.000000	-1.000000	-1.000000	-1.000000	-1.000000	-1.000000	139.103448	0.000000	-1.000000	-1.000000	429818.000000	1772918888.995377
-4776.840000	24635.880000	-18233.280000	-14732.190000	0.000000	0.000000	0.000000	0.000000	-65.539644	-24.093743	-110.983391	-40.953770	-0.000000	-0.000000	-0.000000	0.000000	-211.640940	-12.620020	-69.112540	0.123840	0.453429	0.590636	-1.000000	-1.000000	-1.000000	-1.000000	-1.000000	-1.000000	-1.000000	139.103448	0.000000	-1.000000	-1.000000	429819.000000	1772918888.995380
-4600.170000	24588.765000	-18104.265000	-14585.490000	0.000000	0.000000	0.000000	0.000000	-11.103330	-46.849587	-25.666925	17.356076	-0.000000	-0.000000	-0.000000	0.000000	-211.640940	-12.620020	-69.112540	0.123840	0.453429	0.590636	-1.000000	-1.000000	-1.000000	-1.000000	-1.000000	-1.000000	-1.000000	139.103448	0.000000	-1.000000	-1.000000	429820.000000	1772918888.999324
-4644.540000	24678.270000	-18211.005000	-14789.385000	0.000000	0.000000	0.000000	0.000000	51.125736	-54.712229	102.147677	80.931174	-0.000000	-0.000000	-0.000000	0.000000	-211.640940	-12.620020	-69.112540	0.123840	0.453429	0.590636	-1.000000	-1.000000	-1.000000	-1.000000	-1.000000	-1.000000	-1.000000	139.103448	0.000000	-1.000000	-1.000000	429821.000000	1772918888.999327
-4944.555000	24728.670000	-18503.010000	-15037.785000	0.000000	0.000000	0.000000	0.000000	73.800638	-38.896193	165.976005	85.943459	-0.000000	-0.000000	-0.000000	0.000000	-211.640940	-12.620020	-69.112540	0.123840	0.453429	0.590636	-1.000000	-1.000000	-1.000000	-1.000000	-1.000000	-1.000000	-1.000000	139.103448	0.000000	-1.000000	-1.000000	429822.000000	1772918889.003384
-5039.505000	24736.320000	-18434.655000	-14964.030000	0.000000	0.000000	0.000000	0.000000	27.333871	-0.843588	112.916673	12.114607	-0.000000	-0.000000	-0.000000	0.000000	-211.640940	-12.620020	-69.112540	0.123840	0.453429	0.590636	-1.000000	-1.000000	-1.000000	-1.000000	-1.000000	-1.000000	-1.000000	139.103448	0.000000	-1.000000	-1.000000	429823.000000	1772918889.003386
-5178.780000	24624.180000	-18485.730000	-15020.595000	0.000000	0.000000	0.000000	0.000000	-63.515918	37.482165	-10.634757	-85.764211	-0.000000	-0.000000	-0.000000	0.000000	-72.042460	12.650540	-8.026760	0.100158	0.378051	0.639769	-1.000000	-1.000000	-1.000000	-1.000000	-1.000000	-1.000000	-1.000000	139.103448	0.000000	-1.000000	-1.000000	429824.000000	1772918889.008814
-5109.435000	24562.755000	-18586.305000	-15056.370000	0.000000	0.000000	0.000000	0.000000	-131.702413	48.986640	-114.215131	-134.546205	-0.000000	-0.000000	-0.000000	0.000000	-72.042460	12.650540	-8.026760	0.100158	0.378051	0.639769	-1.000000	-1.000000	-1.000000	-1.000000	-1.000000	-1.000000	-1.000000	139.103448	0.000000	-1.000000	-1.000000	429825.000000	1772918889.008816
-4978.170000	24589.980000	-18436.455000	-15034.095000	0.000000	0.000000	0.000000	0.000000	-121.576315	29.186364	-142.953900	-109.122209	-0.000000	-0.000000	-0.000000	0.000000	-72.042460	12.650540	-8.026760	0.100158	0.378051	0.639769	-1.000000	-1.000000	-1.000000	-1.000000	-1.000000	-1.000000	-1.000000	139.103448	0.000000	-1.000000	-1.000000	429826.000000	1772918889.011255
-4824.000000	24555.735000	-18127.215000	-14788.575000	0.000000	0.000000	0.000000	0.000000	-28.243909	0.410832	-88.337149	-28.806177	-0.000000	-0.000000	-0.000000	0.000000	-72.042460	12.650540	-8.026760	0.100158	0.378051	0.639769	-1.000000	-1.000000	-1.000000	-1.000000	-1.000000	-1.000000	-1.000000	139.103448	0.000000	-1.000000	-1.000000	429827.000000	1772918889.011258
-4787.145000	24454.710000	-18037.620000	-14680.755000	0.000000	0.000000	0.000000	0.000000	97.782714	-15.867418	23.307453	71.870835	-0.000000	-0.000000	-0.000000	0.000000	-72.042460	12.650540	-8.026760	0.100158	0.378051	0.639769	-1.000000	-1.000000	-1.000000	-1.000000	-1.000000	-1.000000	-1.000000	139.103448	0.000000	-1.000000	-1.000000	429828.000000	1772918889.015350
-4915.755000	24374.205000	-18243.360000	-14734.215000	0.000000	0.000000	0.000000	0.000000	179.889626	-18.506537	124.866506	148.109863	-0.000000	-0.000000	-0.000000	0.000000	-72.042460	12.650540	-8.026760	0.100158	0.378051	0.639769	-1.000000	-1.000000	-1.000000	-1.000000	-1.000000	-1.000000	-1.000000	139.103448	0.000000	-1.000000	-1.000000	429829.000000	1772918889.015353
-4814.955000	24315.030000	-18150.615000	-14730.030000	0.000000	0.000000	0.000000	0.000000	168.472311	-15.499404	144.035927	155.939811	-0.000000	-0.000000	-0.000000	0.000000	-72.042460	12.650540	-8.026760	0.100158	0.378051	0.639769	-1.000000	-1.000000	-1.000000	-1.000000	-1.000000	-1.000000	-1.000000	139.103448	0.000000	-1.000000	-1.000000	429830.000000	1772918889.019259
-4886.325000	24291.225000	-18304.020000	-14830.155000	0.000000	0.000000	0.000000	0.000000	78.185621	-8.928692	70.101859	86.334059	-0.000000	-0.000000	-0.000000	0.000000	-72.042460	12.650540	-8.026760	0.100158	0.378051	0.639769	-1.000000	-1.000000	-1.000000	-1.000000	-1.000000	-1.000000	-1.000000	139.103448	0.000000	-1.000000	-1.000000	429831.000000	1772918889.019262
-4944.015000	24253.335000	-18483.435000	-14964.300000	0.000000	0.000000	0.000000	0.000000	-34.570405	3.569484	-46.497517	-26.017564	-0.000000	-0.000000	-0.000000	0.000000	-72.042460	12.650540	-8.026760	0.100158	0.378051	0.639769	-1.000000	-1.000000	-1.000000	-1.000000	-1.000000	-1.000000	-1.000000	139.103448	0.000000	-1.000000	-1.000000	429832.000000	1772918889.022532
-5035.590000	24260.310000	-18506.115000	-15081.525000	0.000000	0.000000	0.000000	0.000000	-119.886480	20.978952	-144.069681	-129.211982	-0.000000	-0.000000	-0.000000	0.000000	-72.042460	12.650540	-8.026760	0.100158	0.378051	0.639769	-1.000000	-1.000000	-1.000000	-1.000000	-1.000000	-1.000000	-1.000000	139.103448	0.000000	-1.000000	-1.000000	429833.000000	1772918889.022534
-4919.805000	24305.895000	-18237.015000	-14877.270000	0.000000	0.000000	0.000000	0.000000	-149.994453	38.515373	-170.519763	-174.994479	-0.000000	-0.000000	-0.000000	0.000000	3.021480	13.917120	5.600420	0.095093	0.406188	0.700194	-1.000000	-1.000000	-1.000000	-1.000000	-1.000000	-1.000000	-1.000000	139.103448	0.000000	-1.000000	-1.000000	429834.000000	1772918889.029417
-4981.815000	24263.865000	-18314.415000	-14853.195000	0.000000	0.000000	0.000000	0.000000	-118.291289	49.830521	-104.092507	-135.306054	-0.000000	-0.000000	-0.000000	0.000000	3.021480	13.917120	5.600420	0.095093	0.406188	0.700194	-1.000000	-1.000000	-1.000000	-1.000000	-1.000000	-1.000000	-1.000000	139.103448	0.000000	-1.000000	-1.000000	429835.000000	1772918889.029420
-4942.440000	24253.245000	-18298.260000	-14828.580000	0.000000	0.000000	0.000000	0.000000	-45.297383	46.833973	15.275455	-29.424716	-0.000000	-0.000000	-0.000000	0.000000	3.021480	13.917120	5.600420	0.095093	0.406188	0.700194	-1.000000	-1.000000	-1.000000	-1.000000	-1.000000	-1.000000	-1.000000	139.103448	0.000000	-1.000000	-1.000000	429836.000000	1772918889.032240
-4778.325000	24259.275000	-18109.395000	-14818.455000	0.000000	0.000000	0.000000	0.000000	33.833665	26.501601	115.872390	80.320969	-0.000000	-0.000000	-0.000000	0.000000	3.021480	13.917120	5.600420	0.095093	0.406188	0.700194	-1.000000	-1.000000	-1.000000	-1.000000	-1.000000	-1.000000	-1.000000	139.103448	0.000000	-1.000000	-1.000000	429837.000000	1772918889.032243
-4800.105000	24169.095000	-18283.590000	-14895.225000	0.000000	0.000000	0.000000	0.000000	92.282674	-4.143373	153.589501	135.539975	-0.000000	-0.000000	-0.000000	0.000000	3.021480	13.917120	5.600420	0.095093	0.406188	0.700194	-1.000000	-1.000000	-1.000000	-1.000000	-1.000000	-1.000000	-1.000000	139.103448	0.000000	-1.000000	-1.000000	429838.000000	1772918889.035182
-4839.795000	24038.325000	-18263.340000	-14794.560000	0.000000	0.000000	0.000000	0.000000	111.009847	-36.562484	120.451909	119.413180	-0.000000	-0.000000	-0.000000	0.000000	3.021480	13.917120	5.600420	0.095093	0.406188	0.700194	-1.000000	-1.000000	-1.000000	-1.000000	-1.000000	-1.000000	-1.000000	139.103448	0.000000	-1.000000	-1.000000	429839.000000	1772918889.035185
-4972.590000	23981.985000	-18216.180000	-14903.010000	0.000000	0.000000	0.000000	0.000000	78.831958	-63.947163	39.677510	57.201321	-0.000000	-0.000000	-0.000000	0.000000	3.021480	13.917120	5.600420	0.095093	0.406188	0.700194	-1.000000	-1.000000	-1.000000	-1.000000	-1.000000	-1.000000	-1.000000	139.103448	0.000000	-1.000000	-1.000000	429840.000000	1772918889.042935
-5011.020000	23975.235000	-18143.145000	-15000.840000	0.000000	0.000000	0.000000	0.000000	7.760615	-74.321177	-39.646428	-14.648468	-0.000000	-0.000000	-0.000000	0.000000	3.021480	13.917120	5.600420	0.095093	0.406188	0.700194	-1.000000	-1.000000	-1.000000	-1.000000	-1.000000	-1.000000	-1.000000	139.103448	0.000000	-1.000000	-1.000000	429841.000000	1772918889.042937
-5019.120000	23874.255000	-18099.090000	-14962.230000	0.000000	0.000000	0.000000	0.000000	-64.784470	-57.356333	-77.289014	-69.926301	-0.000000	-0.000000	-0.000000	0.000000	3.021480	13.917120	5.600420	0.095093	0.406188	0.700194	-1.000000	-1.000000	-1.000000	-1.000000	-1.000000	-1.000000	-1.000000	139.103448	0.000000	-1.000000	-1.000000	429842.000000	1772918889.042941
-5066.280000	23814.360000	-18532.980000	-15001.065000	0.000000	0.000000	0.000000	0.000000	-99.456566	-19.820566	-76.611469	-89.665985	-0.000000	-0.000000	-0.000000	0.000000	3.021480	13.917120	5.600420	0.095093	0.406188	0.700194	-1.000000	-1.000000	-1.000000	-1.000000	-1.000000	-1.000000	-1.000000	139.103448	0.000000	-1.000000	-1.000000	429843.000000	1772918889.042943
-4841.865000	23773.545000	-18586.305000	-14917.770000	0.000000	0.000000	0.000000	0.000000	-79.180973	19.382513	-74.247470	-67.425863	-0.000000	-0.000000	-0.000000	0.000000	20.524700	17.182760	-12.070660	0.136535	0.492064	0.751524	-1.000000	-1.000000	-1.000000	-1.000000	-1.000000	-1.000000	-1.000000	139.103448	0.000000	-1.000000	-1.000000	429844.000000	1772918889.047769
-4533.795000	23769.495000	-18208.170000	-14647.410000	0.000000	0.000000	0.000000	0.000000	-8.249397	46.896985	-75.433610	-11.576311	-0.000000	-0.000000	-0.000000	0.000000	20.524700	17.182760	-12.070660	0.136535	0.492064	0.751524	-1.000000	-1.000000	-1.000000	-1.000000	-1.000000	-1.000000	-1.000000	139.103448	0.000000	-1.000000	-1.000000	429845.000000	1772918889.047771
-4684.635000	23847.120000	-18176.670000	-14653.800000	0.000000	0.000000	0.000000	0.000000	82.996556	61.339912	-38.298098	58.567561	-0.000000	-0.000000	-0.000000	0.000000	20.524700	17.182760	-12.070660	0.136535	0.492064	0.751524	-1.000000	-1.000000	-1.000000	-1.000000	-1.000000	-1.000000	-1.000000	139.103448	0.000000	-1.000000	-1.000000	429846.000000	1772918889.051374
-4794.255000	23840.415000	-18085.590000	-14675.715000	0.000000	0.000000	0.000000	0.000000	131.715069	66.503729	46.907012	106.348537	-0.000000	-0.000000	-0.000000	0.000000	20.524700	17.182760	-12.070660	0.136535	0.492064	0.751524	-1.000000	-1.000000	-1.000000	-1.000000	-1.000000	-1.000000	-1.000000	139.103448	0.000000	-1.000000	-1.000000	429847.000000	1772918889.051378
-4685.670000	23875.605000	-18119.115000	-14714.190000	0.000000	0.000000	0.000000	0.000000	94.957937	61.560412	126.404492	95.840005	-0.000000	-0.000000	-0.000000	0.000000	20.524700	17.182760	-12.070660	0.136535	0.492064	0.751524	-1.000000	-1.000000	-1.000000	-1.000000	-1.000000	-1.000000	-1.000000	139.103448	0.000000	-1.000000	-1.000000	429848.000000	1772918889.055476
-4900.545000	23934.735000	-18329.040000	-14874.120000	0.000000	0.000000	0.000000	0.000000	-1.282941	43.533293	139.226699	26.175849	-0.000000	-0.000000	-0.000000	0.000000	20.524700	17.182760	-12.070660	0.136535	0.492064	0.751524	-1.000000	-1.000000	-1.000000	-1.000000	-1.000000	-1.000000	-1.000000	139.103448	0.000000	-1.000000	-1.000000	429849.000000	1772918889.055479
-5050.350000	23787.090000	-18570.465000	-14974.740000	0.000000	0.000000	0.000000	0.000000	-99.946984	12.837542	65.468520	-68.145720	-0.000000	-0.000000	-0.000000	0.000000	20.524700	17.182760	-12.070660	0.136535	0.492064	0.751524	-1.000000	-1.000000	-1.000000	-1.000000	-1.000000	-1.000000	-1.000000	139.103448	0.000000	-1.000000	-1.000000	429850.000000	1772918889.064965
-5161.320000	23719.230000	-18445.770000	-14979.015000	0.000000	0.000000	0.000000	0.000000	-159.987245	-29.379215	-55.002641	-138.678644	-0.000000	-0.000000	-0.000000	0.000000	20.524700	17.182760	-12.070660	0.136535	0.492064	0.751524	-1.000000	-1.000000	-1.000000	-1.000000	-1.000000	-1.000000	-1.000000	139.103448	0.000000	-1.000000	-1.000000	429851.000000	1772918889.064968
-4963.590000	23688.270000	-18247.140000	-14928.615000	0.000000	0.000000	0.000000	0.000000	-154.891001	-73.781892	-136.982692	-145.388174	-0.000000	-0.000000	-0.000000	0.000000	20.524700	17.182760	-12.070660	0.136535	0.492064	0.751524	-1.000000	-1.000000	-1.000000	-1.000000	-1.000000	-1.000000	-1.000000	139.103448	0.000000	-1.000000	-1.000000	429852.000000	1772918889.090515
-4853.970000	23676.165000	-18091.395000	-14745.645000	0.000000	0.000000	0.000000	0.000000	-73.958483	-97.883594	-116.639855	-78.467248	-0.000000	-0.000000	-0.000000	0.000000	20.524700	17.182760	-12.070660	0.136535	0.492064	0.751524	-1.000000	-1.000000	-1.000000	-1.000000	-1.000000	-1.000000	-1.000000	139.103448	0.000000	-1.000000	-1.000000	429853.000000	1772918889.090521
-5021.730000	23681.790000	-18292.905000	-14826.645000	0.000000	0.000000	0.000000	0.000000	50.311383	-84.202238	-16.274407	30.817991	-0.000000	-0.000000	-0.000000	0.000000	10.422580	7.736820	-0.152600	0.087341	0.627074	0.810606	-1.000000	-1.000000	-1.000000	-1.000000	-1.000000	-1.000000	-1.000000	139.103448	0.000000	-1.000000	-1.000000	429854.000000	1772918889.090525
-4930.020000	23602.995000	-18278.415000	-14789.160000	0.000000	0.000000	0.000000	0.000000	146.813816	-38.471933	76.267133	122.235447	-0.000000	-0.000000	-0.000000	0.000000	10.422580	7.736820	-0.152600	0.087341	0.627074	0.810606	-1.000000	-1.000000	-1.000000	-1.000000	-1.000000	-1.000000	-1.000000	139.103448	0.000000	-1.000000	-1.000000	429855.000000	1772918889.090527
-4765.230000	23611.005000	-18201.555000	-14729.535000	0.000000	0.000000	0.000000	0.000000	170.329537	14.474005	98.907178	149.334854	-0.000000	-0.000000	-0.000000	0.000000	10.422580	7.736820	-0.152600	0.087341	0.627074	0.810606	-1.000000	-1.000000	-1.000000	-1.000000	-1.000000	-1.000000	-1.000000	139.103448	0.000000	-1.000000	-1.000000	429856.000000	1772918889.092538
-4975.605000	23640.795000	-18422.415000	-14947.650000	0.000000	0.000000	0.000000	0.000000	129.450186	52.409401	57.881939	108.027580	-0.000000	-0.000000	-0.000000	0.000000	10.422580	7.736820	-0.152600	0.087341	0.627074	0.810606	-1.000000	-1.000000	-1.000000	-1.000000	-1.000000	-1.000000	-1.000000	139.103448	0.000000	-1.000000	-1.000000	429857.000000	1772918889.092541
-5028.840000	23560.605000	-18513.270000	-15054.840000	0.000000	0.000000	0.000000	0.000000	47.884681	67.123559	-12.151531	20.925977	-0.000000	-0.000000	-0.000000	0.000000	10.422580	7.736820	-0.152600	0.087341	0.627074	0.810606	-1.000000	-1.000000	-1.000000	-1.000000	-1.000000	-1.000000	-1.000000	139.103448	0.000000	-1.000000	-1.000000	429858.000000	1772918889.092555
-5043.330000	23498.325000	-18485.820000	-14993.685000	0.000000	0.000000	0.000000	0.000000	-46.954617	56.980400	-75.090600	-72.234954	-0.000000	-0.000000	-0.000000	0.000000	10.422580	7.736820	-0.152600	0.087341	0.627074	0.810606	-1.000000	-1.000000	-1.000000	-1.000000	-1.000000	-1.000000	-1.000000	139.103448	0.000000	-1.000000	-1.000000	429859.000000	1772918889.092557
-4949.955000	23460.930000	-18362.610000	-14915.790000	0.000000	0.000000	0.000000	0.000000	-113.082133	26.429315	-93.344394	-119.758754	-0.000000	-0.000000	-0.000000	0.000000	10.422580	7.736820	-0.152600	0.087341	0.627074	0.810606	-1.000000	-1.000000	-1.000000	-1.000000	-1.000000	-1.000000	-1.000000	139.103448	0.000000	-1.000000	-1.000000	429860.000000	1772918889.092564
-4843.350000	23528.610000	-18222.210000	-14804.730000	0.000000	0.000000	0.000000	0.000000	-116.343501	-7.411486	-48.894663	-93.065338	-0.000000	-0.000000	-0.000000	0.000000	10.422580	7.736820	-0.152600	0.087341	0.627074	0.810606	-1.000000	-1.000000	-1.000000	-1.000000	-1.000000	-1.000000	-1.000000	139.103448	0.000000	-1.000000	-1.000000	429861.000000	1772918889.092566
-4640.715000	23663.970000	-18052.695000	-14605.740000	0.000000	0.000000	0.000000	0.000000	-57.038900	-21.104444	37.331980	-9.971485	-0.000000	-0.000000	-0.000000	0.000000	10.422580	7.736820	-0.152600	0.087341	0.627074	0.810606	-1.000000	-1.000000	-1.000000	-1.000000	-1.000000	-1.000000	-1.000000	139.103448	0.000000	-1.000000	-1.000000	429862.000000	1772918889.092569
-4720.905000	23712.660000	-18118.440000	-14601.870000	0.000000	0.000000	0.000000	0.000000	27.503095	-4.487641	114.511023	80.404832	-0.000000	-0.000000	-0.000000	0.000000	10.422580	7.736820	-0.152600	0.087341	0.627074	0.810606	-1.000000	-1.000000	-1.000000	-1.000000	-1.000000	-1.000000	-1.000000	139.103448	0.000000	-1.000000	-1.000000	429863.000000	1772918889.092571
-4801.815000	23738.220000	-18236.790000	-14721.570000	0.000000	0.000000	0.000000	0.000000	80.480333	25.967577	129.459884	122.804330	-0.000000	-0.000000	-0.000000	0.000000	-37.539600	0.473060	14.527520	0.008118	0.751829	0.808042	-1.000000	-1.000000	-1.000000	-1.000000	-1.000000	-1.000000	-1.000000	139.103448	0.000000	-1.000000	-1.000000	429864.000000	1772918889.092575
-4793.580000	23773.230000	-18269.640000	-14861.205000	0.000000	0.000000	0.000000	0.000000	66.923034	41.189922	64.766997	85.117753	-0.000000	-0.000000	-0.000000	0.000000	-37.539600	0.473060	14.527520	0.008118	0.751829	0.808042	-1.000000	-1.000000	-1.000000	-1.000000	-1.000000	-1.000000	-1.000000	139.103448	0.000000	-1.000000	-1.000000	429865.000000	1772918889.092577
-5019.705000	23828.670000	-18477.720000	-15139.845000	0.000000	0.000000	0.000000	0.000000	1.252683	27.445837	-44.283529	-17.875214	-0.000000	-0.000000	-0.000000	0.000000	-37.539600	0.473060	14.527520	0.008118	0.751829	0.808042	-1.000000	-1.000000	-1.000000	-1.000000	-1.000000	-1.000000	-1.000000	139.103448	0.000000	-1.000000	-1.000000	429866.000000	1772918889.092580
-5134.455000	23831.280000	-18490.500000	-15138.675000	0.000000	0.000000	0.000000	0.000000	-75.437963	-5.895259	-138.221931	-130.161686	-0.000000	-0.000000	-0.000000	0.000000	-37.539600	0.473060	14.527520	0.008118	0.751829	0.808042	-1.000000	-1.000000	-1.000000	-1.000000	-1.000000	-1.000000	-1.000000	139.103448	0.000000	-1.000000	-1.000000	429867.000000	1772918889.092581
-4943.475000	23767.155000	-18271.665000	-14973.615000	0.000000	0.000000	0.000000	0.000000	-119.002563	-41.923165	-165.013930	-180.443707	-0.000000	-0.000000	-0.000000	0.000000	-37.539600	0.473060	14.527520	0.008118	0.751829	0.808042	-1.000000	-1.000000	-1.000000	-1.000000	-1.000000	-1.000000	-1.000000	139.103448	0.000000	-1.000000	-1.000000	429868.000000	1772918889.095529
-4554.540000	23770.485000	-18029.700000	-14856.705000	0.000000	0.000000	0.000000	0.000000	-87.868534	-68.526079	-98.838708	-125.099288	-0.000000	-0.000000	-0.000000	0.000000	-37.539600	0.473060	14.527520	0.008118	0.751829	0.808042	-1.000000	-1.000000	-1.000000	-1.000000	-1.000000	-1.000000	-1.000000	139.103448	0.000000	-1.000000	-1.000000	429869.000000	1772918889.095532
-4886.415000	23845.230000	-18216.720000	-14820.795000	0.000000	0.000000	0.000000	0.000000	15.091466	-75.138245	28.880155	9.568630	-0.000000	-0.000000	-0.000000	0.000000	-37.539600	0.473060	14.527520	0.008118	0.751829	0.808042	-1.000000	-1.000000	-1.000000	-1.000000	-1.000000	-1.000000	-1.000000	139.103448	0.000000	-1.000000	-1.000000	429870.000000	1772918889.099591
-5157.045000	23939.955000	-18481.230000	-14928.570000	0.000000	0.000000	0.000000	0.000000	108.326925	-52.503562	127.836341	138.919941	-0.000000	-0.000000	-0.000000	0.000000	-37.539600	0.473060	14.527520	0.008118	0.751829	0.808042	-1.000000	-1.000000	-1.000000	-1.000000	-1.000000	-1.000000	-1.000000	139.103448	0.000000	-1.000000	-1.000000	429871.000000	1772918889.099594
-5014.845000	23987.655000	-18541.755000	-14971.275000	0.000000	0.000000	0.000000	0.000000	111.522765	-4.988792	124.483957	184.534563	-0.000000	-0.000000	-0.000000	0.000000	-37.539600	0.473060	14.527520	0.008118	0.751829	0.808042	-1.000000	-1.000000	-1.000000	-1.000000	-1.000000	-1.000000	-1.000000	139.103448	0.000000	-1.000000	-1.000000	429872.000000	1772918889.103487
-4942.260000	23970.645000	-18441.585000	-14963.040000	0.000000	0.000000	0.000000	0.000000	44.208274	43.650042	38.547662	131.627439	-0.000000	-0.000000	-0.000000	0.000000	-37.539600	0.473060	14.527520	0.008118	0.751829	0.808042	-1.000000	-1.000000	-1.000000	-1.000000	-1.000000	-1.000000	-1.000000	139.103448	0.000000	-1.000000	-1.000000	429873.000000	1772918889.103490
-5173.155000	23893.020000	-18447.345000	-15122.790000	0.000000	0.000000	0.000000	0.000000	-20.654135	63.984659	-45.130229	26.322954	-0.000000	-0.000000	-0.000000	0.000000	-65.999500	-3.860780	-5.646200	0.012756	0.736509	0.803709	-1.000000	-1.000000	-1.000000	-1.000000	-1.000000	-1.000000	-1.000000	139.103448	0.000000	-1.000000	-1.000000	429874.000000	1772918889.107595
-5022.495000	23863.635000	-18145.080000	-14965.740000	0.000000	0.000000	0.000000	0.000000	-48.121220	43.690335	-62.339879	-69.229793	-0.000000	-0.000000	-0.000000	0.000000	-65.999500	-3.860780	-5.646200	0.012756	0.736509	0.803709	-1.000000	-1.000000	-1.000000	-1.000000	-1.000000	-1.000000	-1.000000	139.103448	0.000000	-1.000000	-1.000000	429875.000000	1772918889.107598
-4904.820000	23886.315000	-18002.970000	-14866.245000	0.000000	0.000000	0.000000	0.000000	-37.098713	-0.533591	-7.542858	-107.379185	-0.000000	-0.000000	-0.000000	0.000000	-65.999500	-3.860780	-5.646200	0.012756	0.736509	0.803709	-1.000000	-1.000000	-1.000000	-1.000000	-1.000000	-1.000000	-1.000000	139.103448	0.000000	-1.000000	-1.000000	429876.000000	1772918889.111579
-4832.730000	23871.780000	-18035.280000	-14803.020000	0.000000	0.000000	0.000000	0.000000	4.743845	-36.443703	72.459451	-75.447884	-0.000000	-0.000000	-0.000000	0.000000	-65.999500	-3.860780	-5.646200	0.012756	0.736509	0.803709	-1.000000	-1.000000	-1.000000	-1.000000	-1.000000	-1.000000	-1.000000	139.103448	0.000000	-1.000000	-1.000000	429877.000000	1772918889.111582
-4788.045000	23800.500000	-18239.220000	-14786.595000	0.000000	0.000000	0.000000	0.000000	52.282452	-44.851387	105.984467	-6.562429	-0.000000	-0.000000	-0.000000	0.000000	-65.999500	-3.860780	-5.646200	0.012756	0.736509	0.803709	-1.000000	-1.000000	-1.000000	-1.000000	-1.000000	-1.000000	-1.000000	139.103448	0.000000	-1.000000	-1.000000	429878.000000	1772918889.115614
-4841.955000	23803.740000	-18416.115000	-14818.140000	0.000000	0.000000	0.000000	0.000000	71.336312	-30.284118	50.867355	46.981449	-0.000000	-0.000000	-0.000000	0.000000	-65.999500	-3.860780	-5.646200	0.012756	0.736509	0.803709	-1.000000	-1.000000	-1.000000	-1.000000	-1.000000	-1.000000	-1.000000	139.103448	0.000000	-1.000000	-1.000000	429879.000000	1772918889.115617
-4840.110000	23829.660000	-18419.490000	-14793.255000	0.000000	0.000000	0.000000	0.000000	45.109436	-5.495071	-64.048913	54.167071	-0.000000	-0.000000	-0.000000	0.000000	-65.999500	-3.860780	-5.646200	0.012756	0.736509	0.803709	-1.000000	-1.000000	-1.000000	-1.000000	-1.000000	-1.000000	-1.000000	139.103448	0.000000	-1.000000	-1.000000	429880.000000	1772918889.119554
-4782.105000	23859.540000	-18214.290000	-14740.515000	0.000000	0.000000	0.000000	0.000000	-11.112880	21.129829	-154.805357	22.476845	-0.000000	-0.000000	-0.000000	0.000000	-65.999500	-3.860780	-5.646200	0.012756	0.736509	0.803709	-1.000000	-1.000000	-1.000000	-1.000000	-1.000000	-1.000000	-1.000000	139.103448	0.000000	-1.000000	-1.000000	429881.000000	1772918889.119556
-4911.660000	23820.705000	-18292.905000	-14889.870000	0.000000	0.000000	0.000000	0.000000	-63.868456	41.762679	-152.747661	-20.159177	-0.000000	-0.000000	-0.000000	0.000000	-65.999500	-3.860780	-5.646200	0.012756	0.736509	0.803709	-1.000000	-1.000000	-1.000000	-1.000000	-1.000000	-1.000000	-1.000000	139.103448	0.000000	-1.000000	-1.000000	429882.000000	1772918889.123618
-4950.900000	23708.160000	-18471.690000	-14994.675000	0.000000	0.000000	0.000000	0.000000	-91.755101	44.854272	-69.819621	-55.730758	-0.000000	-0.000000	-0.000000	0.000000	-65.999500	-3.860780	-5.646200	0.012756	0.736509	0.803709	-1.000000	-1.000000	-1.000000	-1.000000	-1.000000	-1.000000	-1.000000	139.103448	0.000000	-1.000000	-1.000000	429883.000000	1772918889.123623
-4796.370000	23740.605000	-18461.070000	-14961.240000	0.000000	0.000000	0.000000	0.000000	-87.676017	25.037351	22.965782	-75.880369	-0.000000	-0.000000	-0.000000	0.000000	-50.525860	-2.731540	-1.632820	0.046509	0.643736	0.812254	-1.000000	-1.000000	-1.000000	-1.000000	-1.000000	-1.000000	-1.000000	139.103448	0.000000	-1.000000	-1.000000	429884.000000	1772918889.126788
-4920.750000	23771.655000	-18467.415000	-14996.520000	0.000000	0.000000	0.000000	0.000000	-50.458555	-3.793615	75.301221	-68.698995	-0.000000	-0.000000	-0.000000	0.000000	-50.525860	-2.731540	-1.632820	0.046509	0.643736	0.812254	-1.000000	-1.000000	-1.000000	-1.000000	-1.000000	-1.000000	-1.000000	139.103448	0.000000	-1.000000	-1.000000	429885.000000	1772918889.126791
-4878.315000	23793.390000	-18253.305000	-14830.830000	0.000000	0.000000	0.000000	0.000000	3.118829	-19.158729	89.700021	-27.827561	-0.000000	-0.000000	-0.000000	0.000000	-50.525860	-2.731540	-1.632820	0.046509	0.643736	0.812254	-1.000000	-1.000000	-1.000000	-1.000000	-1.000000	-1.000000	-1.000000	139.103448	0.000000	-1.000000	-1.000000	429886.000000	1772918889.131583
-4808.340000	23834.880000	-18243.765000	-14799.915000	0.000000	0.000000	0.000000	0.000000	47.230968	-12.992269	90.677774	35.859687	-0.000000	-0.000000	-0.000000	0.000000	-50.525860	-2.731540	-1.632820	0.046509	0.643736	0.812254	-1.000000	-1.000000	-1.000000	-1.000000	-1.000000	-1.000000	-1.000000	139.103448	0.000000	-1.000000	-1.000000	429887.000000	1772918889.131586
-4789.170000	23818.590000	-18288.045000	-14828.355000	0.000000	0.000000	0.000000	0.000000	70.404319	4.395538	84.476506	93.069501	-0.000000	-0.000000	-0.000000	0.000000	-50.525860	-2.731540	-1.632820	0.046509	0.643736	0.812254	-1.000000	-1.000000	-1.000000	-1.000000	-1.000000	-1.000000	-1.000000	139.103448	0.000000	-1.000000	-1.000000	429888.000000	1772918889.137852
-4851.135000	23819.535000	-18285.840000	-14823.810000	0.000000	0.000000	0.000000	0.000000	70.233297	16.289187	56.907146	110.042286	-0.000000	-0.000000	-0.000000	0.000000	-50.525860	-2.731540	-1.632820	0.046509	0.643736	0.812254	-1.000000	-1.000000	-1.000000	-1.000000	-1.000000	-1.000000	-1.000000	139.103448	0.000000	-1.000000	-1.000000	429889.000000	1772918889.137855
-4998.150000	23756.220000	-18433.350000	-15020.415000	0.000000	0.000000	0.000000	0.000000	43.127877	12.040161	2.872652	73.355387	-0.000000	-0.000000	-0.000000	0.000000	-50.525860	-2.731540	-1.632820	0.046509	0.643736	0.812254	-1.000000	-1.000000	-1.000000	-1.000000	-1.000000	-1.000000	-1.000000	139.103448	0.000000	-1.000000	-1.000000	429890.000000	1772918889.141044
-5000.715000	23653.080000	-18481.545000	-15134.895000	0.000000	0.000000	0.000000	0.000000	-5.657273	-8.435847	-61.984502	-2.877378	-0.000000	-0.000000	-0.000000	0.000000	-50.525860	-2.731540	-1.632820	0.046509	0.643736	0.812254	-1.000000	-1.000000	-1.000000	-1.000000	-1.000000	-1.000000	-1.000000	139.103448	0.000000	-1.000000	-1.000000	429891.000000	1772918889.141046
-5042.295000	23692.320000	-18528.795000	-15104.070000	0.000000	0.000000	0.000000	0.000000	-52.193605	-34.472904	-110.032757	-81.389253	-0.000000	-0.000000	-0.000000	0.000000	-50.525860	-2.731540	-1.632820	0.046509	0.643736	0.812254	-1.000000	-1.000000	-1.000000	-1.000000	-1.000000	-1.000000	-1.000000	139.103448	0.000000	-1.000000	-1.000000	429892.000000	1772918889.144119
-5012.235000	23662.620000	-18501.840000	-15026.715000	0.000000	0.000000	0.000000	0.000000	-68.494762	-47.246880	-115.707002	-114.703910	-0.000000	-0.000000	-0.000000	0.000000	-50.525860	-2.731540	-1.632820	0.046509	0.643736	0.812254	-1.000000	-1.000000	-1.000000	-1.000000	-1.000000	-1.000000	-1.000000	139.103448	0.000000	-1.000000	-1.000000	429893.000000	1772918889.144121
-4830.750000	23634.720000	-18307.440000	-14869.665000	0.000000	0.000000	0.000000	0.000000	-42.622831	-35.493419	-69.627079	-77.489087	-0.000000	-0.000000	-0.000000	0.000000	-20.372100	2.350040	-4.013380	0.051819	0.546935	0.803465	-1.000000	-1.000000	-1.000000	-1.000000	-1.000000	-1.000000	-1.000000	139.103448	0.000000	-1.000000	-1.000000	429894.000000	1772918889.147710
-4583.520000	23764.635000	-18048.555000	-14676.255000	0.000000	0.000000	0.000000	0.000000	19.289612	-4.410679	17.867234	12.963538	-0.000000	-0.000000	-0.000000	0.000000	-20.372100	2.350040	-4.013380	0.051819	0.546935	0.803465	-1.000000	-1.000000	-1.000000	-1.000000	-1.000000	-1.000000	-1.000000	139.103448	0.000000	-1.000000	-1.000000	429895.000000	1772918889.147713
-4701.150000	23845.950000	-18114.345000	-14754.015000	0.000000	0.000000	0.000000	0.000000	88.488138	35.193327	111.628081	104.995598	-0.000000	-0.000000	-0.000000	0.000000	-20.372100	2.350040	-4.013380	0.051819	0.546935	0.803465	-1.000000	-1.000000	-1.000000	-1.000000	-1.000000	-1.000000	-1.000000	139.103448	0.000000	-1.000000	-1.000000	429896.000000	1772918889.153207
-4946.175000	23872.500000	-18277.830000	-14888.475000	0.000000	0.000000	0.000000	0.000000	111.423106	69.406820	153.011094	137.408831	-0.000000	-0.000000	-0.000000	0.000000	-20.372100	2.350040	-4.013380	0.051819	0.546935	0.803465	-1.000000	-1.000000	-1.000000	-1.000000	-1.000000	-1.000000	-1.000000	139.103448	0.000000	-1.000000	-1.000000	429897.000000	1772918889.153209
-5005.665000	23980.275000	-18348.660000	-14901.750000	0.000000	0.000000	0.000000	0.000000	52.498327	80.873425	102.569566	83.049720	-0.000000	-0.000000	-0.000000	0.000000	-20.372100	2.350040	-4.013380	0.051819	0.546935	0.803465	-1.000000	-1.000000	-1.000000	-1.000000	-1.000000	-1.000000	-1.000000	139.103448	0.000000	-1.000000	-1.000000	429898.000000	1772918889.155737
-4771.440000	24004.080000	-18312.345000	-14874.030000	0.000000	0.000000	0.000000	0.000000	-51.212591	62.183211	-11.767358	-21.315534	-0.000000	-0.000000	-0.000000	0.000000	-20.372100	2.350040	-4.013380	0.051819	0.546935	0.803465	-1.000000	-1.000000	-1.000000	-1.000000	-1.000000	-1.000000	-1.000000	139.103448	0.000000	-1.000000	-1.000000	429899.000000	1772918889.155739
-4787.640000	23884.200000	-18364.455000	-14869.845000	0.000000	0.000000	0.000000	0.000000	-116.317424	18.167887	-114.605250	-105.951359	-0.000000	-0.000000	-0.000000	0.000000	-20.372100	2.350040	-4.013380	0.051819	0.546935	0.803465	-1.000000	-1.000000	-1.000000	-1.000000	-1.000000	-1.000000	-1.000000	139.103448	0.000000	-1.000000	-1.000000	429900.000000	1772918889.159756
-4939.875000	23765.400000	-18437.220000	-14993.640000	0.000000	0.000000	0.000000	0.000000	-104.463703	-42.560814	-150.795095	-128.971872	-0.000000	-0.000000	-0.000000	0.000000	-20.372100	2.350040	-4.013380	0.051819	0.546935	0.803465	-1.000000	-1.000000	-1.000000	-1.000000	-1.000000	-1.000000	-1.000000	139.103448	0.000000	-1.000000	-1.000000	429901.000000	1772918889.159758
-4959.495000	23677.020000	-18449.460000	-15048.180000	0.000000	0.000000	0.000000	0.000000	-50.278864	-103.072063	-117.960389	-98.721595	-0.000000	-0.000000	-0.000000	0.000000	-20.372100	2.350040	-4.013380	0.051819	0.546935	0.803465	-1.000000	-1.000000	-1.000000	-1.000000	-1.000000	-1.000000	-1.000000	139.103448	0.000000	-1.000000	-1.000000	429902.000000	1772918889.164391
-5058.360000	23590.125000	-18316.215000	-14859.990000	0.000000	0.000000	0.000000	0.000000	-2.221874	-136.445577	-43.560163	-42.211746	-0.000000	-0.000000	-0.000000	0.000000	-20.372100	2.350040	-4.013380	0.051819	0.546935	0.803465	-1.000000	-1.000000	-1.000000	-1.000000	-1.000000	-1.000000	-1.000000	139.103448	0.000000	-1.000000	-1.000000	429903.000000	1772918889.164394
-4887.585000	23599.485000	-18198.045000	-14783.265000	0.000000	0.000000	0.000000	0.000000	24.694640	-121.561400	43.720621	25.626444	-0.000000	-0.000000	-0.000000	0.000000	7.385840	3.937080	8.667680	0.041504	0.517943	0.805601	-1.000000	-1.000000	-1.000000	-1.000000	-1.000000	-1.000000	-1.000000	139.103448	0.000000	-1.000000	-1.000000	429904.000000	1772918889.167671
-4828.095000	23650.920000	-17977.545000	-14665.770000	0.000000	0.000000	0.000000	0.000000	44.179393	-57.284158	119.216196	90.979775	-0.000000	-0.000000	-0.000000	0.000000	7.385840	3.937080	8.667680	0.041504	0.517943	0.805601	-1.000000	-1.000000	-1.000000	-1.000000	-1.000000	-1.000000	-1.000000	139.103448	0.000000	-1.000000	-1.000000	429905.000000	1772918889.167674
-4846.680000	23628.510000	-18071.415000	-14687.955000	0.000000	0.000000	0.000000	0.000000	65.402738	33.678776	156.951545	127.798437	-0.000000	-0.000000	-0.000000	0.000000	7.385840	3.937080	8.667680	0.041504	0.517943	0.805601	-1.000000	-1.000000	-1.000000	-1.000000	-1.000000	-1.000000	-1.000000	139.103448	0.000000	-1.000000	-1.000000	429906.000000	1772918889.171776
-4971.690000	23666.130000	-18466.155000	-14996.925000	0.000000	0.000000	0.000000	0.000000	72.137376	112.369513	125.897185	107.759385	-0.000000	-0.000000	-0.000000	0.000000	7.385840	3.937080	8.667680	0.041504	0.517943	0.805601	-1.000000	-1.000000	-1.000000	-1.000000	-1.000000	-1.000000	-1.000000	139.103448	0.000000	-1.000000	-1.000000	429907.000000	1772918889.171779
-5117.355000	23704.110000	-18696.105000	-15209.055000	0.000000	0.000000	0.000000	0.000000	42.721581	146.852226	12.701516	21.007172	-0.000000	-0.000000	-0.000000	0.000000	7.385840	3.937080	8.667680	0.041504	0.517943	0.805601	-1.000000	-1.000000	-1.000000	-1.000000	-1.000000	-1.000000	-1.000000	139.103448	0.000000	-1.000000	-1.000000	429908.000000	1772918889.177102
-4946.445000	23641.695000	-18548.325000	-15097.590000	0.000000	0.000000	0.000000	0.000000	-14.194617	128.813270	-131.905049	-94.357177	-0.000000	-0.000000	-0.000000	0.000000	7.385840	3.937080	8.667680	0.041504	0.517943	0.805601	-1.000000	-1.000000	-1.000000	-1.000000	-1.000000	-1.000000	-1.000000	139.103448	0.000000	-1.000000	-1.000000	429909.000000	1772918889.177105
-4845.645000	23621.895000	-18323.955000	-14923.665000	0.000000	0.000000	0.000000	0.000000	-55.038088	69.647122	-204.413745	-157.613376	-0.000000	-0.000000	-0.000000	0.000000	7.385840	3.937080	8.667680	0.041504	0.517943	0.805601	-1.000000	-1.000000	-1.000000	-1.000000	-1.000000	-1.000000	-1.000000	139.103448	0.000000	-1.000000	-1.000000	429910.000000	1772918889.189209
-4873.320000	23606.820000	-18138.510000	-14785.830000	0.000000	0.000000	0.000000	0.000000	-47.471984	-5.729163	-140.605882	-114.364997	-0.000000	-0.000000	-0.000000	0.000000	7.385840	3.937080	8.667680	0.041504	0.517943	0.805601	-1.000000	-1.000000	-1.000000	-1.000000	-1.000000	-1.000000	-1.000000	139.103448	0.000000	-1.000000	-1.000000	429911.000000	1772918889.189212
-4801.815000	23653.305000	-17943.795000	-14686.245000	0.000000	0.000000	0.000000	0.000000	-6.824217	-65.701426	21.248531	8.507990	-0.000000	-0.000000	-0.000000	0.000000	7.385840	3.937080	8.667680	0.041504	0.517943	0.805601	-1.000000	-1.000000	-1.000000	-1.000000	-1.000000	-1.000000	-1.000000	139.103448	0.000000	-1.000000	-1.000000	429912.000000	1772918889.206719
