Channel1	Channel2	Channel3	Channel4	Channel5	Channel6	Channel7	Channel8	FilteredChannel1	FilteredChannel2	FilteredChannel3	FilteredChannel4	FilteredChannel5	FilteredChannel6	FilteredChannel7	FilteredChannel8	GyroX	GyroY	GyroZ	AccX	AccY	AccZ	PPG1	PPG2	rawPPG1	rawPPG2	rawPPG3	Hr	Hrv	Battery	Trigger	PhysicalTrigger	AutoTrigger	NumMeasurements	Timestamp
-16359.525000	-13524.075000	-17741.970000	-12717.765000	0.000000	0.000000	0.000000	0.000000	-9.722404	75.137450	-9.126686	-9.269022	0.000000	0.000000	-0.000000	-0.000000	4.211760	-0.152600	-0.824040	0.015503	0.984434	-0.007263	-1.000000	-1.000000	-1.000000	-1.000000	-1.000000	-1.000000	-1.000000	146.827586	0.000000	-1.000000	-1.000000	271010.000000	1772311200.223740
-16362.495000	-13525.740000	-17746.470000	-12721.770000	0.000000	0.000000	0.000000	0.000000	-3.573746	46.136467	-2.099080	-2.402683	0.000000	0.000000	-0.000000	-0.000000	4.211760	-0.152600	-0.824040	0.015503	0.984434	-0.007263	-1.000000	-1.000000	-1.000000	-1.000000	-1.000000	-1.000000	-1.000000	146.827586	0.000000	-1.000000	-1.000000	271011.000000	1772311200.223742
-16370.910000	-13495.455000	-17756.415000	-12731.220000	0.000000	0.000000	0.000000	0.000000	3.330626	2.963187	4.676181	4.433114	0.000000	0.000000	-0.000000	-0.000000	4.211760	-0.152600	-0.824040	0.015503	0.984434	-0.007263	-1.000000	-1.000000	-1.000000	-1.000000	-1.000000	-1.000000	-1.000000	146.827586	0.000000	-1.000000	-1.000000	271012.000000	1772311200.227678
-16369.290000	-13455.810000	-17755.965000	-12730.725000	0.000000	0.000000	0.000000	0.000000	7.672114	-34.283214	8.211706	8.139031	0.000000	0.000000	-0.000000	-0.000000	4.211760	-0.152600	-0.824040	0.015503	0.984434	-0.007263	-1.000000	-1.000000	-1.000000	-1.000000	-1.000000	-1.000000	-1.000000	146.827586	0.000000	-1.000000	-1.000000	271013.000000	1772311200.227681
-16342.965000	-13460.805000	-17728.020000	-12704.220000	0.000000	0.000000	0.000000	0.000000	8.869193	-51.001429	8.581741	8.617606	0.000000	0.000000	-0.000000	-0.000000	4.211760	-0.152600	-0.824040	0.015503	0.984434	-0.007263	-1.000000	-1.000000	-1.000000	-1.000000	-1.000000	-1.000000	-1.000000	146.827586	0.000000	-1.000000	-1.000000	271014.000000	1772311200.231707
-16342.515000	-13478.220000	-17727.165000	-12703.320000	0.000000	0.000000	0.000000	0.000000	8.803142	-47.567919	8.258978	8.205605	0.000000	0.000000	-0.000000	-0.000000	4.211760	-0.152600	-0.824040	0.015503	0.984434	-0.007263	-1.000000	-1.000000	-1.000000	-1.000000	-1.000000	-1.000000	-1.000000	146.827586	0.000000	-1.000000	-1.000000	271015.000000	1772311200.231710
-16347.105000	-13474.845000	-17729.055000	-12705.795000	0.000000	0.000000	0.000000	0.000000	7.992499	-34.365947	7.904397	7.623843	0.000000	0.000000	-0.000000	-0.000000	4.211760	-0.152600	-0.824040	0.015503	0.984434	-0.007263	-1.000000	-1.000000	-1.000000	-1.000000	-1.000000	-1.000000	-1.000000	146.827586	0.000000	-1.000000	-1.000000	271016.000000	1772311200.235692
-16358.040000	-13441.230000	-17740.485000	-12716.460000	0.000000	0.000000	0.000000	0.000000	4.658861	-19.245354	5.363861	4.942164	0.000000	0.000000	-0.000000	-0.000000	4.211760	-0.152600	-0.824040	0.015503	0.984434	-0.007263	-1.000000	-1.000000	-1.000000	-1.000000	-1.000000	-1.000000	-1.000000	146.827586	0.000000	-1.000000	-1.000000	271017.000000	1772311200.235695
-16362.270000	-13419.855000	-17748.180000	-12723.660000	0.000000	0.000000	0.000000	0.000000	-1.746766	-3.621152	-0.600371	-0.896547	0.000000	0.000000	-0.000000	-0.000000	4.211760	-0.152600	-0.824040	0.015503	0.984434	-0.007263	-1.000000	-1.000000	-1.000000	-1.000000	-1.000000	-1.000000	-1.000000	146.827586	0.000000	-1.000000	-1.000000	271018.000000	1772311200.239642
-16356.015000	-13403.565000	-17740.755000	-12719.520000	0.000000	0.000000	0.000000	0.000000	-8.442139	11.569629	-7.704590	-7.692693	0.000000	0.000000	-0.000000	-0.000000	4.211760	-0.152600	-0.824040	0.015503	0.984434	-0.007263	-1.000000	-1.000000	-1.000000	-1.000000	-1.000000	-1.000000	-1.000000	146.827586	0.000000	-1.000000	-1.000000	271019.000000	1772311200.239645
-16351.830000	-13397.130000	-17736.840000	-12716.100000	0.000000	0.000000	0.000000	0.000000	-11.317082	22.124420	-11.570695	-11.400500	0.000000	0.000000	-0.000000	-0.000000	2.929920	0.274680	-0.289940	0.015076	0.986081	-0.009155	-1.000000	-1.000000	-1.000000	-1.000000	-1.000000	-1.000000	-1.000000	146.827586	0.000000	-1.000000	-1.000000	271020.000000	1772311200.244147
-16349.130000	-13407.255000	-17734.680000	-12710.205000	0.000000	0.000000	0.000000	0.000000	-8.643264	23.479985	-9.718683	-9.608716	0.000000	0.000000	-0.000000	-0.000000	2.929920	0.274680	-0.289940	0.015076	0.986081	-0.009155	-1.000000	-1.000000	-1.000000	-1.000000	-1.000000	-1.000000	-1.000000	146.827586	0.000000	-1.000000	-1.000000	271021.000000	1772311200.244150
-16345.890000	-13426.875000	-17729.730000	-12700.215000	0.000000	0.000000	0.000000	0.000000	-2.430645	14.602195	-3.677305	-3.390642	0.000000	0.000000	-0.000000	-0.000000	2.929920	0.274680	-0.289940	0.015076	0.986081	-0.009155	-1.000000	-1.000000	-1.000000	-1.000000	-1.000000	-1.000000	-1.000000	146.827586	0.000000	-1.000000	-1.000000	271022.000000	1772311200.247818
-16344.405000	-13441.770000	-17729.640000	-12699.855000	0.000000	0.000000	0.000000	0.000000	3.620513	-0.617248	2.838241	3.809221	0.000000	0.000000	-0.000000	-0.000000	2.929920	0.274680	-0.289940	0.015076	0.986081	-0.009155	-1.000000	-1.000000	-1.000000	-1.000000	-1.000000	-1.000000	-1.000000	146.827586	0.000000	-1.000000	-1.000000	271023.000000	1772311200.247821
-16351.470000	-13407.120000	-17738.100000	-12717.630000	0.000000	0.000000	0.000000	0.000000	6.590234	-13.956696	6.490756	7.936516	0.000000	0.000000	-0.000000	-0.000000	2.929920	0.274680	-0.289940	0.015076	0.986081	-0.009155	-1.000000	-1.000000	-1.000000	-1.000000	-1.000000	-1.000000	-1.000000	146.827586	0.000000	-1.000000	-1.000000	271024.000000	1772311200.253085
-16361.910000	-13373.415000	-17746.920000	-12725.145000	0.000000	0.000000	0.000000	0.000000	5.369311	-16.502970	5.715790	6.386804	0.000000	0.000000	-0.000000	-0.000000	2.929920	0.274680	-0.289940	0.015076	0.986081	-0.009155	-1.000000	-1.000000	-1.000000	-1.000000	-1.000000	-1.000000	-1.000000	146.827586	0.000000	-1.000000	-1.000000	271025.000000	1772311200.253088
-16363.260000	-13381.965000	-17746.515000	-12721.905000	0.000000	0.000000	0.000000	0.000000	1.050631	-6.418444	1.578722	0.540779	0.000000	0.000000	-0.000000	-0.000000	2.929920	0.274680	-0.289940	0.015076	0.986081	-0.009155	-1.000000	-1.000000	-1.000000	-1.000000	-1.000000	-1.000000	-1.000000	146.827586	0.000000	-1.000000	-1.000000	271026.000000	1772311200.255802
-16352.865000	-13409.280000	-17740.980000	-12726.180000	0.000000	0.000000	0.000000	0.000000	-3.181493	7.124024	-2.603729	-4.917371	0.000000	0.000000	-0.000000	-0.000000	2.929920	0.274680	-0.289940	0.015076	0.986081	-0.009155	-1.000000	-1.000000	-1.000000	-1.000000	-1.000000	-1.000000	-1.000000	146.827586	0.000000	-1.000000	-1.000000	271027.000000	1772311200.255805
-16338.195000	-13431.015000	-17727.570000	-12711.330000	0.000000	0.000000	0.000000	0.000000	-3.873574	12.175232	-3.552214	-6.108460	0.000000	0.000000	-0.000000	-0.000000	2.929920	0.274680	-0.289940	0.015076	0.986081	-0.009155	-1.000000	-1.000000	-1.000000	-1.000000	-1.000000	-1.000000	-1.000000	146.827586	0.000000	-1.000000	-1.000000	271028.000000	1772311200.259778
-16336.440000	-13460.715000	-17725.050000	-12706.515000	0.000000	0.000000	0.000000	0.000000	-0.320622	5.290380	-0.597662	-2.444043	0.000000	0.000000	-0.000000	-0.000000	2.929920	0.274680	-0.289940	0.015076	0.986081	-0.009155	-1.000000	-1.000000	-1.000000	-1.000000	-1.000000	-1.000000	-1.000000	146.827586	0.000000	-1.000000	-1.000000	271029.000000	1772311200.259781
-16335.315000	-13470.795000	-17722.305000	-12702.645000	0.000000	0.000000	0.000000	0.000000	4.426349	-7.044634	3.731175	3.508264	0.000000	0.000000	-0.000000	-0.000000	1.449700	0.259420	0.137340	0.014099	0.986387	-0.009521	-1.000000	-1.000000	-1.000000	-1.000000	-1.000000	-1.000000	-1.000000	146.827586	0.000000	-1.000000	-1.000000	271030.000000	1772311200.263739
-16335.045000	-13475.970000	-17721.270000	-12697.695000	0.000000	0.000000	0.000000	0.000000	6.391640	-15.011062	5.952192	7.818916	0.000000	0.000000	-0.000000	-0.000000	1.449700	0.259420	0.137340	0.014099	0.986387	-0.009521	-1.000000	-1.000000	-1.000000	-1.000000	-1.000000	-1.000000	-1.000000	146.827586	0.000000	-1.000000	-1.000000	271031.000000	1772311200.263742
-16336.665000	-13508.190000	-17724.015000	-12698.550000	0.000000	0.000000	0.000000	0.000000	4.144907	-13.238546	4.459690	7.984721	0.000000	0.000000	-0.000000	-0.000000	1.449700	0.259420	0.137340	0.014099	0.986387	-0.009521	-1.000000	-1.000000	-1.000000	-1.000000	-1.000000	-1.000000	-1.000000	146.827586	0.000000	-1.000000	-1.000000	271032.000000	1772311200.267831
-16339.095000	-13524.930000	-17723.340000	-12697.605000	0.000000	0.000000	0.000000	0.000000	-0.742386	-4.290385	0.229334	4.178625	0.000000	0.000000	-0.000000	-0.000000	1.449700	0.259420	0.137340	0.014099	0.986387	-0.009521	-1.000000	-1.000000	-1.000000	-1.000000	-1.000000	-1.000000	-1.000000	146.827586	0.000000	-1.000000	-1.000000	271033.000000	1772311200.267834
-16340.715000	-13526.820000	-17726.355000	-12701.295000	0.000000	0.000000	0.000000	0.000000	-5.458092	5.807003	-4.307388	-1.498225	0.000000	0.000000	-0.000000	-0.000000	1.449700	0.259420	0.137340	0.014099	0.986387	-0.009521	-1.000000	-1.000000	-1.000000	-1.000000	-1.000000	-1.000000	-1.000000	146.827586	0.000000	-1.000000	-1.000000	271034.000000	1772311200.271813
-16338.870000	-13524.210000	-17724.960000	-12701.295000	0.000000	0.000000	0.000000	0.000000	-7.678954	13.538431	-6.892788	-6.413649	0.000000	0.000000	-0.000000	-0.000000	1.449700	0.259420	0.137340	0.014099	0.986387	-0.009521	-1.000000	-1.000000	-1.000000	-1.000000	-1.000000	-1.000000	-1.000000	146.827586	0.000000	-1.000000	-1.000000	271035.000000	1772311200.271816
-16339.410000	-13517.865000	-17724.780000	-12699.720000	0.000000	0.000000	0.000000	0.000000	-6.564673	18.106123	-6.543594	-8.577536	0.000000	0.000000	-0.000000	-0.000000	1.449700	0.259420	0.137340	0.014099	0.986387	-0.009521	-1.000000	-1.000000	-1.000000	-1.000000	-1.000000	-1.000000	-1.000000	146.827586	0.000000	-1.000000	-1.000000	271036.000000	1772311200.279446
-16336.260000	-13523.040000	-17723.655000	-12698.505000	0.000000	0.000000	0.000000	0.000000	-2.953751	18.949581	-3.738527	-7.321256	0.000000	0.000000	-0.000000	-0.000000	1.449700	0.259420	0.137340	0.014099	0.986387	-0.009521	-1.000000	-1.000000	-1.000000	-1.000000	-1.000000	-1.000000	-1.000000	146.827586	0.000000	-1.000000	-1.000000	271037.000000	1772311200.279449
-16333.290000	-13513.095000	-17722.890000	-12697.740000	0.000000	0.000000	0.000000	0.000000	1.373325	15.397548	0.038139	-3.549826	0.000000	0.000000	-0.000000	-0.000000	1.449700	0.259420	0.137340	0.014099	0.986387	-0.009521	-1.000000	-1.000000	-1.000000	-1.000000	-1.000000	-1.000000	-1.000000	146.827586	0.000000	-1.000000	-1.000000	271038.000000	1772311200.279828
-16331.355000	-13497.255000	-17721.090000	-12695.760000	0.000000	0.000000	0.000000	0.000000	4.707542	8.441585	3.177240	0.833238	0.000000	0.000000	-0.000000	-0.000000	1.449700	0.259420	0.137340	0.014099	0.986387	-0.009521	-1.000000	-1.000000	-1.000000	-1.000000	-1.000000	-1.000000	-1.000000	146.827586	0.000000	-1.000000	-1.000000	271039.000000	1772311200.279830
-16332.975000	-13466.475000	-17723.115000	-12697.740000	0.000000	0.000000	0.000000	0.000000	5.920283	1.273064	4.646005	4.012230	0.000000	0.000000	-0.000000	-0.000000	0.732480	0.366240	0.518840	0.013550	0.985166	-0.009094	-1.000000	-1.000000	-1.000000	-1.000000	-1.000000	-1.000000	-1.000000	146.827586	0.000000	-1.000000	-1.000000	271040.000000	1772311200.283892
-16337.565000	-13509.900000	-17724.465000	-12698.640000	0.000000	0.000000	0.000000	0.000000	4.654971	-4.222523	4.168150	4.982361	0.000000	0.000000	-0.000000	-0.000000	0.732480	0.366240	0.518840	0.013550	0.985166	-0.009094	-1.000000	-1.000000	-1.000000	-1.000000	-1.000000	-1.000000	-1.000000	146.827586	0.000000	-1.000000	-1.000000	271041.000000	1772311200.283895
-16337.745000	-13536.045000	-17724.915000	-12702.060000	0.000000	0.000000	0.000000	0.000000	1.561595	-10.406896	2.246425	3.799247	0.000000	0.000000	-0.000000	-0.000000	0.732480	0.366240	0.518840	0.013550	0.985166	-0.009094	-1.000000	-1.000000	-1.000000	-1.000000	-1.000000	-1.000000	-1.000000	146.827586	0.000000	-1.000000	-1.000000	271042.000000	1772311200.287859
-16328.970000	-13548.330000	-17717.670000	-12696.615000	0.000000	0.000000	0.000000	0.000000	-1.586115	-18.912890	0.111349	1.529974	0.000000	0.000000	-0.000000	-0.000000	0.732480	0.366240	0.518840	0.013550	0.985166	-0.009094	-1.000000	-1.000000	-1.000000	-1.000000	-1.000000	-1.000000	-1.000000	146.827586	0.000000	-1.000000	-1.000000	271043.000000	1772311200.287862
-16334.280000	-13547.745000	-17721.630000	-12697.155000	0.000000	0.000000	0.000000	0.000000	-2.960012	-25.129692	-1.031921	-0.318716	0.000000	0.000000	-0.000000	-0.000000	0.732480	0.366240	0.518840	0.013550	0.985166	-0.009094	-1.000000	-1.000000	-1.000000	-1.000000	-1.000000	-1.000000	-1.000000	146.827586	0.000000	-1.000000	-1.000000	271044.000000	1772311200.291828
-16338.330000	-13528.530000	-17726.310000	-12700.260000	0.000000	0.000000	0.000000	0.000000	-2.493318	-22.229466	-1.190723	-0.997419	0.000000	0.000000	-0.000000	-0.000000	0.732480	0.366240	0.518840	0.013550	0.985166	-0.009094	-1.000000	-1.000000	-1.000000	-1.000000	-1.000000	-1.000000	-1.000000	146.827586	0.000000	-1.000000	-1.000000	271045.000000	1772311200.291831
-16340.490000	-13481.055000	-17732.655000	-12705.480000	0.000000	0.000000	0.000000	0.000000	-1.571492	-7.898714	-1.369867	-1.036149	0.000000	0.000000	-0.000000	-0.000000	0.732480	0.366240	0.518840	0.013550	0.985166	-0.009094	-1.000000	-1.000000	-1.000000	-1.000000	-1.000000	-1.000000	-1.000000	146.827586	0.000000	-1.000000	-1.000000	271046.000000	1772311200.295868
-16344.045000	-13429.980000	-17736.390000	-12709.395000	0.000000	0.000000	0.000000	0.000000	-1.082192	13.754549	-2.068378	-1.255426	0.000000	0.000000	-0.000000	-0.000000	0.732480	0.366240	0.518840	0.013550	0.985166	-0.009094	-1.000000	-1.000000	-1.000000	-1.000000	-1.000000	-1.000000	-1.000000	146.827586	0.000000	-1.000000	-1.000000	271047.000000	1772311200.295871
-16336.260000	-13465.530000	-17728.515000	-12701.970000	0.000000	0.000000	0.000000	0.000000	-0.717658	32.375574	-2.506635	-1.542534	0.000000	0.000000	-0.000000	-0.000000	0.732480	0.366240	0.518840	0.013550	0.985166	-0.009094	-1.000000	-1.000000	-1.000000	-1.000000	-1.000000	-1.000000	-1.000000	146.827586	0.000000	-1.000000	-1.000000	271048.000000	1772311200.299841
-16331.175000	-13516.290000	-17723.070000	-12698.415000	0.000000	0.000000	0.000000	0.000000	0.372494	34.452904	-1.358462	-0.922240	0.000000	0.000000	-0.000000	-0.000000	0.732480	0.366240	0.518840	0.013550	0.985166	-0.009094	-1.000000	-1.000000	-1.000000	-1.000000	-1.000000	-1.000000	-1.000000	146.827586	0.000000	-1.000000	-1.000000	271049.000000	1772311200.299843
-16334.955000	-13525.110000	-17725.905000	-12701.475000	0.000000	0.000000	0.000000	0.000000	2.219820	14.733824	1.426465	0.852743	0.000000	0.000000	-0.000000	-0.000000	0.381500	0.396760	0.671440	0.014038	0.985288	-0.008545	-1.000000	-1.000000	-1.000000	-1.000000	-1.000000	-1.000000	-1.000000	146.827586	0.000000	-1.000000	-1.000000	271050.000000	1772311200.305099
-16336.170000	-13537.395000	-17724.870000	-12701.430000	0.000000	0.000000	0.000000	0.000000	3.441939	-15.168222	3.992327	2.499450	0.000000	0.000000	-0.000000	-0.000000	0.381500	0.396760	0.671440	0.014038	0.985288	-0.008545	-1.000000	-1.000000	-1.000000	-1.000000	-1.000000	-1.000000	-1.000000	146.827586	0.000000	-1.000000	-1.000000	271051.000000	1772311200.305101
-16337.025000	-13554.315000	-17724.780000	-12699.000000	0.000000	0.000000	0.000000	0.000000	2.799742	-36.250273	4.490815	2.740760	0.000000	0.000000	-0.000000	-0.000000	0.381500	0.396760	0.671440	0.014038	0.985288	-0.008545	-1.000000	-1.000000	-1.000000	-1.000000	-1.000000	-1.000000	-1.000000	146.827586	0.000000	-1.000000	-1.000000	271052.000000	1772311200.312432
-16337.565000	-13545.495000	-17726.940000	-12697.245000	0.000000	0.000000	0.000000	0.000000	0.644906	-37.661632	2.743243	1.680284	0.000000	0.000000	-0.000000	-0.000000	0.381500	0.396760	0.671440	0.014038	0.985288	-0.008545	-1.000000	-1.000000	-1.000000	-1.000000	-1.000000	-1.000000	-1.000000	146.827586	0.000000	-1.000000	-1.000000	271053.000000	1772311200.312434
-16320.015000	-13546.035000	-17713.935000	-12687.120000	0.000000	0.000000	0.000000	0.000000	-1.315313	-21.067458	0.110876	0.395028	0.000000	0.000000	-0.000000	-0.000000	0.381500	0.396760	0.671440	0.014038	0.985288	-0.008545	-1.000000	-1.000000	-1.000000	-1.000000	-1.000000	-1.000000	-1.000000	146.827586	0.000000	-1.000000	-1.000000	271054.000000	1772311200.312438
-16323.975000	-13536.405000	-17717.985000	-12692.250000	0.000000	0.000000	0.000000	0.000000	-1.462519	3.556922	-1.631424	-0.268956	0.000000	0.000000	-0.000000	-0.000000	0.381500	0.396760	0.671440	0.014038	0.985288	-0.008545	-1.000000	-1.000000	-1.000000	-1.000000	-1.000000	-1.000000	-1.000000	146.827586	0.000000	-1.000000	-1.000000	271055.000000	1772311200.312440
-16323.705000	-13544.820000	-17716.230000	-12689.730000	0.000000	0.000000	0.000000	0.000000	-0.192652	24.123604	-1.965329	-0.556442	0.000000	0.000000	-0.000000	-0.000000	0.381500	0.396760	0.671440	0.014038	0.985288	-0.008545	-1.000000	-1.000000	-1.000000	-1.000000	-1.000000	-1.000000	-1.000000	146.827586	0.000000	-1.000000	-1.000000	271056.000000	1772311200.315957
-16325.955000	-13557.645000	-17720.010000	-12693.330000	0.000000	0.000000	0.000000	0.000000	0.536481	32.048915	-1.790779	-1.169060	0.000000	0.000000	-0.000000	-0.000000	0.381500	0.396760	0.671440	0.014038	0.985288	-0.008545	-1.000000	-1.000000	-1.000000	-1.000000	-1.000000	-1.000000	-1.000000	146.827586	0.000000	-1.000000	-1.000000	271057.000000	1772311200.315960
-16322.265000	-13602.735000	-17717.220000	-12691.305000	0.000000	0.000000	0.000000	0.000000	-0.205860	24.992608	-1.845926	-2.116233	0.000000	0.000000	-0.000000	-0.000000	0.381500	0.396760	0.671440	0.014038	0.985288	-0.008545	-1.000000	-1.000000	-1.000000	-1.000000	-1.000000	-1.000000	-1.000000	146.827586	0.000000	-1.000000	-1.000000	271058.000000	1772311200.319892
-16317.180000	-13657.590000	-17710.785000	-12684.780000	0.000000	0.000000	0.000000	0.000000	-1.479774	6.479582	-1.823874	-2.605645	0.000000	0.000000	-0.000000	-0.000000	0.381500	0.396760	0.671440	0.014038	0.985288	-0.008545	-1.000000	-1.000000	-1.000000	-1.000000	-1.000000	-1.000000	-1.000000	146.827586	0.000000	-1.000000	-1.000000	271059.000000	1772311200.319894
-16319.745000	-13667.850000	-17713.080000	-12686.310000	0.000000	0.000000	0.000000	0.000000	-1.974722	-14.933331	-1.087713	-1.888297	0.000000	0.000000	-0.000000	-0.000000	0.717220	0.183120	1.083460	0.013306	0.985349	-0.006409	-1.000000	-1.000000	-1.000000	-1.000000	-1.000000	-1.000000	-1.000000	146.827586	0.000000	-1.000000	-1.000000	271060.000000	1772311200.323903
-16317.495000	-13675.365000	-17710.740000	-12683.790000	0.000000	0.000000	0.000000	0.000000	-1.490093	-27.655827	0.153963	-0.270518	0.000000	0.000000	-0.000000	-0.000000	0.717220	0.183120	1.083460	0.013306	0.985349	-0.006409	-1.000000	-1.000000	-1.000000	-1.000000	-1.000000	-1.000000	-1.000000	146.827586	0.000000	-1.000000	-1.000000	271061.000000	1772311200.323907
-16322.850000	-13661.145000	-17715.240000	-12687.435000	0.000000	0.000000	0.000000	0.000000	-0.740785	-23.799729	1.000640	1.114798	0.000000	0.000000	-0.000000	-0.000000	0.717220	0.183120	1.083460	0.013306	0.985349	-0.006409	-1.000000	-1.000000	-1.000000	-1.000000	-1.000000	-1.000000	-1.000000	146.827586	0.000000	-1.000000	-1.000000	271062.000000	1772311200.332901
-16326.360000	-13646.610000	-17717.625000	-12688.695000	0.000000	0.000000	0.000000	0.000000	-0.443793	-5.234882	0.833360	1.396647	0.000000	0.000000	-0.000000	-0.000000	0.717220	0.183120	1.083460	0.013306	0.985349	-0.006409	-1.000000	-1.000000	-1.000000	-1.000000	-1.000000	-1.000000	-1.000000	146.827586	0.000000	-1.000000	-1.000000	271063.000000	1772311200.332905
-16314.480000	-13663.620000	-17707.455000	-12680.550000	0.000000	0.000000	0.000000	0.000000	-0.493527	17.291562	0.025132	0.752373	0.000000	0.000000	-0.000000	-0.000000	0.717220	0.183120	1.083460	0.013306	0.985349	-0.006409	-1.000000	-1.000000	-1.000000	-1.000000	-1.000000	-1.000000	-1.000000	146.827586	0.000000	-1.000000	-1.000000	271064.000000	1772311200.332909
-16311.105000	-13707.855000	-17702.820000	-12674.655000	0.000000	0.000000	0.000000	0.000000	0.157615	29.976565	-0.146713	0.348865	0.000000	0.000000	-0.000000	-0.000000	0.717220	0.183120	1.083460	0.013306	0.985349	-0.006409	-1.000000	-1.000000	-1.000000	-1.000000	-1.000000	-1.000000	-1.000000	146.827586	0.000000	-1.000000	-1.000000	271065.000000	1772311200.332911
-16312.545000	-13743.900000	-17701.695000	-12674.250000	0.000000	0.000000	0.000000	0.000000	1.807982	24.545799	0.903080	0.900901	0.000000	0.000000	-0.000000	-0.000000	0.717220	0.183120	1.083460	0.013306	0.985349	-0.006409	-1.000000	-1.000000	-1.000000	-1.000000	-1.000000	-1.000000	-1.000000	146.827586	0.000000	-1.000000	-1.000000	271066.000000	1772311200.335962
-16322.445000	-13730.670000	-17711.100000	-12683.340000	0.000000	0.000000	0.000000	0.000000	2.919388	5.477863	1.938622	1.485740	0.000000	0.000000	-0.000000	-0.000000	0.717220	0.183120	1.083460	0.013306	0.985349	-0.006409	-1.000000	-1.000000	-1.000000	-1.000000	-1.000000	-1.000000	-1.000000	146.827586	0.000000	-1.000000	-1.000000	271067.000000	1772311200.335966
-16319.880000	-13746.375000	-17708.535000	-12680.820000	0.000000	0.000000	0.000000	0.000000	1.957763	-13.026723	1.354487	0.718456	0.000000	0.000000	-0.000000	-0.000000	0.717220	0.183120	1.083460	0.013306	0.985349	-0.006409	-1.000000	-1.000000	-1.000000	-1.000000	-1.000000	-1.000000	-1.000000	146.827586	0.000000	-1.000000	-1.000000	271068.000000	1772311200.341908
-16307.820000	-13766.850000	-17697.960000	-12672.360000	0.000000	0.000000	0.000000	0.000000	-0.248547	-20.135744	-0.473543	-1.032826	0.000000	0.000000	-0.000000	-0.000000	0.717220	0.183120	1.083460	0.013306	0.985349	-0.006409	-1.000000	-1.000000	-1.000000	-1.000000	-1.000000	-1.000000	-1.000000	146.827586	0.000000	-1.000000	-1.000000	271069.000000	1772311200.341911
-16305.030000	-13785.840000	-17696.205000	-12670.425000	0.000000	0.000000	0.000000	0.000000	-1.304984	-16.030345	-1.522966	-1.917352	0.000000	0.000000	-0.000000	-0.000000	1.098720	0.610400	-0.030520	0.017273	0.983396	-0.004883	-1.000000	-1.000000	-1.000000	-1.000000	-1.000000	-1.000000	-1.000000	146.827586	0.000000	-1.000000	-1.000000	271070.000000	1772311200.344048
-16306.965000	-13797.225000	-17699.130000	-12672.900000	0.000000	0.000000	0.000000	0.000000	-0.428963	-7.002240	-0.976515	-1.194947	0.000000	0.000000	-0.000000	-0.000000	1.098720	0.610400	-0.030520	0.017273	0.983396	-0.004883	-1.000000	-1.000000	-1.000000	-1.000000	-1.000000	-1.000000	-1.000000	146.827586	0.000000	-1.000000	-1.000000	271071.000000	1772311200.344051
-16311.735000	-13796.190000	-17705.070000	-12678.165000	0.000000	0.000000	0.000000	0.000000	0.719010	1.767437	-0.148023	-0.086759	0.000000	0.000000	-0.000000	-0.000000	1.098720	0.610400	-0.030520	0.017273	0.983396	-0.004883	-1.000000	-1.000000	-1.000000	-1.000000	-1.000000	-1.000000	-1.000000	146.827586	0.000000	-1.000000	-1.000000	271072.000000	1772311200.347977
-16318.575000	-13766.400000	-17712.180000	-12684.960000	0.000000	0.000000	0.000000	0.000000	0.322898	8.816624	-0.525456	-0.068003	0.000000	0.000000	-0.000000	-0.000000	1.098720	0.610400	-0.030520	0.017273	0.983396	-0.004883	-1.000000	-1.000000	-1.000000	-1.000000	-1.000000	-1.000000	-1.000000	146.827586	0.000000	-1.000000	-1.000000	271073.000000	1772311200.347980
-16317.990000	-13750.380000	-17709.480000	-12682.575000	0.000000	0.000000	0.000000	0.000000	-1.613863	14.758839	-1.966752	-1.183457	0.000000	0.000000	-0.000000	-0.000000	1.098720	0.610400	-0.030520	0.017273	0.983396	-0.004883	-1.000000	-1.000000	-1.000000	-1.000000	-1.000000	-1.000000	-1.000000	146.827586	0.000000	-1.000000	-1.000000	271074.000000	1772311200.352033
-16312.005000	-13787.505000	-17700.480000	-12675.465000	0.000000	0.000000	0.000000	0.000000	-3.267894	17.763960	-2.685735	-1.906440	0.000000	0.000000	-0.000000	-0.000000	1.098720	0.610400	-0.030520	0.017273	0.983396	-0.004883	-1.000000	-1.000000	-1.000000	-1.000000	-1.000000	-1.000000	-1.000000	146.827586	0.000000	-1.000000	-1.000000	271075.000000	1772311200.352036
-16317.135000	-13804.605000	-17707.140000	-12680.910000	0.000000	0.000000	0.000000	0.000000	-2.888148	12.982516	-1.271962	-0.903514	0.000000	0.000000	-0.000000	-0.000000	1.098720	0.610400	-0.030520	0.017273	0.983396	-0.004883	-1.000000	-1.000000	-1.000000	-1.000000	-1.000000	-1.000000	-1.000000	146.827586	0.000000	-1.000000	-1.000000	271076.000000	1772311200.357079
-16319.790000	-13806.315000	-17710.920000	-12685.995000	0.000000	0.000000	0.000000	0.000000	-0.776157	-0.175654	1.291675	1.095541	0.000000	0.000000	-0.000000	-0.000000	1.098720	0.610400	-0.030520	0.017273	0.983396	-0.004883	-1.000000	-1.000000	-1.000000	-1.000000	-1.000000	-1.000000	-1.000000	146.827586	0.000000	-1.000000	-1.000000	271077.000000	1772311200.357083
-16323.120000	-13816.530000	-17714.790000	-12690.180000	0.000000	0.000000	0.000000	0.000000	1.307972	-14.457824	2.784391	2.197337	0.000000	0.000000	-0.000000	-0.000000	1.098720	0.610400	-0.030520	0.017273	0.983396	-0.004883	-1.000000	-1.000000	-1.000000	-1.000000	-1.000000	-1.000000	-1.000000	146.827586	0.000000	-1.000000	-1.000000	271078.000000	1772311200.360032
-16319.115000	-13828.905000	-17712.180000	-12686.130000	0.000000	0.000000	0.000000	0.000000	2.279712	-21.715778	2.409450	1.763605	0.000000	0.000000	-0.000000	-0.000000	1.098720	0.610400	-0.030520	0.017273	0.983396	-0.004883	-1.000000	-1.000000	-1.000000	-1.000000	-1.000000	-1.000000	-1.000000	146.827586	0.000000	-1.000000	-1.000000	271079.000000	1772311200.360036
-16308.225000	-13815.180000	-17701.965000	-12672.585000	0.000000	0.000000	0.000000	0.000000	2.590456	-19.141461	1.375820	1.085318	0.000000	0.000000	-0.000000	-0.000000	2.075360	0.274680	-0.610400	0.017639	0.983274	-0.003479	-1.000000	-1.000000	-1.000000	-1.000000	-1.000000	-1.000000	-1.000000	146.827586	0.000000	-1.000000	-1.000000	271080.000000	1772311200.364031
-16314.165000	-13788.540000	-17706.645000	-12674.745000	0.000000	0.000000	0.000000	0.000000	3.000364	-8.322855	1.123922	1.575069	0.000000	0.000000	-0.000000	-0.000000	2.075360	0.274680	-0.610400	0.017639	0.983274	-0.003479	-1.000000	-1.000000	-1.000000	-1.000000	-1.000000	-1.000000	-1.000000	146.827586	0.000000	-1.000000	-1.000000	271081.000000	1772311200.364034
-16321.770000	-13748.445000	-17716.365000	-12687.345000	0.000000	0.000000	0.000000	0.000000	2.879073	6.992343	1.273797	2.435546	0.000000	0.000000	-0.000000	-0.000000	2.075360	0.274680	-0.610400	0.017639	0.983274	-0.003479	-1.000000	-1.000000	-1.000000	-1.000000	-1.000000	-1.000000	-1.000000	146.827586	0.000000	-1.000000	-1.000000	271082.000000	1772311200.367975
-16329.420000	-13736.430000	-17723.340000	-12695.445000	0.000000	0.000000	0.000000	0.000000	0.960885	20.997759	0.248412	1.390965	0.000000	0.000000	-0.000000	-0.000000	2.075360	0.274680	-0.610400	0.017639	0.983274	-0.003479	-1.000000	-1.000000	-1.000000	-1.000000	-1.000000	-1.000000	-1.000000	146.827586	0.000000	-1.000000	-1.000000	271083.000000	1772311200.367978
-16334.820000	-13735.710000	-17725.995000	-12696.255000	0.000000	0.000000	0.000000	0.000000	-2.453901	26.557109	-2.143279	-1.933620	0.000000	0.000000	-0.000000	-0.000000	2.075360	0.274680	-0.610400	0.017639	0.983274	-0.003479	-1.000000	-1.000000	-1.000000	-1.000000	-1.000000	-1.000000	-1.000000	146.827586	0.000000	-1.000000	-1.000000	271084.000000	1772311200.377045
-16322.130000	-13732.695000	-17712.945000	-12685.140000	0.000000	0.000000	0.000000	0.000000	-5.082374	19.420671	-3.900954	-4.875003	0.000000	0.000000	-0.000000	-0.000000	2.075360	0.274680	-0.610400	0.017639	0.983274	-0.003479	-1.000000	-1.000000	-1.000000	-1.000000	-1.000000	-1.000000	-1.000000	146.827586	0.000000	-1.000000	-1.000000	271085.000000	1772311200.377048
-16326.450000	-13727.880000	-17719.200000	-12689.730000	0.000000	0.000000	0.000000	0.000000	-4.584055	2.603190	-2.964024	-4.600259	0.000000	0.000000	-0.000000	-0.000000	2.075360	0.274680	-0.610400	0.017639	0.983274	-0.003479	-1.000000	-1.000000	-1.000000	-1.000000	-1.000000	-1.000000	-1.000000	146.827586	0.000000	-1.000000	-1.000000	271086.000000	1772311200.377053
-16324.965000	-13688.865000	-17720.100000	-12692.205000	0.000000	0.000000	0.000000	0.000000	-1.147323	-14.567915	0.126089	-1.380265	0.000000	0.000000	-0.000000	-0.000000	2.075360	0.274680	-0.610400	0.017639	0.983274	-0.003479	-1.000000	-1.000000	-1.000000	-1.000000	-1.000000	-1.000000	-1.000000	146.827586	0.000000	-1.000000	-1.000000	271087.000000	1772311200.377055
-16316.505000	-13660.515000	-17712.135000	-12686.895000	0.000000	0.000000	0.000000	0.000000	2.835327	-22.429448	3.011599	2.150848	0.000000	0.000000	-0.000000	-0.000000	2.075360	0.274680	-0.610400	0.017639	0.983274	-0.003479	-1.000000	-1.000000	-1.000000	-1.000000	-1.000000	-1.000000	-1.000000	146.827586	0.000000	-1.000000	-1.000000	271088.000000	1772311200.380035
-16318.665000	-13624.065000	-17714.970000	-12689.505000	0.000000	0.000000	0.000000	0.000000	5.307680	-17.716205	4.265792	4.055787	0.000000	0.000000	-0.000000	-0.000000	2.075360	0.274680	-0.610400	0.017639	0.983274	-0.003479	-1.000000	-1.000000	-1.000000	-1.000000	-1.000000	-1.000000	-1.000000	146.827586	0.000000	-1.000000	-1.000000	271089.000000	1772311200.380039
-16333.245000	-13602.330000	-17730.045000	-12703.320000	0.000000	0.000000	0.000000	0.000000	5.059292	-5.377696	3.412541	3.671206	0.000000	0.000000	-0.000000	-0.000000	2.670500	0.076300	-0.366240	0.016357	0.983579	-0.002441	-1.000000	-1.000000	-1.000000	-1.000000	-1.000000	-1.000000	-1.000000	146.827586	0.000000	-1.000000	-1.000000	271090.000000	1772311200.384088
-16350.255000	-13564.845000	-17746.515000	-12720.240000	0.000000	0.000000	0.000000	0.000000	1.453623	6.233729	0.095447	0.789126	0.000000	0.000000	-0.000000	-0.000000	2.670500	0.076300	-0.366240	0.016357	0.983579	-0.002441	-1.000000	-1.000000	-1.000000	-1.000000	-1.000000	-1.000000	-1.000000	146.827586	0.000000	-1.000000	-1.000000	271091.000000	1772311200.384091
-16350.615000	-13499.505000	-17744.580000	-12719.835000	0.000000	0.000000	0.000000	0.000000	-4.189740	12.182784	-4.566895	-3.502779	0.000000	0.000000	-0.000000	-0.000000	2.670500	0.076300	-0.366240	0.016357	0.983579	-0.002441	-1.000000	-1.000000	-1.000000	-1.000000	-1.000000	-1.000000	-1.000000	146.827586	0.000000	-1.000000	-1.000000	271092.000000	1772311200.388439
-16334.235000	-13499.055000	-17727.795000	-12702.645000	0.000000	0.000000	0.000000	0.000000	-7.905310	12.269763	-7.067712	-5.949202	0.000000	0.000000	-0.000000	-0.000000	2.670500	0.076300	-0.366240	0.016357	0.983579	-0.002441	-1.000000	-1.000000	-1.000000	-1.000000	-1.000000	-1.000000	-1.000000	146.827586	0.000000	-1.000000	-1.000000	271093.000000	1772311200.388442
-16328.520000	-13519.395000	-17723.430000	-12697.920000	0.000000	0.000000	0.000000	0.000000	-6.010229	6.006891	-4.333443	-3.522058	0.000000	0.000000	-0.000000	-0.000000	2.670500	0.076300	-0.366240	0.016357	0.983579	-0.002441	-1.000000	-1.000000	-1.000000	-1.000000	-1.000000	-1.000000	-1.000000	146.827586	0.000000	-1.000000	-1.000000	271094.000000	1772311200.392211
-16326.450000	-13525.965000	-17721.270000	-12694.185000	0.000000	0.000000	0.000000	0.000000	0.742673	-7.321211	2.388765	2.791349	0.000000	0.000000	-0.000000	-0.000000	2.670500	0.076300	-0.366240	0.016357	0.983579	-0.002441	-1.000000	-1.000000	-1.000000	-1.000000	-1.000000	-1.000000	-1.000000	146.827586	0.000000	-1.000000	-1.000000	271095.000000	1772311200.392214
-16326.765000	-13529.610000	-17722.485000	-12694.455000	0.000000	0.000000	0.000000	0.000000	7.476006	-22.842893	8.257375	8.416332	0.000000	0.000000	-0.000000	-0.000000	2.670500	0.076300	-0.366240	0.016357	0.983579	-0.002441	-1.000000	-1.000000	-1.000000	-1.000000	-1.000000	-1.000000	-1.000000	146.827586	0.000000	-1.000000	-1.000000	271096.000000	1772311200.396205
-16333.155000	-13517.190000	-17730.135000	-12701.745000	0.000000	0.000000	0.000000	0.000000	9.608299	-31.148932	9.209719	9.315909	0.000000	0.000000	-0.000000	-0.000000	2.670500	0.076300	-0.366240	0.016357	0.983579	-0.002441	-1.000000	-1.000000	-1.000000	-1.000000	-1.000000	-1.000000	-1.000000	146.827586	0.000000	-1.000000	-1.000000	271097.000000	1772311200.396207
-16339.995000	-13515.030000	-17736.840000	-12706.875000	0.000000	0.000000	0.000000	0.000000	6.017666	-26.068606	4.708012	4.787248	0.000000	0.000000	-0.000000	-0.000000	2.670500	0.076300	-0.366240	0.016357	0.983579	-0.002441	-1.000000	-1.000000	-1.000000	-1.000000	-1.000000	-1.000000	-1.000000	146.827586	0.000000	-1.000000	-1.000000	271098.000000	1772311200.400099
-16330.590000	-13544.145000	-17725.410000	-12698.190000	0.000000	0.000000	0.000000	0.000000	-0.654679	-10.284346	-2.184152	-2.281628	0.000000	0.000000	-0.000000	-0.000000	2.670500	0.076300	-0.366240	0.016357	0.983579	-0.002441	-1.000000	-1.000000	-1.000000	-1.000000	-1.000000	-1.000000	-1.000000	146.827586	0.000000	-1.000000	-1.000000	271099.000000	1772311200.400101
-16322.625000	-13590.315000	-17714.790000	-12688.425000	0.000000	0.000000	0.000000	0.000000	-5.794323	6.048806	-6.698109	-7.235615	0.000000	0.000000	-0.000000	-0.000000	2.411080	0.106820	-0.488320	0.015991	0.984189	-0.002869	-1.000000	-1.000000	-1.000000	-1.000000	-1.000000	-1.000000	-1.000000	146.827586	0.000000	-1.000000	-1.000000	271100.000000	1772311200.406771
-16317.855000	-13617.540000	-17709.165000	-12682.125000	0.000000	0.000000	0.000000	0.000000	-6.344318	13.719400	-6.066351	-7.170865	0.000000	0.000000	-0.000000	-0.000000	2.411080	0.106820	-0.488320	0.015991	0.984189	-0.002869	-1.000000	-1.000000	-1.000000	-1.000000	-1.000000	-1.000000	-1.000000	146.827586	0.000000	-1.000000	-1.000000	271101.000000	1772311200.406774
-16320.870000	-13622.490000	-17712.180000	-12684.195000	0.000000	0.000000	0.000000	0.000000	-3.186747	12.395779	-1.877388	-3.220609	0.000000	0.000000	-0.000000	-0.000000	2.411080	0.106820	-0.488320	0.015991	0.984189	-0.002869	-1.000000	-1.000000	-1.000000	-1.000000	-1.000000	-1.000000	-1.000000	146.827586	0.000000	-1.000000	-1.000000	271102.000000	1772311200.408109
-16322.220000	-13649.220000	-17714.295000	-12683.655000	0.000000	0.000000	0.000000	0.000000	0.295293	8.758170	1.812257	0.921269	0.000000	0.000000	-0.000000	-0.000000	2.411080	0.106820	-0.488320	0.015991	0.984189	-0.002869	-1.000000	-1.000000	-1.000000	-1.000000	-1.000000	-1.000000	-1.000000	146.827586	0.000000	-1.000000	-1.000000	271103.000000	1772311200.408112
-16323.795000	-13636.575000	-17718.390000	-12685.095000	0.000000	0.000000	0.000000	0.000000	1.551128	8.389692	2.285351	2.453940	0.000000	0.000000	-0.000000	-0.000000	2.411080	0.106820	-0.488320	0.015991	0.984189	-0.002869	-1.000000	-1.000000	-1.000000	-1.000000	-1.000000	-1.000000	-1.000000	146.827586	0.000000	-1.000000	-1.000000	271104.000000	1772311200.412229
-16324.740000	-13570.020000	-17720.370000	-12687.030000	0.000000	0.000000	0.000000	0.000000	0.514957	13.423324	-0.110625	1.198312	0.000000	0.000000	-0.000000	-0.000000	2.411080	0.106820	-0.488320	0.015991	0.984189	-0.002869	-1.000000	-1.000000	-1.000000	-1.000000	-1.000000	-1.000000	-1.000000	146.827586	0.000000	-1.000000	-1.000000	271105.000000	1772311200.412231
-16320.690000	-13574.115000	-17715.465000	-12684.465000	0.000000	0.000000	0.000000	0.000000	-1.171577	22.816137	-2.948398	-1.168328	0.000000	0.000000	-0.000000	-0.000000	2.411080	0.106820	-0.488320	0.015991	0.984189	-0.002869	-1.000000	-1.000000	-1.000000	-1.000000	-1.000000	-1.000000	-1.000000	146.827586	0.000000	-1.000000	-1.000000	271106.000000	1772311200.416171
-16320.600000	-13598.505000	-17718.165000	-12696.705000	0.000000	0.000000	0.000000	0.000000	-1.821739	28.944369	-3.871239	-2.893091	0.000000	0.000000	-0.000000	-0.000000	2.411080	0.106820	-0.488320	0.015991	0.984189	-0.002869	-1.000000	-1.000000	-1.000000	-1.000000	-1.000000	-1.000000	-1.000000	146.827586	0.000000	-1.000000	-1.000000	271107.000000	1772311200.416174
-16323.210000	-13614.885000	-17719.965000	-12697.695000	0.000000	0.000000	0.000000	0.000000	-1.044485	21.933265	-2.437523	-3.409636	0.000000	0.000000	-0.000000	-0.000000	2.411080	0.106820	-0.488320	0.015991	0.984189	-0.002869	-1.000000	-1.000000	-1.000000	-1.000000	-1.000000	-1.000000	-1.000000	146.827586	0.000000	-1.000000	-1.000000	271108.000000	1772311200.420910
-16321.455000	-13606.740000	-17714.430000	-12684.780000	0.000000	0.000000	0.000000	0.000000	0.283254	1.763346	0.118851	-2.549161	0.000000	0.000000	-0.000000	-0.000000	2.411080	0.106820	-0.488320	0.015991	0.984189	-0.002869	-1.000000	-1.000000	-1.000000	-1.000000	-1.000000	-1.000000	-1.000000	146.827586	0.000000	-1.000000	-1.000000	271109.000000	1772311200.420912
-16318.440000	-13586.805000	-17713.890000	-12683.925000	0.000000	0.000000	0.000000	0.000000	1.319128	-19.741380	2.526318	0.131377	0.000000	0.000000	-0.000000	-0.000000	2.777320	-0.091560	-0.427280	0.016418	0.983518	-0.002563	-1.000000	-1.000000	-1.000000	-1.000000	-1.000000	-1.000000	-1.000000	146.827586	0.000000	-1.000000	-1.000000	271110.000000	1772311200.425960
-16323.705000	-13585.455000	-17723.610000	-12699.810000	0.000000	0.000000	0.000000	0.000000	1.773581	-29.991962	3.785101	3.500257	0.000000	0.000000	-0.000000	-0.000000	2.777320	-0.091560	-0.427280	0.016418	0.983518	-0.002563	-1.000000	-1.000000	-1.000000	-1.000000	-1.000000	-1.000000	-1.000000	146.827586	0.000000	-1.000000	-1.000000	271111.000000	1772311200.425964
-16328.835000	-13598.955000	-17726.580000	-12699.540000	0.000000	0.000000	0.000000	0.000000	1.363674	-26.251176	3.030670	4.793929	0.000000	0.000000	-0.000000	-0.000000	2.777320	-0.091560	-0.427280	0.016418	0.983518	-0.002563	-1.000000	-1.000000	-1.000000	-1.000000	-1.000000	-1.000000	-1.000000	146.827586	0.000000	-1.000000	-1.000000	271112.000000	1772311200.428348
-16323.480000	-13618.125000	-17722.035000	-12694.500000	0.000000	0.000000	0.000000	0.000000	0.159252	-15.444224	0.713857	3.177401	0.000000	0.000000	-0.000000	-0.000000	2.777320	-0.091560	-0.427280	0.016418	0.983518	-0.002563	-1.000000	-1.000000	-1.000000	-1.000000	-1.000000	-1.000000	-1.000000	146.827586	0.000000	-1.000000	-1.000000	271113.000000	1772311200.428351
-16319.925000	-13607.280000	-17718.570000	-12691.530000	0.000000	0.000000	0.000000	0.000000	-0.771709	-5.435645	-1.183492	0.808691	0.000000	0.000000	-0.000000	-0.000000	2.777320	-0.091560	-0.427280	0.016418	0.983518	-0.002563	-1.000000	-1.000000	-1.000000	-1.000000	-1.000000	-1.000000	-1.000000	146.827586	0.000000	-1.000000	-1.000000	271114.000000	1772311200.432328
-16323.120000	-13593.465000	-17720.010000	-12692.340000	0.000000	0.000000	0.000000	0.000000	-0.518693	1.637867	-1.241040	-0.259642	0.000000	0.000000	-0.000000	-0.000000	2.777320	-0.091560	-0.427280	0.016418	0.983518	-0.002563	-1.000000	-1.000000	-1.000000	-1.000000	-1.000000	-1.000000	-1.000000	146.827586	0.000000	-1.000000	-1.000000	271115.000000	1772311200.432331
-16323.030000	-13559.535000	-17718.570000	-12691.935000	0.000000	0.000000	0.000000	0.000000	0.397613	7.918404	0.015053	-0.060615	0.000000	0.000000	-0.000000	-0.000000	2.777320	-0.091560	-0.427280	0.016418	0.983518	-0.002563	-1.000000	-1.000000	-1.000000	-1.000000	-1.000000	-1.000000	-1.000000	146.827586	0.000000	-1.000000	-1.000000	271116.000000	1772311200.436243
-16326.045000	-13546.305000	-17724.060000	-12697.065000	0.000000	0.000000	0.000000	0.000000	0.858878	14.471804	1.078271	0.214337	0.000000	0.000000	-0.000000	-0.000000	2.777320	-0.091560	-0.427280	0.016418	0.983518	-0.002563	-1.000000	-1.000000	-1.000000	-1.000000	-1.000000	-1.000000	-1.000000	146.827586	0.000000	-1.000000	-1.000000	271117.000000	1772311200.436246
-16330.095000	-13566.510000	-17728.740000	-12701.790000	0.000000	0.000000	0.000000	0.000000	0.377362	18.119774	0.860452	-0.365565	0.000000	0.000000	-0.000000	-0.000000	2.777320	-0.091560	-0.427280	0.016418	0.983518	-0.002563	-1.000000	-1.000000	-1.000000	-1.000000	-1.000000	-1.000000	-1.000000	146.827586	0.000000	-1.000000	-1.000000	271118.000000	1772311200.440255
-16332.570000	-13592.520000	-17730.630000	-12701.025000	0.000000	0.000000	0.000000	0.000000	-0.753225	13.577871	-0.593979	-1.685088	0.000000	0.000000	-0.000000	-0.000000	2.777320	-0.091560	-0.427280	0.016418	0.983518	-0.002563	-1.000000	-1.000000	-1.000000	-1.000000	-1.000000	-1.000000	-1.000000	146.827586	0.000000	-1.000000	-1.000000	271119.000000	1772311200.440257
-16321.185000	-13583.070000	-17719.020000	-12689.460000	0.000000	0.000000	0.000000	0.000000	-1.523575	0.468676	-1.910683	-2.426777	0.000000	0.000000	-0.000000	-0.000000	2.075360	-0.015260	-0.686700	0.016418	0.984800	-0.003845	-1.000000	-1.000000	-1.000000	-1.000000	-1.000000	-1.000000	-1.000000	146.827586	0.000000	-1.000000	-1.000000	271120.000000	1772311200.444416
-16321.680000	-13593.960000	-17720.055000	-12689.010000	0.000000	0.000000	0.000000	0.000000	-0.814271	-13.734504	-1.491091	-1.283476	0.000000	0.000000	-0.000000	-0.000000	2.075360	-0.015260	-0.686700	0.016418	0.984800	-0.003845	-1.000000	-1.000000	-1.000000	-1.000000	-1.000000	-1.000000	-1.000000	146.827586	0.000000	-1.000000	-1.000000	271121.000000	1772311200.444419
-16315.200000	-13634.820000	-17713.215000	-12684.465000	0.000000	0.000000	0.000000	0.000000	1.216636	-21.201838	0.635548	1.280061	0.000000	0.000000	-0.000000	-0.000000	2.075360	-0.015260	-0.686700	0.016418	0.984800	-0.003845	-1.000000	-1.000000	-1.000000	-1.000000	-1.000000	-1.000000	-1.000000	146.827586	0.000000	-1.000000	-1.000000	271122.000000	1772311200.448320
-16317.765000	-13639.095000	-17715.690000	-12682.845000	0.000000	0.000000	0.000000	0.000000	3.037742	-20.473340	2.792260	3.366056	0.000000	0.000000	-0.000000	-0.000000	2.075360	-0.015260	-0.686700	0.016418	0.984800	-0.003845	-1.000000	-1.000000	-1.000000	-1.000000	-1.000000	-1.000000	-1.000000	146.827586	0.000000	-1.000000	-1.000000	271123.000000	1772311200.448323
-16321.590000	-13631.895000	-17716.905000	-12680.055000	0.000000	0.000000	0.000000	0.000000	3.093493	-13.213128	3.265439	3.571295	0.000000	0.000000	-0.000000	-0.000000	2.075360	-0.015260	-0.686700	0.016418	0.984800	-0.003845	-1.000000	-1.000000	-1.000000	-1.000000	-1.000000	-1.000000	-1.000000	146.827586	0.000000	-1.000000	-1.000000	271124.000000	1772311200.452294
-16323.255000	-13634.010000	-17714.565000	-12675.420000	0.000000	0.000000	0.000000	0.000000	0.985441	-1.050557	1.632309	1.957033	0.000000	0.000000	-0.000000	-0.000000	2.075360	-0.015260	-0.686700	0.016418	0.984800	-0.003845	-1.000000	-1.000000	-1.000000	-1.000000	-1.000000	-1.000000	-1.000000	146.827586	0.000000	-1.000000	-1.000000	271125.000000	1772311200.452297
-16323.120000	-13637.565000	-17715.645000	-12682.305000	0.000000	0.000000	0.000000	0.000000	-2.080072	12.201292	-0.979008	-0.516807	0.000000	0.000000	-0.000000	-0.000000	2.075360	-0.015260	-0.686700	0.016418	0.984800	-0.003845	-1.000000	-1.000000	-1.000000	-1.000000	-1.000000	-1.000000	-1.000000	146.827586	0.000000	-1.000000	-1.000000	271126.000000	1772311200.456283
-16318.845000	-13640.580000	-17717.670000	-12703.815000	0.000000	0.000000	0.000000	0.000000	-4.086725	20.910228	-3.045280	-3.372745	0.000000	0.000000	-0.000000	-0.000000	2.075360	-0.015260	-0.686700	0.016418	0.984800	-0.003845	-1.000000	-1.000000	-1.000000	-1.000000	-1.000000	-1.000000	-1.000000	146.827586	0.000000	-1.000000	-1.000000	271127.000000	1772311200.456285
-16317.990000	-13653.675000	-17716.950000	-12696.390000	0.000000	0.000000	0.000000	0.000000	-3.767548	21.429996	-3.778826	-6.317161	0.000000	0.000000	-0.000000	-0.000000	2.075360	-0.015260	-0.686700	0.016418	0.984800	-0.003845	-1.000000	-1.000000	-1.000000	-1.000000	-1.000000	-1.000000	-1.000000	146.827586	0.000000	-1.000000	-1.000000	271128.000000	1772311200.460211
-16313.220000	-13658.895000	-17715.330000	-12688.470000	0.000000	0.000000	0.000000	0.000000	-1.463403	14.182326	-3.079708	-7.396165	0.000000	0.000000	-0.000000	-0.000000	2.075360	-0.015260	-0.686700	0.016418	0.984800	-0.003845	-1.000000	-1.000000	-1.000000	-1.000000	-1.000000	-1.000000	-1.000000	146.827586	0.000000	-1.000000	-1.000000	271129.000000	1772311200.460213
-16312.860000	-13683.240000	-17711.415000	-12685.680000	0.000000	0.000000	0.000000	0.000000	1.352625	2.835716	-1.245015	-4.440603	0.000000	0.000000	-0.000000	-0.000000	1.129240	0.076300	-0.564620	0.016785	0.985288	-0.004761	-1.000000	-1.000000	-1.000000	-1.000000	-1.000000	-1.000000	-1.000000	146.827586	0.000000	-1.000000	-1.000000	271130.000000	1772311200.467932
-16322.310000	-13696.740000	-17709.120000	-12682.170000	0.000000	0.000000	0.000000	0.000000	2.952681	-8.090170	1.060881	1.583718	0.000000	0.000000	-0.000000	-0.000000	1.129240	0.076300	-0.564620	0.016785	0.985288	-0.004761	-1.000000	-1.000000	-1.000000	-1.000000	-1.000000	-1.000000	-1.000000	146.827586	0.000000	-1.000000	-1.000000	271131.000000	1772311200.467935
-16328.520000	-13685.445000	-17712.855000	-12684.060000	0.000000	0.000000	0.000000	0.000000	2.151116	-14.462548	2.807672	7.059535	0.000000	0.000000	-0.000000	-0.000000	1.129240	0.076300	-0.564620	0.016785	0.985288	-0.004761	-1.000000	-1.000000	-1.000000	-1.000000	-1.000000	-1.000000	-1.000000	146.827586	0.000000	-1.000000	-1.000000	271132.000000	1772311200.469405
-16330.725000	-13669.515000	-17718.885000	-12690.045000	0.000000	0.000000	0.000000	0.000000	-0.591264	-13.033531	2.913135	8.776004	0.000000	0.000000	-0.000000	-0.000000	1.129240	0.076300	-0.564620	0.016785	0.985288	-0.004761	-1.000000	-1.000000	-1.000000	-1.000000	-1.000000	-1.000000	-1.000000	146.827586	0.000000	-1.000000	-1.000000	271133.000000	1772311200.469408
-16329.015000	-13662.495000	-17721.090000	-12689.865000	0.000000	0.000000	0.000000	0.000000	-3.108822	-4.086480	1.134795	6.025994	0.000000	0.000000	-0.000000	-0.000000	1.129240	0.076300	-0.564620	0.016785	0.985288	-0.004761	-1.000000	-1.000000	-1.000000	-1.000000	-1.000000	-1.000000	-1.000000	146.827586	0.000000	-1.000000	-1.000000	271134.000000	1772311200.472272
-16317.540000	-13657.725000	-17719.470000	-12690.990000	0.000000	0.000000	0.000000	0.000000	-3.156351	7.082983	-1.311766	0.879666	0.000000	0.000000	-0.000000	-0.000000	1.129240	0.076300	-0.564620	0.016785	0.985288	-0.004761	-1.000000	-1.000000	-1.000000	-1.000000	-1.000000	-1.000000	-1.000000	146.827586	0.000000	-1.000000	-1.000000	271135.000000	1772311200.472275
-16314.075000	-13678.065000	-17717.805000	-12690.720000	0.000000	0.000000	0.000000	0.000000	-0.183327	13.315548	-2.582427	-3.544325	0.000000	0.000000	-0.000000	-0.000000	1.129240	0.076300	-0.564620	0.016785	0.985288	-0.004761	-1.000000	-1.000000	-1.000000	-1.000000	-1.000000	-1.000000	-1.000000	146.827586	0.000000	-1.000000	-1.000000	271136.000000	1772311200.476407
-16310.340000	-13679.370000	-17713.215000	-12686.355000	0.000000	0.000000	0.000000	0.000000	3.994853	10.605135	-1.753565	-5.202623	0.000000	0.000000	-0.000000	-0.000000	1.129240	0.076300	-0.564620	0.016785	0.985288	-0.004761	-1.000000	-1.000000	-1.000000	-1.000000	-1.000000	-1.000000	-1.000000	146.827586	0.000000	-1.000000	-1.000000	271137.000000	1772311200.476410
-16320.780000	-13649.355000	-17715.465000	-12684.330000	0.000000	0.000000	0.000000	0.000000	6.288041	1.783106	0.501363	-3.882357	0.000000	0.000000	-0.000000	-0.000000	1.129240	0.076300	-0.564620	0.016785	0.985288	-0.004761	-1.000000	-1.000000	-1.000000	-1.000000	-1.000000	-1.000000	-1.000000	146.827586	0.000000	-1.000000	-1.000000	271138.000000	1772311200.481933
-16317.585000	-13633.155000	-17715.420000	-12683.160000	0.000000	0.000000	0.000000	0.000000	4.757586	-5.390196	2.492804	-0.917370	0.000000	0.000000	-0.000000	-0.000000	1.129240	0.076300	-0.564620	0.016785	0.985288	-0.004761	-1.000000	-1.000000	-1.000000	-1.000000	-1.000000	-1.000000	-1.000000	146.827586	0.000000	-1.000000	-1.000000	271139.000000	1772311200.481936
-16318.215000	-13648.455000	-17722.170000	-12691.440000	0.000000	0.000000	0.000000	0.000000	0.413603	-6.508029	2.785606	1.585108	0.000000	0.000000	-0.000000	-0.000000	1.373400	0.076300	-0.488320	0.016663	0.984922	-0.003662	-1.000000	-1.000000	-1.000000	-1.000000	-1.000000	-1.000000	-1.000000	146.827586	0.000000	-1.000000	-1.000000	271140.000000	1772311200.484292
-16310.340000	-13649.220000	-17715.735000	-12686.355000	0.000000	0.000000	0.000000	0.000000	-3.653774	-4.507322	1.311667	2.132479	0.000000	0.000000	-0.000000	-0.000000	1.373400	0.076300	-0.488320	0.016663	0.984922	-0.003662	-1.000000	-1.000000	-1.000000	-1.000000	-1.000000	-1.000000	-1.000000	146.827586	0.000000	-1.000000	-1.000000	271141.000000	1772311200.484295
-16306.875000	-13678.605000	-17711.640000	-12682.170000	0.000000	0.000000	0.000000	0.000000	-4.945517	-4.302905	-0.489200	1.137701	0.000000	0.000000	-0.000000	-0.000000	1.373400	0.076300	-0.488320	0.016663	0.984922	-0.003662	-1.000000	-1.000000	-1.000000	-1.000000	-1.000000	-1.000000	-1.000000	146.827586	0.000000	-1.000000	-1.000000	271142.000000	1772311200.488561
-16314.165000	-13705.110000	-17715.645000	-12684.240000	0.000000	0.000000	0.000000	0.000000	-3.456356	-7.618550	-1.193410	0.122784	0.000000	0.000000	-0.000000	-0.000000	1.373400	0.076300	-0.488320	0.016663	0.984922	-0.003662	-1.000000	-1.000000	-1.000000	-1.000000	-1.000000	-1.000000	-1.000000	146.827586	0.000000	-1.000000	-1.000000	271143.000000	1772311200.488564
-16308.270000	-13705.515000	-17707.500000	-12678.390000	0.000000	0.000000	0.000000	0.000000	-1.168599	-12.052621	-0.792620	-0.165848	0.000000	0.000000	-0.000000	-0.000000	1.373400	0.076300	-0.488320	0.016663	0.984922	-0.003662	-1.000000	-1.000000	-1.000000	-1.000000	-1.000000	-1.000000	-1.000000	146.827586	0.000000	-1.000000	-1.000000	271144.000000	1772311200.492399
-16308.045000	-13695.840000	-17710.290000	-12679.200000	0.000000	0.000000	0.000000	0.000000	0.364512	-12.299422	-0.018344	0.071939	0.000000	0.000000	-0.000000	-0.000000	1.373400	0.076300	-0.488320	0.016663	0.984922	-0.003662	-1.000000	-1.000000	-1.000000	-1.000000	-1.000000	-1.000000	-1.000000	146.827586	0.000000	-1.000000	-1.000000	271145.000000	1772311200.492402
-16305.165000	-13711.995000	-17707.095000	-12676.005000	0.000000	0.000000	0.000000	0.000000	1.028027	-5.211817	0.493705	0.372834	0.000000	0.000000	-0.000000	-0.000000	1.373400	0.076300	-0.488320	0.016663	0.984922	-0.003662	-1.000000	-1.000000	-1.000000	-1.000000	-1.000000	-1.000000	-1.000000	146.827586	0.000000	-1.000000	-1.000000	271146.000000	1772311200.496364
-16303.500000	-13734.495000	-17702.865000	-12671.640000	0.000000	0.000000	0.000000	0.000000	1.192060	5.557242	0.466869	0.429626	0.000000	0.000000	-0.000000	-0.000000	1.373400	0.076300	-0.488320	0.016663	0.984922	-0.003662	-1.000000	-1.000000	-1.000000	-1.000000	-1.000000	-1.000000	-1.000000	146.827586	0.000000	-1.000000	-1.000000	271147.000000	1772311200.496367
-16305.705000	-13743.630000	-17707.545000	-12677.040000	0.000000	0.000000	0.000000	0.000000	1.025689	12.954724	0.049670	0.171244	0.000000	0.000000	-0.000000	-0.000000	1.373400	0.076300	-0.488320	0.016663	0.984922	-0.003662	-1.000000	-1.000000	-1.000000	-1.000000	-1.000000	-1.000000	-1.000000	146.827586	0.000000	-1.000000	-1.000000	271148.000000	1772311200.501834
-16305.705000	-13753.755000	-17704.305000	-12675.780000	0.000000	0.000000	0.000000	0.000000	0.472008	13.681968	-0.618532	-0.524968	0.000000	0.000000	-0.000000	-0.000000	1.373400	0.076300	-0.488320	0.016663	0.984922	-0.003662	-1.000000	-1.000000	-1.000000	-1.000000	-1.000000	-1.000000	-1.000000	146.827586	0.000000	-1.000000	-1.000000	271149.000000	1772311200.501837
-16307.595000	-13784.445000	-17703.585000	-12675.195000	0.000000	0.000000	0.000000	0.000000	-0.394703	9.271774	-1.288236	-1.484269	0.000000	0.000000	-0.000000	-0.000000	1.968540	0.061040	-0.457800	0.016296	0.984189	-0.002441	-1.000000	-1.000000	-1.000000	-1.000000	-1.000000	-1.000000	-1.000000	146.827586	0.000000	-1.000000	-1.000000	271150.000000	1772311200.506173
-16306.290000	-13812.165000	-17701.515000	-12672.225000	0.000000	0.000000	0.000000	0.000000	-1.155417	2.363630	-1.464632	-1.973642	0.000000	0.000000	-0.000000	-0.000000	1.968540	0.061040	-0.457800	0.016296	0.984189	-0.002441	-1.000000	-1.000000	-1.000000	-1.000000	-1.000000	-1.000000	-1.000000	146.827586	0.000000	-1.000000	-1.000000	271151.000000	1772311200.506176
-16302.690000	-13830.570000	-17699.445000	-12668.310000	0.000000	0.000000	0.000000	0.000000	-1.257595	-4.514185	-0.942676	-1.403395	0.000000	0.000000	-0.000000	-0.000000	1.968540	0.061040	-0.457800	0.016296	0.984189	-0.002441	-1.000000	-1.000000	-1.000000	-1.000000	-1.000000	-1.000000	-1.000000	146.827586	0.000000	-1.000000	-1.000000	271152.000000	1772311200.508662
-16304.310000	-13821.570000	-17704.845000	-12674.340000	0.000000	0.000000	0.000000	0.000000	-0.492506	-7.930748	-0.120638	-0.074496	0.000000	0.000000	-0.000000	-0.000000	1.968540	0.061040	-0.457800	0.016296	0.984189	-0.002441	-1.000000	-1.000000	-1.000000	-1.000000	-1.000000	-1.000000	-1.000000	146.827586	0.000000	-1.000000	-1.000000	271153.000000	1772311200.508665
-16310.295000	-13808.115000	-17710.290000	-12678.120000	0.000000	0.000000	0.000000	0.000000	0.505813	-4.738583	0.181537	0.850828	0.000000	0.000000	-0.000000	-0.000000	1.968540	0.061040	-0.457800	0.016296	0.984189	-0.002441	-1.000000	-1.000000	-1.000000	-1.000000	-1.000000	-1.000000	-1.000000	146.827586	0.000000	-1.000000	-1.000000	271154.000000	1772311200.512486
-16312.185000	-13791.150000	-17712.765000	-12681.405000	0.000000	0.000000	0.000000	0.000000	0.739165	4.646577	-0.453045	0.523469	0.000000	0.000000	-0.000000	-0.000000	1.968540	0.061040	-0.457800	0.016296	0.984189	-0.002441	-1.000000	-1.000000	-1.000000	-1.000000	-1.000000	-1.000000	-1.000000	146.827586	0.000000	-1.000000	-1.000000	271155.000000	1772311200.512488
-16312.455000	-13775.580000	-17713.890000	-12682.755000	0.000000	0.000000	0.000000	0.000000	0.082857	15.251542	-1.369039	-0.600908	0.000000	0.000000	-0.000000	-0.000000	1.968540	0.061040	-0.457800	0.016296	0.984189	-0.002441	-1.000000	-1.000000	-1.000000	-1.000000	-1.000000	-1.000000	-1.000000	146.827586	0.000000	-1.000000	-1.000000	271156.000000	1772311200.516450
-16307.190000	-13818.240000	-17708.265000	-12678.120000	0.000000	0.000000	0.000000	0.000000	-0.489397	19.774815	-1.368072	-1.239893	0.000000	0.000000	-0.000000	-0.000000	1.968540	0.061040	-0.457800	0.016296	0.984189	-0.002441	-1.000000	-1.000000	-1.000000	-1.000000	-1.000000	-1.000000	-1.000000	146.827586	0.000000	-1.000000	-1.000000	271157.000000	1772311200.516453
-16305.570000	-13872.330000	-17703.720000	-12672.630000	0.000000	0.000000	0.000000	0.000000	-0.021159	12.033813	0.218347	-0.387852	0.000000	0.000000	-0.000000	-0.000000	1.968540	0.061040	-0.457800	0.016296	0.984189	-0.002441	-1.000000	-1.000000	-1.000000	-1.000000	-1.000000	-1.000000	-1.000000	146.827586	0.000000	-1.000000	-1.000000	271158.000000	1772311200.520175
-16301.925000	-13878.135000	-17697.960000	-12665.430000	0.000000	0.000000	0.000000	0.000000	1.370485	-6.889308	2.856837	1.868372	0.000000	0.000000	-0.000000	-0.000000	1.968540	0.061040	-0.457800	0.016296	0.984189	-0.002441	-1.000000	-1.000000	-1.000000	-1.000000	-1.000000	-1.000000	-1.000000	146.827586	0.000000	-1.000000	-1.000000	271159.000000	1772311200.520178
-16299.315000	-13847.895000	-17697.690000	-12667.770000	0.000000	0.000000	0.000000	0.000000	2.673193	-24.913564	5.001745	4.171919	0.000000	0.000000	-0.000000	-0.000000	3.021480	-0.381500	-0.640920	0.016846	0.983030	-0.001160	-1.000000	-1.000000	-1.000000	-1.000000	-1.000000	-1.000000	-1.000000	146.827586	0.000000	-1.000000	-1.000000	271160.000000	1772311200.524513
-16304.580000	-13833.810000	-17704.890000	-12674.655000	0.000000	0.000000	0.000000	0.000000	2.818087	-27.801617	4.976767	4.567930	0.000000	0.000000	-0.000000	-0.000000	3.021480	-0.381500	-0.640920	0.016846	0.983030	-0.001160	-1.000000	-1.000000	-1.000000	-1.000000	-1.000000	-1.000000	-1.000000	146.827586	0.000000	-1.000000	-1.000000	271161.000000	1772311200.524516
-16311.195000	-13836.780000	-17711.190000	-12679.020000	0.000000	0.000000	0.000000	0.000000	1.193335	-13.337708	2.071023	2.034733	0.000000	0.000000	-0.000000	-0.000000	3.021480	-0.381500	-0.640920	0.016846	0.983030	-0.001160	-1.000000	-1.000000	-1.000000	-1.000000	-1.000000	-1.000000	-1.000000	146.827586	0.000000	-1.000000	-1.000000	271162.000000	1772311200.529900
-16308.720000	-13845.870000	-17708.310000	-12677.265000	0.000000	0.000000	0.000000	0.000000	-1.705010	6.940113	-2.464569	-2.188541	0.000000	0.000000	-0.000000	-0.000000	3.021480	-0.381500	-0.640920	0.016846	0.983030	-0.001160	-1.000000	-1.000000	-1.000000	-1.000000	-1.000000	-1.000000	-1.000000	146.827586	0.000000	-1.000000	-1.000000	271163.000000	1772311200.529903
-16303.455000	-13836.645000	-17703.990000	-12675.105000	0.000000	0.000000	0.000000	0.000000	-3.981838	19.604687	-5.771277	-5.307123	0.000000	0.000000	-0.000000	-0.000000	3.021480	-0.381500	-0.640920	0.016846	0.983030	-0.001160	-1.000000	-1.000000	-1.000000	-1.000000	-1.000000	-1.000000	-1.000000	146.827586	0.000000	-1.000000	-1.000000	271164.000000	1772311200.536512
-16306.020000	-13853.250000	-17705.970000	-12674.520000	0.000000	0.000000	0.000000	0.000000	-3.917077	19.541933	-5.745987	-5.362436	0.000000	0.000000	-0.000000	-0.000000	3.021480	-0.381500	-0.640920	0.016846	0.983030	-0.001160	-1.000000	-1.000000	-1.000000	-1.000000	-1.000000	-1.000000	-1.000000	146.827586	0.000000	-1.000000	-1.000000	271165.000000	1772311200.536514
-16312.590000	-13867.920000	-17710.380000	-12677.985000	0.000000	0.000000	0.000000	0.000000	-1.918942	9.628389	-2.988884	-2.777879	0.000000	0.000000	-0.000000	-0.000000	3.021480	-0.381500	-0.640920	0.016846	0.983030	-0.001160	-1.000000	-1.000000	-1.000000	-1.000000	-1.000000	-1.000000	-1.000000	146.827586	0.000000	-1.000000	-1.000000	271166.000000	1772311200.536519
-16318.620000	-13842.225000	-17715.645000	-12686.940000	0.000000	0.000000	0.000000	0.000000	0.018424	-3.190550	0.089759	0.247070	0.000000	0.000000	-0.000000	-0.000000	3.021480	-0.381500	-0.640920	0.016846	0.983030	-0.001160	-1.000000	-1.000000	-1.000000	-1.000000	-1.000000	-1.000000	-1.000000	146.827586	0.000000	-1.000000	-1.000000	271167.000000	1772311200.536521
-16321.545000	-13808.565000	-17720.055000	-12694.140000	0.000000	0.000000	0.000000	0.000000	0.590959	-10.460588	1.628473	1.620171	0.000000	0.000000	-0.000000	-0.000000	3.021480	-0.381500	-0.640920	0.016846	0.983030	-0.001160	-1.000000	-1.000000	-1.000000	-1.000000	-1.000000	-1.000000	-1.000000	146.827586	0.000000	-1.000000	-1.000000	271168.000000	1772311200.540488
-16313.670000	-13803.390000	-17713.395000	-12684.465000	0.000000	0.000000	0.000000	0.000000	0.373967	-7.789707	1.651678	1.217129	0.000000	0.000000	-0.000000	-0.000000	3.021480	-0.381500	-0.640920	0.016846	0.983030	-0.001160	-1.000000	-1.000000	-1.000000	-1.000000	-1.000000	-1.000000	-1.000000	146.827586	0.000000	-1.000000	-1.000000	271169.000000	1772311200.540491
-16305.885000	-13815.090000	-17705.295000	-12672.990000	0.000000	0.000000	0.000000	0.000000	0.955564	0.282680	1.650630	1.038405	0.000000	0.000000	-0.000000	-0.000000	3.219860	-0.167860	-0.686700	0.016418	0.983396	-0.001953	-1.000000	-1.000000	-1.000000	-1.000000	-1.000000	-1.000000	-1.000000	146.827586	0.000000	-1.000000	-1.000000	271170.000000	1772311200.544535
-16306.740000	-13803.885000	-17706.690000	-12671.370000	0.000000	0.000000	0.000000	0.000000	2.846264	5.146990	2.630296	2.632655	0.000000	0.000000	-0.000000	-0.000000	3.219860	-0.167860	-0.686700	0.016418	0.983396	-0.001953	-1.000000	-1.000000	-1.000000	-1.000000	-1.000000	-1.000000	-1.000000	146.827586	0.000000	-1.000000	-1.000000	271171.000000	1772311200.544538
-16312.455000	-13801.005000	-17712.540000	-12678.345000	0.000000	0.000000	0.000000	0.000000	4.439364	3.308378	3.596611	4.694543	0.000000	0.000000	-0.000000	-0.000000	3.219860	-0.167860	-0.686700	0.016418	0.983396	-0.001953	-1.000000	-1.000000	-1.000000	-1.000000	-1.000000	-1.000000	-1.000000	146.827586	0.000000	-1.000000	-1.000000	271172.000000	1772311200.548601
-16305.165000	-13822.875000	-17704.125000	-12672.315000	0.000000	0.000000	0.000000	0.000000	3.878236	-2.678403	2.987524	4.647256	0.000000	0.000000	-0.000000	-0.000000	3.219860	-0.167860	-0.686700	0.016418	0.983396	-0.001953	-1.000000	-1.000000	-1.000000	-1.000000	-1.000000	-1.000000	-1.000000	146.827586	0.000000	-1.000000	-1.000000	271173.000000	1772311200.548604
-16311.960000	-13787.955000	-17712.450000	-12682.620000	0.000000	0.000000	0.000000	0.000000	1.280200	-8.487212	0.831370	1.804705	0.000000	0.000000	-0.000000	-0.000000	3.219860	-0.167860	-0.686700	0.016418	0.983396	-0.001953	-1.000000	-1.000000	-1.000000	-1.000000	-1.000000	-1.000000	-1.000000	146.827586	0.000000	-1.000000	-1.000000	271174.000000	1772311200.552579
-16315.605000	-13704.345000	-17713.305000	-12684.465000	0.000000	0.000000	0.000000	0.000000	-1.951229	-8.359888	-1.790410	-2.429218	0.000000	0.000000	-0.000000	-0.000000	3.219860	-0.167860	-0.686700	0.016418	0.983396	-0.001953	-1.000000	-1.000000	-1.000000	-1.000000	-1.000000	-1.000000	-1.000000	146.827586	0.000000	-1.000000	-1.000000	271175.000000	1772311200.552581
-16312.230000	-13671.720000	-17709.300000	-12681.900000	0.000000	0.000000	0.000000	0.000000	-4.449075	1.768363	-3.765703	-5.887478	0.000000	0.000000	-0.000000	-0.000000	3.219860	-0.167860	-0.686700	0.016418	0.983396	-0.001953	-1.000000	-1.000000	-1.000000	-1.000000	-1.000000	-1.000000	-1.000000	146.827586	0.000000	-1.000000	-1.000000	271176.000000	1772311200.556419
-16327.575000	-13661.595000	-17727.030000	-12696.975000	0.000000	0.000000	0.000000	0.000000	-5.307844	16.243791	-4.372510	-6.902489	0.000000	0.000000	-0.000000	-0.000000	3.219860	-0.167860	-0.686700	0.016418	0.983396	-0.001953	-1.000000	-1.000000	-1.000000	-1.000000	-1.000000	-1.000000	-1.000000	146.827586	0.000000	-1.000000	-1.000000	271177.000000	1772311200.556422
-16328.115000	-13651.110000	-17729.190000	-12698.505000	0.000000	0.000000	0.000000	0.000000	-4.673296	22.335623	-4.011298	-5.582977	0.000000	0.000000	-0.000000	-0.000000	3.219860	-0.167860	-0.686700	0.016418	0.983396	-0.001953	-1.000000	-1.000000	-1.000000	-1.000000	-1.000000	-1.000000	-1.000000	146.827586	0.000000	-1.000000	-1.000000	271178.000000	1772311200.560480
-16318.665000	-13661.280000	-17721.585000	-12690.945000	0.000000	0.000000	0.000000	0.000000	-2.887314	13.065909	-3.039521	-2.824192	0.000000	0.000000	-0.000000	-0.000000	3.219860	-0.167860	-0.686700	0.016418	0.983396	-0.001953	-1.000000	-1.000000	-1.000000	-1.000000	-1.000000	-1.000000	-1.000000	146.827586	0.000000	-1.000000	-1.000000	271179.000000	1772311200.560483
-16314.975000	-13664.835000	-17718.255000	-12688.875000	0.000000	0.000000	0.000000	0.000000	0.330395	-7.139410	-0.721938	1.036016	0.000000	0.000000	-0.000000	-0.000000	3.555580	-0.366240	-0.747740	0.015198	0.983091	-0.001526	-1.000000	-1.000000	-1.000000	-1.000000	-1.000000	-1.000000	-1.000000	146.827586	0.000000	-1.000000	-1.000000	271180.000000	1772311200.565825
-16314.570000	-13696.830000	-17716.320000	-12684.780000	0.000000	0.000000	0.000000	0.000000	4.319167	-27.547284	2.913161	5.179485	0.000000	0.000000	-0.000000	-0.000000	3.555580	-0.366240	-0.747740	0.015198	0.983091	-0.001526	-1.000000	-1.000000	-1.000000	-1.000000	-1.000000	-1.000000	-1.000000	146.827586	0.000000	-1.000000	-1.000000	271181.000000	1772311200.565828
-16314.165000	-13727.520000	-17714.070000	-12682.395000	0.000000	0.000000	0.000000	0.000000	6.950826	-39.033065	6.094214	7.872111	0.000000	0.000000	-0.000000	-0.000000	3.555580	-0.366240	-0.747740	0.015198	0.983091	-0.001526	-1.000000	-1.000000	-1.000000	-1.000000	-1.000000	-1.000000	-1.000000	146.827586	0.000000	-1.000000	-1.000000	271182.000000	1772311200.568569
-16316.685000	-13733.640000	-17715.420000	-12685.095000	0.000000	0.000000	0.000000	0.000000	6.537757	-37.629123	6.909548	7.706069	0.000000	0.000000	-0.000000	-0.000000	3.555580	-0.366240	-0.747740	0.015198	0.983091	-0.001526	-1.000000	-1.000000	-1.000000	-1.000000	-1.000000	-1.000000	-1.000000	146.827586	0.000000	-1.000000	-1.000000	271183.000000	1772311200.568572
-16315.155000	-13722.750000	-17712.720000	-12685.410000	0.000000	0.000000	0.000000	0.000000	3.295649	-23.285352	4.870063	4.556338	0.000000	0.000000	-0.000000	-0.000000	3.555580	-0.366240	-0.747740	0.015198	0.983091	-0.001526	-1.000000	-1.000000	-1.000000	-1.000000	-1.000000	-1.000000	-1.000000	146.827586	0.000000	-1.000000	-1.000000	271184.000000	1772311200.572591
-16315.470000	-13723.425000	-17712.675000	-12683.295000	0.000000	0.000000	0.000000	0.000000	-0.935057	0.166102	1.124093	-0.162478	0.000000	0.000000	-0.000000	-0.000000	3.555580	-0.366240	-0.747740	0.015198	0.983091	-0.001526	-1.000000	-1.000000	-1.000000	-1.000000	-1.000000	-1.000000	-1.000000	146.827586	0.000000	-1.000000	-1.000000	271185.000000	1772311200.572594
-16320.690000	-13698.720000	-17720.145000	-12687.660000	0.000000	0.000000	0.000000	0.000000	-4.178496	24.601900	-2.642072	-4.279964	0.000000	0.000000	-0.000000	-0.000000	3.555580	-0.366240	-0.747740	0.015198	0.983091	-0.001526	-1.000000	-1.000000	-1.000000	-1.000000	-1.000000	-1.000000	-1.000000	146.827586	0.000000	-1.000000	-1.000000	271186.000000	1772311200.577175
-16320.870000	-13652.820000	-17722.755000	-12689.775000	0.000000	0.000000	0.000000	0.000000	-5.536068	41.815382	-5.366574	-6.386577	0.000000	0.000000	-0.000000	-0.000000	3.555580	-0.366240	-0.747740	0.015198	0.983091	-0.001526	-1.000000	-1.000000	-1.000000	-1.000000	-1.000000	-1.000000	-1.000000	146.827586	0.000000	-1.000000	-1.000000	271187.000000	1772311200.577177
-16318.845000	-13640.805000	-17722.665000	-12689.955000	0.000000	0.000000	0.000000	0.000000	-4.953714	47.410718	-6.432903	-6.270525	0.000000	0.000000	-0.000000	-0.000000	3.555580	-0.366240	-0.747740	0.015198	0.983091	-0.001526	-1.000000	-1.000000	-1.000000	-1.000000	-1.000000	-1.000000	-1.000000	146.827586	0.000000	-1.000000	-1.000000	271188.000000	1772311200.584323
-16316.415000	-13653.720000	-17717.445000	-12686.670000	0.000000	0.000000	0.000000	0.000000	-2.723104	39.402558	-5.278174	-4.282039	0.000000	0.000000	-0.000000	-0.000000	3.555580	-0.366240	-0.747740	0.015198	0.983091	-0.001526	-1.000000	-1.000000	-1.000000	-1.000000	-1.000000	-1.000000	-1.000000	146.827586	0.000000	-1.000000	-1.000000	271189.000000	1772311200.584326
-16310.835000	-13699.620000	-17709.615000	-12679.245000	0.000000	0.000000	0.000000	0.000000	0.413795	17.613145	-1.893329	-0.986570	0.000000	0.000000	-0.000000	-0.000000	3.967600	-0.396760	-0.671440	0.015381	0.983274	-0.002319	-1.000000	-1.000000	-1.000000	-1.000000	-1.000000	-1.000000	-1.000000	146.827586	0.000000	-1.000000	-1.000000	271190.000000	1772311200.584330
-16308.855000	-13737.465000	-17707.320000	-12676.365000	0.000000	0.000000	0.000000	0.000000	3.312585	-13.100748	2.558858	2.679482	0.000000	0.000000	-0.000000	-0.000000	3.967600	-0.396760	-0.671440	0.015381	0.983274	-0.002319	-1.000000	-1.000000	-1.000000	-1.000000	-1.000000	-1.000000	-1.000000	146.827586	0.000000	-1.000000	-1.000000	271191.000000	1772311200.584333
-16311.735000	-13722.750000	-17710.020000	-12679.605000	0.000000	0.000000	0.000000	0.000000	4.723622	-40.699616	5.863292	5.211670	0.000000	0.000000	-0.000000	-0.000000	3.967600	-0.396760	-0.671440	0.015381	0.983274	-0.002319	-1.000000	-1.000000	-1.000000	-1.000000	-1.000000	-1.000000	-1.000000	146.827586	0.000000	-1.000000	-1.000000	271192.000000	1772311200.588609
-16315.830000	-13698.945000	-17714.970000	-12684.015000	0.000000	0.000000	0.000000	0.000000	3.796234	-50.377651	6.013987	5.119323	0.000000	0.000000	-0.000000	-0.000000	3.967600	-0.396760	-0.671440	0.015381	0.983274	-0.002319	-1.000000	-1.000000	-1.000000	-1.000000	-1.000000	-1.000000	-1.000000	146.827586	0.000000	-1.000000	-1.000000	271193.000000	1772311200.588612
-16315.065000	-13693.815000	-17713.935000	-12682.755000	0.000000	0.000000	0.000000	0.000000	0.902221	-35.908282	2.903126	2.331346	0.000000	0.000000	-0.000000	-0.000000	3.967600	-0.396760	-0.671440	0.015381	0.983274	-0.002319	-1.000000	-1.000000	-1.000000	-1.000000	-1.000000	-1.000000	-1.000000	146.827586	0.000000	-1.000000	-1.000000	271194.000000	1772311200.592555
-16310.790000	-13728.240000	-17710.245000	-12678.390000	0.000000	0.000000	0.000000	0.000000	-2.170151	-7.049479	-1.314135	-1.270270	0.000000	0.000000	-0.000000	-0.000000	3.967600	-0.396760	-0.671440	0.015381	0.983274	-0.002319	-1.000000	-1.000000	-1.000000	-1.000000	-1.000000	-1.000000	-1.000000	146.827586	0.000000	-1.000000	-1.000000	271195.000000	1772311200.592559
-16309.395000	-13727.745000	-17710.155000	-12678.570000	0.000000	0.000000	0.000000	0.000000	-3.492191	17.991138	-3.963502	-3.368273	0.000000	0.000000	-0.000000	-0.000000	3.967600	-0.396760	-0.671440	0.015381	0.983274	-0.002319	-1.000000	-1.000000	-1.000000	-1.000000	-1.000000	-1.000000	-1.000000	146.827586	0.000000	-1.000000	-1.000000	271196.000000	1772311200.597775
-16312.230000	-13702.140000	-17713.485000	-12681.270000	0.000000	0.000000	0.000000	0.000000	-2.675708	28.437295	-4.065958	-3.245416	0.000000	0.000000	-0.000000	-0.000000	3.967600	-0.396760	-0.671440	0.015381	0.983274	-0.002319	-1.000000	-1.000000	-1.000000	-1.000000	-1.000000	-1.000000	-1.000000	146.827586	0.000000	-1.000000	-1.000000	271197.000000	1772311200.597778
-16315.695000	-13681.755000	-17716.455000	-12683.520000	0.000000	0.000000	0.000000	0.000000	-1.006801	26.722523	-2.621207	-1.933772	0.000000	0.000000	-0.000000	-0.000000	3.967600	-0.396760	-0.671440	0.015381	0.983274	-0.002319	-1.000000	-1.000000	-1.000000	-1.000000	-1.000000	-1.000000	-1.000000	146.827586	0.000000	-1.000000	-1.000000	271198.000000	1772311200.600551
-16316.865000	-13672.800000	-17715.510000	-12682.890000	0.000000	0.000000	0.000000	0.000000	0.078948	19.972410	-1.017720	-0.669794	0.000000	0.000000	-0.000000	-0.000000	3.967600	-0.396760	-0.671440	0.015381	0.983274	-0.002319	-1.000000	-1.000000	-1.000000	-1.000000	-1.000000	-1.000000	-1.000000	146.827586	0.000000	-1.000000	-1.000000	271199.000000	1772311200.600553
-16313.220000	-13711.455000	-17711.235000	-12678.390000	0.000000	0.000000	0.000000	0.000000	0.340136	11.007779	0.287723	0.245975	0.000000	0.000000	-0.000000	-0.000000	3.845520	-0.289940	-0.518840	0.015930	0.983701	-0.003662	-1.000000	-1.000000	-1.000000	-1.000000	-1.000000	-1.000000	-1.000000	146.827586	0.000000	-1.000000	-1.000000	271200.000000	1772311200.604632
-16314.930000	-13731.255000	-17711.820000	-12679.065000	0.000000	0.000000	0.000000	0.000000	0.460568	-1.368177	1.481979	1.106651	0.000000	0.000000	-0.000000	-0.000000	3.845520	-0.289940	-0.518840	0.015930	0.983701	-0.003662	-1.000000	-1.000000	-1.000000	-1.000000	-1.000000	-1.000000	-1.000000	146.827586	0.000000	-1.000000	-1.000000	271201.000000	1772311200.604635
-16314.750000	-13726.350000	-17714.745000	-12682.620000	0.000000	0.000000	0.000000	0.000000	0.825837	-15.407515	2.350450	1.772522	0.000000	0.000000	-0.000000	-0.000000	3.845520	-0.289940	-0.518840	0.015930	0.983701	-0.003662	-1.000000	-1.000000	-1.000000	-1.000000	-1.000000	-1.000000	-1.000000	146.827586	0.000000	-1.000000	-1.000000	271202.000000	1772311200.608606
-16309.305000	-13730.355000	-17709.795000	-12678.120000	0.000000	0.000000	0.000000	0.000000	1.273848	-24.102612	2.378257	1.744273	0.000000	0.000000	-0.000000	-0.000000	3.845520	-0.289940	-0.518840	0.015930	0.983701	-0.003662	-1.000000	-1.000000	-1.000000	-1.000000	-1.000000	-1.000000	-1.000000	146.827586	0.000000	-1.000000	-1.000000	271203.000000	1772311200.608608
-16301.655000	-13782.330000	-17703.270000	-12670.020000	0.000000	0.000000	0.000000	0.000000	1.781865	-22.967682	1.779277	1.252225	0.000000	0.000000	-0.000000	-0.000000	3.845520	-0.289940	-0.518840	0.015930	0.983701	-0.003662	-1.000000	-1.000000	-1.000000	-1.000000	-1.000000	-1.000000	-1.000000	146.827586	0.000000	-1.000000	-1.000000	271204.000000	1772311200.612599
-16294.005000	-13869.405000	-17693.820000	-12660.480000	0.000000	0.000000	0.000000	0.000000	2.457052	-16.551813	1.415277	1.207421	0.000000	0.000000	-0.000000	-0.000000	3.845520	-0.289940	-0.518840	0.015930	0.983701	-0.003662	-1.000000	-1.000000	-1.000000	-1.000000	-1.000000	-1.000000	-1.000000	146.827586	0.000000	-1.000000	-1.000000	271205.000000	1772311200.612602
-16300.260000	-13900.005000	-17699.400000	-12667.185000	0.000000	0.000000	0.000000	0.000000	2.774230	-12.287552	1.464626	1.684019	0.000000	0.000000	-0.000000	-0.000000	3.845520	-0.289940	-0.518840	0.015930	0.983701	-0.003662	-1.000000	-1.000000	-1.000000	-1.000000	-1.000000	-1.000000	-1.000000	146.827586	0.000000	-1.000000	-1.000000	271206.000000	1772311200.616626
-16305.345000	-13910.805000	-17703.225000	-12671.550000	0.000000	0.000000	0.000000	0.000000	1.547965	-9.690194	0.861180	1.323790	0.000000	0.000000	-0.000000	-0.000000	3.845520	-0.289940	-0.518840	0.015930	0.983701	-0.003662	-1.000000	-1.000000	-1.000000	-1.000000	-1.000000	-1.000000	-1.000000	146.827586	0.000000	-1.000000	-1.000000	271207.000000	1772311200.616629
-16297.020000	-13922.100000	-17693.145000	-12661.245000	0.000000	0.000000	0.000000	0.000000	-1.373063	-1.964751	-1.013252	-0.640509	0.000000	0.000000	-0.000000	-0.000000	3.845520	-0.289940	-0.518840	0.015930	0.983701	-0.003662	-1.000000	-1.000000	-1.000000	-1.000000	-1.000000	-1.000000	-1.000000	146.827586	0.000000	-1.000000	-1.000000	271208.000000	1772311200.620640
-16290.000000	-13907.970000	-17686.035000	-12655.530000	0.000000	0.000000	0.000000	0.000000	-3.983663	13.377508	-2.789422	-2.698647	0.000000	0.000000	-0.000000	-0.000000	3.845520	-0.289940	-0.518840	0.015930	0.983701	-0.003662	-1.000000	-1.000000	-1.000000	-1.000000	-1.000000	-1.000000	-1.000000	146.827586	0.000000	-1.000000	-1.000000	271209.000000	1772311200.620642
-16293.690000	-13915.440000	-17690.130000	-12659.040000	0.000000	0.000000	0.000000	0.000000	-4.282388	30.782283	-2.926342	-3.091215	0.000000	0.000000	-0.000000	-0.000000	2.304260	0.045780	-0.686700	0.015930	0.984006	-0.005493	-1.000000	-1.000000	-1.000000	-1.000000	-1.000000	-1.000000	-1.000000	146.827586	0.000000	-1.000000	-1.000000	271210.000000	1772311200.624659
-16291.440000	-13930.650000	-17690.940000	-12658.185000	0.000000	0.000000	0.000000	0.000000	-2.618516	40.757765	-1.912095	-2.119071	0.000000	0.000000	-0.000000	-0.000000	2.304260	0.045780	-0.686700	0.015930	0.984006	-0.005493	-1.000000	-1.000000	-1.000000	-1.000000	-1.000000	-1.000000	-1.000000	146.827586	0.000000	-1.000000	-1.000000	271211.000000	1772311200.624662
-16293.960000	-13923.540000	-17694.270000	-12661.290000	0.000000	0.000000	0.000000	0.000000	-0.696086	36.778466	-1.192263	-1.133461	0.000000	0.000000	-0.000000	-0.000000	2.304260	0.045780	-0.686700	0.015930	0.984006	-0.005493	-1.000000	-1.000000	-1.000000	-1.000000	-1.000000	-1.000000	-1.000000	146.827586	0.000000	-1.000000	-1.000000	271212.000000	1772311200.632436
-16295.715000	-13932.270000	-17697.465000	-12665.430000	0.000000	0.000000	0.000000	0.000000	0.335951	20.528554	-1.298558	-0.857508	0.000000	0.000000	-0.000000	-0.000000	2.304260	0.045780	-0.686700	0.015930	0.984006	-0.005493	-1.000000	-1.000000	-1.000000	-1.000000	-1.000000	-1.000000	-1.000000	146.827586	0.000000	-1.000000	-1.000000	271213.000000	1772311200.632438
-16290.360000	-13930.695000	-17690.670000	-12660.345000	0.000000	0.000000	0.000000	0.000000	0.466261	-0.158107	-1.565645	-1.026708	0.000000	0.000000	-0.000000	-0.000000	2.304260	0.045780	-0.686700	0.015930	0.984006	-0.005493	-1.000000	-1.000000	-1.000000	-1.000000	-1.000000	-1.000000	-1.000000	146.827586	0.000000	-1.000000	-1.000000	271214.000000	1772311200.632442
-16278.885000	-13928.895000	-17677.080000	-12646.215000	0.000000	0.000000	0.000000	0.000000	0.683247	-17.074473	-0.672190	-0.494026	0.000000	0.000000	-0.000000	-0.000000	2.304260	0.045780	-0.686700	0.015930	0.984006	-0.005493	-1.000000	-1.000000	-1.000000	-1.000000	-1.000000	-1.000000	-1.000000	146.827586	0.000000	-1.000000	-1.000000	271215.000000	1772311200.632444
-16278.975000	-13939.290000	-17675.505000	-12642.165000	0.000000	0.000000	0.000000	0.000000	1.798817	-25.463574	1.950831	1.640541	0.000000	0.000000	-0.000000	-0.000000	2.304260	0.045780	-0.686700	0.015930	0.984006	-0.005493	-1.000000	-1.000000	-1.000000	-1.000000	-1.000000	-1.000000	-1.000000	146.827586	0.000000	-1.000000	-1.000000	271216.000000	1772311200.637745
-16297.785000	-13958.100000	-17693.550000	-12660.120000	0.000000	0.000000	0.000000	0.000000	2.727473	-25.562589	4.451910	4.025844	0.000000	0.000000	-0.000000	-0.000000	2.304260	0.045780	-0.686700	0.015930	0.984006	-0.005493	-1.000000	-1.000000	-1.000000	-1.000000	-1.000000	-1.000000	-1.000000	146.827586	0.000000	-1.000000	-1.000000	271217.000000	1772311200.637747
-16314.165000	-13971.420000	-17711.820000	-12678.255000	0.000000	0.000000	0.000000	0.000000	1.122881	-20.848099	3.592554	3.485445	0.000000	0.000000	-0.000000	-0.000000	2.304260	0.045780	-0.686700	0.015930	0.984006	-0.005493	-1.000000	-1.000000	-1.000000	-1.000000	-1.000000	-1.000000	-1.000000	146.827586	0.000000	-1.000000	-1.000000	271218.000000	1772311200.641980
-16302.555000	-14005.755000	-17700.840000	-12668.805000	0.000000	0.000000	0.000000	0.000000	-2.967233	-14.739584	-1.041486	-0.811605	0.000000	0.000000	-0.000000	-0.000000	2.304260	0.045780	-0.686700	0.015930	0.984006	-0.005493	-1.000000	-1.000000	-1.000000	-1.000000	-1.000000	-1.000000	-1.000000	146.827586	0.000000	-1.000000	-1.000000	271219.000000	1772311200.641983
-16286.220000	-14060.250000	-17683.605000	-12651.165000	0.000000	0.000000	0.000000	0.000000	-5.525429	-9.808707	-5.082154	-4.871472	0.000000	0.000000	-0.000000	-0.000000	1.648080	0.000000	-0.549360	0.015930	0.985105	-0.005798	-1.000000	-1.000000	-1.000000	-1.000000	-1.000000	-1.000000	-1.000000	146.827586	0.000000	-1.000000	-1.000000	271220.000000	1772311200.644825
-16281.090000	-14096.745000	-17678.115000	-12646.440000	0.000000	0.000000	0.000000	0.000000	-2.930098	-7.459226	-3.960201	-4.089597	0.000000	0.000000	-0.000000	-0.000000	1.648080	0.000000	-0.549360	0.015930	0.985105	-0.005798	-1.000000	-1.000000	-1.000000	-1.000000	-1.000000	-1.000000	-1.000000	146.827586	0.000000	-1.000000	-1.000000	271221.000000	1772311200.644827
-16280.640000	-14133.330000	-17680.185000	-12648.735000	0.000000	0.000000	0.000000	0.000000	3.306758	-6.203602	1.543253	1.058775	0.000000	0.000000	-0.000000	-0.000000	1.648080	0.000000	-0.549360	0.015930	0.985105	-0.005798	-1.000000	-1.000000	-1.000000	-1.000000	-1.000000	-1.000000	-1.000000	146.827586	0.000000	-1.000000	-1.000000	271222.000000	1772311200.651358
-16283.655000	-14139.495000	-17681.355000	-12650.445000	0.000000	0.000000	0.000000	0.000000	8.087667	-2.319924	6.401802	5.791523	0.000000	0.000000	-0.000000	-0.000000	1.648080	0.000000	-0.549360	0.015930	0.985105	-0.005798	-1.000000	-1.000000	-1.000000	-1.000000	-1.000000	-1.000000	-1.000000	146.827586	0.000000	-1.000000	-1.000000	271223.000000	1772311200.651361
-16288.830000	-14141.295000	-17686.080000	-12654.585000	0.000000	0.000000	0.000000	0.000000	7.749119	6.738138	6.719008	6.277323	0.000000	0.000000	-0.000000	-0.000000	1.648080	0.000000	-0.549360	0.015930	0.985105	-0.005798	-1.000000	-1.000000	-1.000000	-1.000000	-1.000000	-1.000000	-1.000000	146.827586	0.000000	-1.000000	-1.000000	271224.000000	1772311200.652673
-16297.155000	-14132.115000	-17694.945000	-12664.305000	0.000000	0.000000	0.000000	0.000000	2.552822	19.553947	2.458739	2.394691	0.000000	0.000000	-0.000000	-0.000000	1.648080	0.000000	-0.549360	0.015930	0.985105	-0.005798	-1.000000	-1.000000	-1.000000	-1.000000	-1.000000	-1.000000	-1.000000	146.827586	0.000000	-1.000000	-1.000000	271225.000000	1772311200.652675
-16296.570000	-14118.705000	-17694.270000	-12665.430000	0.000000	0.000000	0.000000	0.000000	-4.218338	30.949993	-3.519877	-3.227733	0.000000	0.000000	-0.000000	-0.000000	1.648080	0.000000	-0.549360	0.015930	0.985105	-0.005798	-1.000000	-1.000000	-1.000000	-1.000000	-1.000000	-1.000000	-1.000000	146.827586	0.000000	-1.000000	-1.000000	271226.000000	1772311200.656780
-16295.310000	-14109.975000	-17693.865000	-12664.980000	0.000000	0.000000	0.000000	0.000000	-8.549019	35.169833	-7.541485	-7.144654	0.000000	0.000000	-0.000000	-0.000000	1.648080	0.000000	-0.549360	0.015930	0.985105	-0.005798	-1.000000	-1.000000	-1.000000	-1.000000	-1.000000	-1.000000	-1.000000	146.827586	0.000000	-1.000000	-1.000000	271227.000000	1772311200.656783
-16291.125000	-14121.945000	-17692.020000	-12660.570000	0.000000	0.000000	0.000000	0.000000	-8.115097	28.847916	-7.352273	-7.027772	0.000000	0.000000	-0.000000	-0.000000	1.648080	0.000000	-0.549360	0.015930	0.985105	-0.005798	-1.000000	-1.000000	-1.000000	-1.000000	-1.000000	-1.000000	-1.000000	146.827586	0.000000	-1.000000	-1.000000	271228.000000	1772311200.660783
-16293.015000	-14118.480000	-17693.865000	-12660.570000	0.000000	0.000000	0.000000	0.000000	-3.643712	12.728433	-3.501454	-3.093320	0.000000	0.000000	-0.000000	-0.000000	1.648080	0.000000	-0.549360	0.015930	0.985105	-0.005798	-1.000000	-1.000000	-1.000000	-1.000000	-1.000000	-1.000000	-1.000000	146.827586	0.000000	-1.000000	-1.000000	271229.000000	1772311200.660787
-16289.865000	-14123.115000	-17688.690000	-12655.080000	0.000000	0.000000	0.000000	0.000000	1.917898	-7.586502	1.506650	2.246350	0.000000	0.000000	-0.000000	-0.000000	1.266580	0.045780	-0.732480	0.015686	0.984556	-0.004333	-1.000000	-1.000000	-1.000000	-1.000000	-1.000000	-1.000000	-1.000000	146.827586	0.000000	-1.000000	-1.000000	271230.000000	1772311200.666114
-16283.880000	-14141.385000	-17682.840000	-12652.020000	0.000000	0.000000	0.000000	0.000000	5.794601	-24.503660	5.351791	6.266511	0.000000	0.000000	-0.000000	-0.000000	1.266580	0.045780	-0.732480	0.015686	0.984556	-0.004333	-1.000000	-1.000000	-1.000000	-1.000000	-1.000000	-1.000000	-1.000000	146.827586	0.000000	-1.000000	-1.000000	271231.000000	1772311200.666117
-16291.080000	-14135.670000	-17691.840000	-12661.830000	0.000000	0.000000	0.000000	0.000000	6.768489	-32.774860	6.762253	7.220634	0.000000	0.000000	-0.000000	-0.000000	1.266580	0.045780	-0.732480	0.015686	0.984556	-0.004333	-1.000000	-1.000000	-1.000000	-1.000000	-1.000000	-1.000000	-1.000000	146.827586	0.000000	-1.000000	-1.000000	271232.000000	1772311200.668701
-16299.045000	-14104.980000	-17697.915000	-12668.130000	0.000000	0.000000	0.000000	0.000000	4.672884	-30.027930	5.091744	4.557403	0.000000	0.000000	-0.000000	-0.000000	1.266580	0.045780	-0.732480	0.015686	0.984556	-0.004333	-1.000000	-1.000000	-1.000000	-1.000000	-1.000000	-1.000000	-1.000000	146.827586	0.000000	-1.000000	-1.000000	271233.000000	1772311200.668704
-16306.425000	-14075.775000	-17704.575000	-12674.205000	0.000000	0.000000	0.000000	0.000000	0.255686	-16.554110	0.828239	-0.563378	0.000000	0.000000	-0.000000	-0.000000	1.266580	0.045780	-0.732480	0.015686	0.984556	-0.004333	-1.000000	-1.000000	-1.000000	-1.000000	-1.000000	-1.000000	-1.000000	146.827586	0.000000	-1.000000	-1.000000	271234.000000	1772311200.673931
-16318.350000	-14041.395000	-17717.940000	-12685.095000	0.000000	0.000000	0.000000	0.000000	-4.563319	2.881977	-4.062974	-5.535891	0.000000	0.000000	-0.000000	-0.000000	1.266580	0.045780	-0.732480	0.015686	0.984556	-0.004333	-1.000000	-1.000000	-1.000000	-1.000000	-1.000000	-1.000000	-1.000000	146.827586	0.000000	-1.000000	-1.000000	271235.000000	1772311200.673934
-16303.815000	-14031.990000	-17705.115000	-12670.740000	0.000000	0.000000	0.000000	0.000000	-7.225984	19.594997	-7.038712	-7.695882	0.000000	0.000000	-0.000000	-0.000000	1.266580	0.045780	-0.732480	0.015686	0.984556	-0.004333	-1.000000	-1.000000	-1.000000	-1.000000	-1.000000	-1.000000	-1.000000	146.827586	0.000000	-1.000000	-1.000000	271236.000000	1772311200.677004
-16289.550000	-14015.925000	-17693.640000	-12660.120000	0.000000	0.000000	0.000000	0.000000	-5.440472	25.531136	-5.843703	-5.300927	0.000000	0.000000	-0.000000	-0.000000	1.266580	0.045780	-0.732480	0.015686	0.984556	-0.004333	-1.000000	-1.000000	-1.000000	-1.000000	-1.000000	-1.000000	-1.000000	146.827586	0.000000	-1.000000	-1.000000	271237.000000	1772311200.677007
-16294.995000	-13973.490000	-17697.780000	-12665.205000	0.000000	0.000000	0.000000	0.000000	0.560970	19.055216	-0.475640	0.815369	0.000000	0.000000	-0.000000	-0.000000	1.266580	0.045780	-0.732480	0.015686	0.984556	-0.004333	-1.000000	-1.000000	-1.000000	-1.000000	-1.000000	-1.000000	-1.000000	146.827586	0.000000	-1.000000	-1.000000	271238.000000	1772311200.682612
-16303.005000	-13971.555000	-17705.385000	-12672.090000	0.000000	0.000000	0.000000	0.000000	6.594860	5.767955	5.377917	6.500233	0.000000	0.000000	-0.000000	-0.000000	1.266580	0.045780	-0.732480	0.015686	0.984556	-0.004333	-1.000000	-1.000000	-1.000000	-1.000000	-1.000000	-1.000000	-1.000000	146.827586	0.000000	-1.000000	-1.000000	271239.000000	1772311200.682614
-16308.180000	-13981.950000	-17711.685000	-12678.840000	0.000000	0.000000	0.000000	0.000000	7.996119	-8.043634	7.309357	7.618579	0.000000	0.000000	-0.000000	-0.000000	1.632820	0.030520	-0.488320	0.015320	0.984128	-0.003845	-1.000000	-1.000000	-1.000000	-1.000000	-1.000000	-1.000000	-1.000000	146.827586	0.000000	-1.000000	-1.000000	271240.000000	1772311200.685009
-16309.935000	-13951.395000	-17712.630000	-12681.045000	0.000000	0.000000	0.000000	0.000000	4.153267	-18.791252	4.382955	3.830406	0.000000	0.000000	-0.000000	-0.000000	1.632820	0.030520	-0.488320	0.015320	0.984128	-0.003845	-1.000000	-1.000000	-1.000000	-1.000000	-1.000000	-1.000000	-1.000000	146.827586	0.000000	-1.000000	-1.000000	271241.000000	1772311200.685012
-16311.690000	-13922.640000	-17713.620000	-12681.180000	0.000000	0.000000	0.000000	0.000000	-1.616575	-22.681967	-0.604084	-1.651962	0.000000	0.000000	-0.000000	-0.000000	1.632820	0.030520	-0.488320	0.015320	0.984128	-0.003845	-1.000000	-1.000000	-1.000000	-1.000000	-1.000000	-1.000000	-1.000000	146.827586	0.000000	-1.000000	-1.000000	271242.000000	1772311200.688724
-16302.915000	-13928.085000	-17705.115000	-12672.405000	0.000000	0.000000	0.000000	0.000000	-5.336317	-17.626059	-3.974751	-4.977174	0.000000	0.000000	-0.000000	-0.000000	1.632820	0.030520	-0.488320	0.015320	0.984128	-0.003845	-1.000000	-1.000000	-1.000000	-1.000000	-1.000000	-1.000000	-1.000000	146.827586	0.000000	-1.000000	-1.000000	271243.000000	1772311200.688726
-16291.215000	-13909.320000	-17693.730000	-12665.745000	0.000000	0.000000	0.000000	0.000000	-4.830406	-7.345389	-3.645165	-4.210182	0.000000	0.000000	-0.000000	-0.000000	1.632820	0.030520	-0.488320	0.015320	0.984128	-0.003845	-1.000000	-1.000000	-1.000000	-1.000000	-1.000000	-1.000000	-1.000000	146.827586	0.000000	-1.000000	-1.000000	271244.000000	1772311200.693137
-16302.780000	-13888.935000	-17707.815000	-12677.490000	0.000000	0.000000	0.000000	0.000000	-0.997629	2.383405	-0.466496	-0.610238	0.000000	0.000000	-0.000000	-0.000000	1.632820	0.030520	-0.488320	0.015320	0.984128	-0.003845	-1.000000	-1.000000	-1.000000	-1.000000	-1.000000	-1.000000	-1.000000	146.827586	0.000000	-1.000000	-1.000000	271245.000000	1772311200.693141
-16306.920000	-13901.715000	-17714.070000	-12683.835000	0.000000	0.000000	0.000000	0.000000	2.532925	8.253800	2.112945	2.250602	0.000000	0.000000	-0.000000	-0.000000	1.632820	0.030520	-0.488320	0.015320	0.984128	-0.003845	-1.000000	-1.000000	-1.000000	-1.000000	-1.000000	-1.000000	-1.000000	146.827586	0.000000	-1.000000	-1.000000	271246.000000	1772311200.696856
-16310.700000	-13895.460000	-17713.530000	-12678.435000	0.000000	0.000000	0.000000	0.000000	2.779510	8.816729	1.552960	2.097044	0.000000	0.000000	-0.000000	-0.000000	1.632820	0.030520	-0.488320	0.015320	0.984128	-0.003845	-1.000000	-1.000000	-1.000000	-1.000000	-1.000000	-1.000000	-1.000000	146.827586	0.000000	-1.000000	-1.000000	271247.000000	1772311200.696858
-16307.910000	-13923.045000	-17709.165000	-12673.530000	0.000000	0.000000	0.000000	0.000000	0.270468	4.363646	-0.976517	0.221897	0.000000	0.000000	-0.000000	-0.000000	1.632820	0.030520	-0.488320	0.015320	0.984128	-0.003845	-1.000000	-1.000000	-1.000000	-1.000000	-1.000000	-1.000000	-1.000000	146.827586	0.000000	-1.000000	-1.000000	271248.000000	1772311200.701206
-16305.975000	-13905.450000	-17707.815000	-12681.450000	0.000000	0.000000	0.000000	0.000000	-2.203276	-2.247837	-2.558248	-0.992399	0.000000	0.000000	-0.000000	-0.000000	1.632820	0.030520	-0.488320	0.015320	0.984128	-0.003845	-1.000000	-1.000000	-1.000000	-1.000000	-1.000000	-1.000000	-1.000000	146.827586	0.000000	-1.000000	-1.000000	271249.000000	1772311200.701209
-16303.815000	-13926.735000	-17705.385000	-12680.955000	0.000000	0.000000	0.000000	0.000000	-2.561599	-6.724506	-1.843480	-1.068342	0.000000	0.000000	-0.000000	-0.000000	2.990960	-0.228900	-0.457800	0.014648	0.983213	-0.002502	-1.000000	-1.000000	-1.000000	-1.000000	-1.000000	-1.000000	-1.000000	146.827586	0.000000	-1.000000	-1.000000	271250.000000	1772311200.704923
-16302.330000	-13948.740000	-17704.395000	-12676.590000	0.000000	0.000000	0.000000	0.000000	-0.853760	-6.974646	0.299985	-0.659707	0.000000	0.000000	-0.000000	-0.000000	2.990960	-0.228900	-0.457800	0.014648	0.983213	-0.002502	-1.000000	-1.000000	-1.000000	-1.000000	-1.000000	-1.000000	-1.000000	146.827586	0.000000	-1.000000	-1.000000	271251.000000	1772311200.704925
-16299.540000	-13946.895000	-17701.425000	-12672.945000	0.000000	0.000000	0.000000	0.000000	1.449172	-4.295228	2.216506	0.099985	0.000000	0.000000	-0.000000	-0.000000	2.990960	-0.228900	-0.457800	0.014648	0.983213	-0.002502	-1.000000	-1.000000	-1.000000	-1.000000	-1.000000	-1.000000	-1.000000	146.827586	0.000000	-1.000000	-1.000000	271252.000000	1772311200.708900
-16303.005000	-13932.855000	-17706.420000	-12676.725000	0.000000	0.000000	0.000000	0.000000	2.809056	0.354435	2.733889	1.080979	0.000000	0.000000	-0.000000	-0.000000	2.990960	-0.228900	-0.457800	0.014648	0.983213	-0.002502	-1.000000	-1.000000	-1.000000	-1.000000	-1.000000	-1.000000	-1.000000	146.827586	0.000000	-1.000000	-1.000000	271253.000000	1772311200.708902
-16297.920000	-13914.540000	-17701.920000	-12671.865000	0.000000	0.000000	0.000000	0.000000	2.518328	7.296452	1.635450	1.603956	0.000000	0.000000	-0.000000	-0.000000	2.990960	-0.228900	-0.457800	0.014648	0.983213	-0.002502	-1.000000	-1.000000	-1.000000	-1.000000	-1.000000	-1.000000	-1.000000	146.827586	0.000000	-1.000000	-1.000000	271254.000000	1772311200.712928
-16291.530000	-13942.755000	-17695.305000	-12665.430000	0.000000	0.000000	0.000000	0.000000	1.172254	14.367502	-0.112328	1.409482	0.000000	0.000000	-0.000000	-0.000000	2.990960	-0.228900	-0.457800	0.014648	0.983213	-0.002502	-1.000000	-1.000000	-1.000000	-1.000000	-1.000000	-1.000000	-1.000000	146.827586	0.000000	-1.000000	-1.000000	271255.000000	1772311200.712931
-16304.535000	-13941.900000	-17710.470000	-12678.480000	0.000000	0.000000	0.000000	0.000000	-0.256738	16.383726	-1.394973	0.719493	0.000000	0.000000	-0.000000	-0.000000	2.990960	-0.228900	-0.457800	0.014648	0.983213	-0.002502	-1.000000	-1.000000	-1.000000	-1.000000	-1.000000	-1.000000	-1.000000	146.827586	0.000000	-1.000000	-1.000000	271256.000000	1772311200.716933
-16307.910000	-13958.415000	-17710.965000	-12678.345000	0.000000	0.000000	0.000000	0.000000	-1.797685	10.677074	-2.355848	-0.674893	0.000000	0.000000	-0.000000	-0.000000	2.990960	-0.228900	-0.457800	0.014648	0.983213	-0.002502	-1.000000	-1.000000	-1.000000	-1.000000	-1.000000	-1.000000	-1.000000	146.827586	0.000000	-1.000000	-1.000000	271257.000000	1772311200.716936
-16303.185000	-13972.230000	-17702.325000	-12675.195000	0.000000	0.000000	0.000000	0.000000	-3.408125	0.177886	-3.077134	-2.492316	0.000000	0.000000	-0.000000	-0.000000	2.990960	-0.228900	-0.457800	0.014648	0.983213	-0.002502	-1.000000	-1.000000	-1.000000	-1.000000	-1.000000	-1.000000	-1.000000	146.827586	0.000000	-1.000000	-1.000000	271258.000000	1772311200.720909
-16304.175000	-13948.155000	-17703.585000	-12678.570000	0.000000	0.000000	0.000000	0.000000	-3.856383	-9.076294	-2.494540	-3.386251	0.000000	0.000000	-0.000000	-0.000000	2.990960	-0.228900	-0.457800	0.014648	0.983213	-0.002502	-1.000000	-1.000000	-1.000000	-1.000000	-1.000000	-1.000000	-1.000000	146.827586	0.000000	-1.000000	-1.000000	271259.000000	1772311200.720912
-16302.330000	-13939.290000	-17701.155000	-12670.245000	0.000000	0.000000	0.000000	0.000000	-2.331654	-11.386208	-0.322199	-2.488153	0.000000	0.000000	-0.000000	-0.000000	4.303320	-0.534100	-0.579880	0.015503	0.982358	-0.002258	-1.000000	-1.000000	-1.000000	-1.000000	-1.000000	-1.000000	-1.000000	146.827586	0.000000	-1.000000	-1.000000	271260.000000	1772311200.725884
-16301.745000	-13917.690000	-17701.560000	-12665.655000	0.000000	0.000000	0.000000	0.000000	0.390950	-5.452678	2.117781	-0.065982	0.000000	0.000000	-0.000000	-0.000000	4.303320	-0.534100	-0.579880	0.015503	0.982358	-0.002258	-1.000000	-1.000000	-1.000000	-1.000000	-1.000000	-1.000000	-1.000000	146.827586	0.000000	-1.000000	-1.000000	271261.000000	1772311200.725889
-16297.245000	-13929.390000	-17698.455000	-12661.605000	0.000000	0.000000	0.000000	0.000000	2.890435	3.900188	3.412583	2.820624	0.000000	0.000000	-0.000000	-0.000000	4.303320	-0.534100	-0.579880	0.015503	0.982358	-0.002258	-1.000000	-1.000000	-1.000000	-1.000000	-1.000000	-1.000000	-1.000000	146.827586	0.000000	-1.000000	-1.000000	271262.000000	1772311200.728948
-16293.690000	-13969.260000	-17693.595000	-12656.790000	0.000000	0.000000	0.000000	0.000000	4.222787	8.691316	3.224310	4.697281	0.000000	0.000000	-0.000000	-0.000000	4.303320	-0.534100	-0.579880	0.015503	0.982358	-0.002258	-1.000000	-1.000000	-1.000000	-1.000000	-1.000000	-1.000000	-1.000000	146.827586	0.000000	-1.000000	-1.000000	271263.000000	1772311200.728953
-16293.645000	-13986.855000	-17696.340000	-12669.075000	0.000000	0.000000	0.000000	0.000000	4.101635	3.764301	2.052577	4.322066	0.000000	0.000000	-0.000000	-0.000000	4.303320	-0.534100	-0.579880	0.015503	0.982358	-0.002258	-1.000000	-1.000000	-1.000000	-1.000000	-1.000000	-1.000000	-1.000000	146.827586	0.000000	-1.000000	-1.000000	271264.000000	1772311200.733003
-16297.605000	-13981.545000	-17699.490000	-12674.385000	0.000000	0.000000	0.000000	0.000000	2.528553	-7.452095	0.311346	1.235357	0.000000	0.000000	-0.000000	-0.000000	4.303320	-0.534100	-0.579880	0.015503	0.982358	-0.002258	-1.000000	-1.000000	-1.000000	-1.000000	-1.000000	-1.000000	-1.000000	146.827586	0.000000	-1.000000	-1.000000	271265.000000	1772311200.733006
-16300.530000	-13967.820000	-17700.615000	-12672.945000	0.000000	0.000000	0.000000	0.000000	-0.192066	-14.962821	-1.725454	-3.308536	0.000000	0.000000	-0.000000	-0.000000	4.303320	-0.534100	-0.579880	0.015503	0.982358	-0.002258	-1.000000	-1.000000	-1.000000	-1.000000	-1.000000	-1.000000	-1.000000	146.827586	0.000000	-1.000000	-1.000000	271266.000000	1772311200.736919
-16305.975000	-13936.140000	-17705.430000	-12677.670000	0.000000	0.000000	0.000000	0.000000	-3.171391	-11.359849	-3.430810	-6.535201	0.000000	0.000000	-0.000000	-0.000000	4.303320	-0.534100	-0.579880	0.015503	0.982358	-0.002258	-1.000000	-1.000000	-1.000000	-1.000000	-1.000000	-1.000000	-1.000000	146.827586	0.000000	-1.000000	-1.000000	271267.000000	1772311200.736924
-16305.615000	-13920.615000	-17706.510000	-12677.895000	0.000000	0.000000	0.000000	0.000000	-5.138475	2.110473	-4.091026	-6.525646	0.000000	0.000000	-0.000000	-0.000000	4.303320	-0.534100	-0.579880	0.015503	0.982358	-0.002258	-1.000000	-1.000000	-1.000000	-1.000000	-1.000000	-1.000000	-1.000000	146.827586	0.000000	-1.000000	-1.000000	271268.000000	1772311200.740960
-16300.530000	-13945.365000	-17701.470000	-12672.675000	0.000000	0.000000	0.000000	0.000000	-4.962730	16.215943	-3.252432	-3.467318	0.000000	0.000000	-0.000000	-0.000000	4.303320	-0.534100	-0.579880	0.015503	0.982358	-0.002258	-1.000000	-1.000000	-1.000000	-1.000000	-1.000000	-1.000000	-1.000000	146.827586	0.000000	-1.000000	-1.000000	271269.000000	1772311200.740964
-16297.605000	-13958.595000	-17698.410000	-12669.030000	0.000000	0.000000	0.000000	0.000000	-2.344827	20.132408	-0.858834	1.178159	0.000000	0.000000	-0.000000	-0.000000	4.547480	-0.335720	-0.640920	0.015930	0.983091	-0.003357	-1.000000	-1.000000	-1.000000	-1.000000	-1.000000	-1.000000	-1.000000	146.827586	0.000000	-1.000000	-1.000000	271270.000000	1772311200.745061
-16293.330000	-13962.690000	-17694.585000	-12665.205000	0.000000	0.000000	0.000000	0.000000	1.609792	10.729388	2.319934	5.460352	0.000000	0.000000	-0.000000	-0.000000	4.547480	-0.335720	-0.640920	0.015930	0.983091	-0.003357	-1.000000	-1.000000	-1.000000	-1.000000	-1.000000	-1.000000	-1.000000	146.827586	0.000000	-1.000000	-1.000000	271271.000000	1772311200.745065
-16300.710000	-13944.015000	-17702.280000	-12672.765000	0.000000	0.000000	0.000000	0.000000	4.740330	-4.404348	4.630278	7.414020	0.000000	0.000000	-0.000000	-0.000000	4.547480	-0.335720	-0.640920	0.015930	0.983091	-0.003357	-1.000000	-1.000000	-1.000000	-1.000000	-1.000000	-1.000000	-1.000000	146.827586	0.000000	-1.000000	-1.000000	271272.000000	1772311200.749025
-16302.060000	-13896.495000	-17704.125000	-12676.140000	0.000000	0.000000	0.000000	0.000000	5.142167	-13.529439	4.498072	5.883155	0.000000	0.000000	-0.000000	-0.000000	4.547480	-0.335720	-0.640920	0.015930	0.983091	-0.003357	-1.000000	-1.000000	-1.000000	-1.000000	-1.000000	-1.000000	-1.000000	146.827586	0.000000	-1.000000	-1.000000	271273.000000	1772311200.749030
-16289.640000	-13875.615000	-17688.510000	-12662.235000	0.000000	0.000000	0.000000	0.000000	2.947411	-10.207305	2.214632	1.858893	0.000000	0.000000	-0.000000	-0.000000	4.547480	-0.335720	-0.640920	0.015930	0.983091	-0.003357	-1.000000	-1.000000	-1.000000	-1.000000	-1.000000	-1.000000	-1.000000	146.827586	0.000000	-1.000000	-1.000000	271274.000000	1772311200.753067
-16294.545000	-13879.170000	-17697.420000	-12668.670000	0.000000	0.000000	0.000000	0.000000	0.287127	1.198836	-0.124161	-1.846145	0.000000	0.000000	-0.000000	-0.000000	4.547480	-0.335720	-0.640920	0.015930	0.983091	-0.003357	-1.000000	-1.000000	-1.000000	-1.000000	-1.000000	-1.000000	-1.000000	146.827586	0.000000	-1.000000	-1.000000	271275.000000	1772311200.753070
-16301.565000	-13925.790000	-17708.445000	-12675.060000	0.000000	0.000000	0.000000	0.000000	-1.466400	8.794592	-1.587416	-3.632543	0.000000	0.000000	-0.000000	-0.000000	4.547480	-0.335720	-0.640920	0.015930	0.983091	-0.003357	-1.000000	-1.000000	-1.000000	-1.000000	-1.000000	-1.000000	-1.000000	146.827586	0.000000	-1.000000	-1.000000	271276.000000	1772311200.756985
-16298.145000	-13961.520000	-17706.420000	-12671.370000	0.000000	0.000000	0.000000	0.000000	-2.596101	3.598836	-2.926548	-4.029014	0.000000	0.000000	-0.000000	-0.000000	4.547480	-0.335720	-0.640920	0.015930	0.983091	-0.003357	-1.000000	-1.000000	-1.000000	-1.000000	-1.000000	-1.000000	-1.000000	146.827586	0.000000	-1.000000	-1.000000	271277.000000	1772311200.756987
-16292.025000	-13983.390000	-17700.120000	-12664.665000	0.000000	0.000000	0.000000	0.000000	-3.021342	-11.942625	-3.827394	-3.396526	0.000000	0.000000	-0.000000	-0.000000	4.547480	-0.335720	-0.640920	0.015930	0.983091	-0.003357	-1.000000	-1.000000	-1.000000	-1.000000	-1.000000	-1.000000	-1.000000	146.827586	0.000000	-1.000000	-1.000000	271278.000000	1772311200.763117
-16286.490000	-13944.195000	-17696.565000	-12672.765000	0.000000	0.000000	0.000000	0.000000	-1.983845	-24.870839	-2.866765	-1.660402	0.000000	0.000000	-0.000000	-0.000000	4.547480	-0.335720	-0.640920	0.015930	0.983091	-0.003357	-1.000000	-1.000000	-1.000000	-1.000000	-1.000000	-1.000000	-1.000000	146.827586	0.000000	-1.000000	-1.000000	271279.000000	1772311200.763121
-16311.330000	-13889.970000	-17709.165000	-12682.305000	0.000000	0.000000	0.000000	0.000000	-0.133699	-21.554688	-0.231277	0.092224	0.000000	0.000000	-0.000000	-0.000000	4.410140	-0.717220	-0.244160	0.014893	0.982541	-0.003967	-1.000000	-1.000000	-1.000000	-1.000000	-1.000000	-1.000000	-1.000000	146.827586	0.000000	-1.000000	-1.000000	271280.000000	1772311200.765147
-16325.415000	-13888.080000	-17703.090000	-12671.415000	0.000000	0.000000	0.000000	0.000000	0.059280	-0.240610	2.005620	0.655818	0.000000	0.000000	-0.000000	-0.000000	4.410140	-0.717220	-0.244160	0.014893	0.982541	-0.003967	-1.000000	-1.000000	-1.000000	-1.000000	-1.000000	-1.000000	-1.000000	146.827586	0.000000	-1.000000	-1.000000	271281.000000	1772311200.765150
-16328.790000	-13894.245000	-17699.490000	-12666.375000	0.000000	0.000000	0.000000	0.000000	-2.363112	24.925940	2.673009	0.768697	0.000000	0.000000	-0.000000	-0.000000	4.410140	-0.717220	-0.244160	0.014893	0.982541	-0.003967	-1.000000	-1.000000	-1.000000	-1.000000	-1.000000	-1.000000	-1.000000	146.827586	0.000000	-1.000000	-1.000000	271282.000000	1772311200.769111
-16316.820000	-13854.870000	-17711.280000	-12678.930000	0.000000	0.000000	0.000000	0.000000	-4.529632	36.796952	2.205851	1.465669	0.000000	0.000000	-0.000000	-0.000000	4.410140	-0.717220	-0.244160	0.014893	0.982541	-0.003967	-1.000000	-1.000000	-1.000000	-1.000000	-1.000000	-1.000000	-1.000000	146.827586	0.000000	-1.000000	-1.000000	271283.000000	1772311200.769114
-16308.090000	-13821.030000	-17717.220000	-12695.040000	0.000000	0.000000	0.000000	0.000000	-2.717612	31.096975	0.806840	1.604087	0.000000	0.000000	-0.000000	-0.000000	4.410140	-0.717220	-0.244160	0.014893	0.982541	-0.003967	-1.000000	-1.000000	-1.000000	-1.000000	-1.000000	-1.000000	-1.000000	146.827586	0.000000	-1.000000	-1.000000	271284.000000	1772311200.773036
-16312.005000	-13802.760000	-17715.960000	-12691.530000	0.000000	0.000000	0.000000	0.000000	3.055884	15.481064	-1.260653	-0.145047	0.000000	0.000000	-0.000000	-0.000000	4.410140	-0.717220	-0.244160	0.014893	0.982541	-0.003967	-1.000000	-1.000000	-1.000000	-1.000000	-1.000000	-1.000000	-1.000000	146.827586	0.000000	-1.000000	-1.000000	271285.000000	1772311200.773039
-16309.170000	-13815.315000	-17712.315000	-12684.330000	0.000000	0.000000	0.000000	0.000000	8.700968	-1.950248	-2.561205	-2.254995	0.000000	0.000000	-0.000000	-0.000000	4.410140	-0.717220	-0.244160	0.014893	0.982541	-0.003967	-1.000000	-1.000000	-1.000000	-1.000000	-1.000000	-1.000000	-1.000000	146.827586	0.000000	-1.000000	-1.000000	271286.000000	1772311200.777150
-16301.790000	-13838.085000	-17706.915000	-12678.930000	0.000000	0.000000	0.000000	0.000000	10.369489	-17.867066	-1.713401	-1.938629	0.000000	0.000000	-0.000000	-0.000000	4.410140	-0.717220	-0.244160	0.014893	0.982541	-0.003967	-1.000000	-1.000000	-1.000000	-1.000000	-1.000000	-1.000000	-1.000000	146.827586	0.000000	-1.000000	-1.000000	271287.000000	1772311200.777152
-16294.770000	-13844.250000	-17701.245000	-12674.160000	0.000000	0.000000	0.000000	0.000000	7.742521	-30.399714	1.044932	1.219513	0.000000	0.000000	-0.000000	-0.000000	4.410140	-0.717220	-0.244160	0.014893	0.982541	-0.003967	-1.000000	-1.000000	-1.000000	-1.000000	-1.000000	-1.000000	-1.000000	146.827586	0.000000	-1.000000	-1.000000	271288.000000	1772311200.782840
-16294.455000	-13831.470000	-17700.030000	-12672.855000	0.000000	0.000000	0.000000	0.000000	2.898158	-35.389166	3.977054	4.867649	0.000000	0.000000	-0.000000	-0.000000	4.410140	-0.717220	-0.244160	0.014893	0.982541	-0.003967	-1.000000	-1.000000	-1.000000	-1.000000	-1.000000	-1.000000	-1.000000	146.827586	0.000000	-1.000000	-1.000000	271289.000000	1772311200.782843
-16306.515000	-13829.490000	-17709.255000	-12680.505000	0.000000	0.000000	0.000000	0.000000	-2.365536	-28.767919	4.919797	6.112427	0.000000	0.000000	-0.000000	-0.000000	3.647140	-0.244160	-0.122080	0.015320	0.984617	-0.005737	-1.000000	-1.000000	-1.000000	-1.000000	-1.000000	-1.000000	-1.000000	146.827586	0.000000	-1.000000	-1.000000	271290.000000	1772311200.785054
-16315.470000	-13810.770000	-17719.785000	-12689.145000	0.000000	0.000000	0.000000	0.000000	-7.297428	-11.791598	2.554719	3.530795	0.000000	0.000000	-0.000000	-0.000000	3.647140	-0.244160	-0.122080	0.015320	0.984617	-0.005737	-1.000000	-1.000000	-1.000000	-1.000000	-1.000000	-1.000000	-1.000000	146.827586	0.000000	-1.000000	-1.000000	271291.000000	1772311200.785057
-16302.555000	-13812.885000	-17711.955000	-12682.845000	0.000000	0.000000	0.000000	0.000000	-10.629186	8.468739	-2.099434	-1.612111	0.000000	0.000000	-0.000000	-0.000000	3.647140	-0.244160	-0.122080	0.015320	0.984617	-0.005737	-1.000000	-1.000000	-1.000000	-1.000000	-1.000000	-1.000000	-1.000000	146.827586	0.000000	-1.000000	-1.000000	271292.000000	1772311200.792239
-16297.695000	-13845.690000	-17712.540000	-12682.710000	0.000000	0.000000	0.000000	0.000000	-10.048414	22.644949	-5.755949	-5.885270	0.000000	0.000000	-0.000000	-0.000000	3.647140	-0.244160	-0.122080	0.015320	0.984617	-0.005737	-1.000000	-1.000000	-1.000000	-1.000000	-1.000000	-1.000000	-1.000000	146.827586	0.000000	-1.000000	-1.000000	271293.000000	1772311200.792242
-16297.515000	-13858.335000	-17711.820000	-12681.225000	0.000000	0.000000	0.000000	0.000000	-4.978765	24.064810	-5.865761	-6.610736	0.000000	0.000000	-0.000000	-0.000000	3.647140	-0.244160	-0.122080	0.015320	0.984617	-0.005737	-1.000000	-1.000000	-1.000000	-1.000000	-1.000000	-1.000000	-1.000000	146.827586	0.000000	-1.000000	-1.000000	271294.000000	1772311200.793174
-16293.375000	-13844.880000	-17705.475000	-12675.555000	0.000000	0.000000	0.000000	0.000000	1.806714	14.419203	-2.763442	-3.889490	0.000000	0.000000	-0.000000	-0.000000	3.647140	-0.244160	-0.122080	0.015320	0.984617	-0.005737	-1.000000	-1.000000	-1.000000	-1.000000	-1.000000	-1.000000	-1.000000	146.827586	0.000000	-1.000000	-1.000000	271295.000000	1772311200.793177
-16287.390000	-13829.940000	-17698.995000	-12670.290000	0.000000	0.000000	0.000000	0.000000	6.764668	3.076903	1.550871	0.367744	0.000000	0.000000	-0.000000	-0.000000	3.647140	-0.244160	-0.122080	0.015320	0.984617	-0.005737	-1.000000	-1.000000	-1.000000	-1.000000	-1.000000	-1.000000	-1.000000	146.827586	0.000000	-1.000000	-1.000000	271296.000000	1772311200.797184
-16307.865000	-13821.390000	-17712.720000	-12680.190000	0.000000	0.000000	0.000000	0.000000	7.821772	-1.790606	4.730281	3.778148	0.000000	0.000000	-0.000000	-0.000000	3.647140	-0.244160	-0.122080	0.015320	0.984617	-0.005737	-1.000000	-1.000000	-1.000000	-1.000000	-1.000000	-1.000000	-1.000000	146.827586	0.000000	-1.000000	-1.000000	271297.000000	1772311200.797187
-16326.270000	-13815.180000	-17712.630000	-12679.470000	0.000000	0.000000	0.000000	0.000000	4.222388	0.305142	4.760100	4.379547	0.000000	0.000000	-0.000000	-0.000000	3.647140	-0.244160	-0.122080	0.015320	0.984617	-0.005737	-1.000000	-1.000000	-1.000000	-1.000000	-1.000000	-1.000000	-1.000000	146.827586	0.000000	-1.000000	-1.000000	271298.000000	1772311200.801144
-16332.165000	-13815.945000	-17708.805000	-12675.960000	0.000000	0.000000	0.000000	0.000000	-2.609910	4.235727	1.809983	2.211736	0.000000	0.000000	-0.000000	-0.000000	3.647140	-0.244160	-0.122080	0.015320	0.984617	-0.005737	-1.000000	-1.000000	-1.000000	-1.000000	-1.000000	-1.000000	-1.000000	146.827586	0.000000	-1.000000	-1.000000	271299.000000	1772311200.801147
-16309.080000	-13847.715000	-17701.470000	-12671.910000	0.000000	0.000000	0.000000	0.000000	-7.950052	4.429863	-1.402269	-0.535516	0.000000	0.000000	-0.000000	-0.000000	3.952340	-0.228900	0.045780	0.014954	0.984250	-0.005493	-1.000000	-1.000000	-1.000000	-1.000000	-1.000000	-1.000000	-1.000000	146.827586	0.000000	-1.000000	-1.000000	271300.000000	1772311200.805161
-16295.580000	-13864.545000	-17696.745000	-12663.855000	0.000000	0.000000	0.000000	0.000000	-6.695321	-1.558615	-2.354350	-1.704596	0.000000	0.000000	-0.000000	-0.000000	3.952340	-0.228900	0.045780	0.014954	0.984250	-0.005493	-1.000000	-1.000000	-1.000000	-1.000000	-1.000000	-1.000000	-1.000000	146.827586	0.000000	-1.000000	-1.000000	271301.000000	1772311200.805164
-16296.930000	-13845.105000	-17695.845000	-12660.570000	0.000000	0.000000	0.000000	0.000000	1.091899	-10.341466	-0.974303	-0.841945	0.000000	0.000000	-0.000000	-0.000000	3.952340	-0.228900	0.045780	0.014954	0.984250	-0.005493	-1.000000	-1.000000	-1.000000	-1.000000	-1.000000	-1.000000	-1.000000	146.827586	0.000000	-1.000000	-1.000000	271302.000000	1772311200.809616
-16302.555000	-13835.790000	-17705.205000	-12668.625000	0.000000	0.000000	0.000000	0.000000	9.273668	-14.231878	0.700128	0.670873	0.000000	0.000000	-0.000000	-0.000000	3.952340	-0.228900	0.045780	0.014954	0.984250	-0.005493	-1.000000	-1.000000	-1.000000	-1.000000	-1.000000	-1.000000	-1.000000	146.827586	0.000000	-1.000000	-1.000000	271303.000000	1772311200.809618
-16304.985000	-13839.120000	-17711.595000	-12684.645000	0.000000	0.000000	0.000000	0.000000	11.498355	-9.134987	0.514199	0.576487	0.000000	0.000000	-0.000000	-0.000000	3.952340	-0.228900	0.045780	0.014954	0.984250	-0.005493	-1.000000	-1.000000	-1.000000	-1.000000	-1.000000	-1.000000	-1.000000	146.827586	0.000000	-1.000000	-1.000000	271304.000000	1772311200.813036
-16302.330000	-13844.430000	-17707.815000	-12686.265000	0.000000	0.000000	0.000000	0.000000	6.774211	0.932912	-1.602381	-2.034561	0.000000	0.000000	-0.000000	-0.000000	3.952340	-0.228900	0.045780	0.014954	0.984250	-0.005493	-1.000000	-1.000000	-1.000000	-1.000000	-1.000000	-1.000000	-1.000000	146.827586	0.000000	-1.000000	-1.000000	271305.000000	1772311200.813040
-16307.775000	-13810.950000	-17711.190000	-12688.605000	0.000000	0.000000	0.000000	0.000000	-1.004319	9.356258	-3.538681	-5.196501	0.000000	0.000000	-0.000000	-0.000000	3.952340	-0.228900	0.045780	0.014954	0.984250	-0.005493	-1.000000	-1.000000	-1.000000	-1.000000	-1.000000	-1.000000	-1.000000	146.827586	0.000000	-1.000000	-1.000000	271306.000000	1772311200.817260
-16316.370000	-13762.620000	-17718.075000	-12691.620000	0.000000	0.000000	0.000000	0.000000	-7.406768	14.161359	-3.578393	-5.929631	0.000000	0.000000	-0.000000	-0.000000	3.952340	-0.228900	0.045780	0.014954	0.984250	-0.005493	-1.000000	-1.000000	-1.000000	-1.000000	-1.000000	-1.000000	-1.000000	146.827586	0.000000	-1.000000	-1.000000	271307.000000	1772311200.817263
-16312.860000	-13784.625000	-17713.215000	-12684.330000	0.000000	0.000000	0.000000	0.000000	-10.114724	16.055528	-1.873694	-3.135519	0.000000	0.000000	-0.000000	-0.000000	3.952340	-0.228900	0.045780	0.014954	0.984250	-0.005493	-1.000000	-1.000000	-1.000000	-1.000000	-1.000000	-1.000000	-1.000000	146.827586	0.000000	-1.000000	-1.000000	271308.000000	1772311200.821079
-16305.930000	-13821.165000	-17708.400000	-12680.280000	0.000000	0.000000	0.000000	0.000000	-8.488580	12.056479	0.789685	2.022670	0.000000	0.000000	-0.000000	-0.000000	3.952340	-0.228900	0.045780	0.014954	0.984250	-0.005493	-1.000000	-1.000000	-1.000000	-1.000000	-1.000000	-1.000000	-1.000000	146.827586	0.000000	-1.000000	-1.000000	271309.000000	1772311200.821081
-16300.755000	-13826.880000	-17707.995000	-12679.380000	0.000000	0.000000	0.000000	0.000000	-3.240581	-0.850906	3.645367	7.075433	0.000000	0.000000	-0.000000	-0.000000	6.042960	-0.564620	0.228900	0.015686	0.982786	-0.003357	-1.000000	-1.000000	-1.000000	-1.000000	-1.000000	-1.000000	-1.000000	146.827586	0.000000	-1.000000	-1.000000	271310.000000	1772311200.825154
-16294.095000	-13801.545000	-17704.350000	-12676.500000	0.000000	0.000000	0.000000	0.000000	3.263474	-16.828995	5.536262	9.444298	0.000000	0.000000	-0.000000	-0.000000	6.042960	-0.564620	0.228900	0.015686	0.982786	-0.003357	-1.000000	-1.000000	-1.000000	-1.000000	-1.000000	-1.000000	-1.000000	146.827586	0.000000	-1.000000	-1.000000	271311.000000	1772311200.825157
-16288.065000	-13762.530000	-17702.145000	-12673.530000	0.000000	0.000000	0.000000	0.000000	8.043651	-23.789174	5.516020	8.067930	0.000000	0.000000	-0.000000	-0.000000	6.042960	-0.564620	0.228900	0.015686	0.982786	-0.003357	-1.000000	-1.000000	-1.000000	-1.000000	-1.000000	-1.000000	-1.000000	146.827586	0.000000	-1.000000	-1.000000	271312.000000	1772311200.829243
-16290.990000	-13769.055000	-17700.660000	-12673.305000	0.000000	0.000000	0.000000	0.000000	9.084439	-15.945514	3.622792	3.917364	0.000000	0.000000	-0.000000	-0.000000	6.042960	-0.564620	0.228900	0.015686	0.982786	-0.003357	-1.000000	-1.000000	-1.000000	-1.000000	-1.000000	-1.000000	-1.000000	146.827586	0.000000	-1.000000	-1.000000	271313.000000	1772311200.829247
-16319.880000	-13806.900000	-17715.555000	-12687.435000	0.000000	0.000000	0.000000	0.000000	5.542041	-0.894149	0.405343	-1.308584	0.000000	0.000000	-0.000000	-0.000000	6.042960	-0.564620	0.228900	0.015686	0.982786	-0.003357	-1.000000	-1.000000	-1.000000	-1.000000	-1.000000	-1.000000	-1.000000	146.827586	0.000000	-1.000000	-1.000000	271314.000000	1772311200.833161
-16341.030000	-13845.420000	-17714.430000	-12685.860000	0.000000	0.000000	0.000000	0.000000	-2.204953	7.696879	-3.474889	-6.175086	0.000000	0.000000	-0.000000	-0.000000	6.042960	-0.564620	0.228900	0.015686	0.982786	-0.003357	-1.000000	-1.000000	-1.000000	-1.000000	-1.000000	-1.000000	-1.000000	146.827586	0.000000	-1.000000	-1.000000	271315.000000	1772311200.833164
-16340.130000	-13832.865000	-17705.745000	-12675.150000	0.000000	0.000000	0.000000	0.000000	-10.911900	4.446157	-6.362381	-8.817381	0.000000	0.000000	-0.000000	-0.000000	6.042960	-0.564620	0.228900	0.015686	0.982786	-0.003357	-1.000000	-1.000000	-1.000000	-1.000000	-1.000000	-1.000000	-1.000000	146.827586	0.000000	-1.000000	-1.000000	271316.000000	1772311200.837163
-16294.815000	-13819.005000	-17685.540000	-12655.935000	0.000000	0.000000	0.000000	0.000000	-14.016826	-2.983928	-5.787869	-7.123520	0.000000	0.000000	-0.000000	-0.000000	6.042960	-0.564620	0.228900	0.015686	0.982786	-0.003357	-1.000000	-1.000000	-1.000000	-1.000000	-1.000000	-1.000000	-1.000000	146.827586	0.000000	-1.000000	-1.000000	271317.000000	1772311200.837166
-16285.995000	-13831.830000	-17683.155000	-12653.955000	0.000000	0.000000	0.000000	0.000000	-6.667041	-4.488966	-1.144232	-1.230562	0.000000	0.000000	-0.000000	-0.000000	6.042960	-0.564620	0.228900	0.015686	0.982786	-0.003357	-1.000000	-1.000000	-1.000000	-1.000000	-1.000000	-1.000000	-1.000000	146.827586	0.000000	-1.000000	-1.000000	271318.000000	1772311200.841151
-16290.585000	-13857.840000	-17680.410000	-12650.850000	0.000000	0.000000	0.000000	0.000000	7.342602	0.789772	4.585727	5.239107	0.000000	0.000000	-0.000000	-0.000000	6.042960	-0.564620	0.228900	0.015686	0.982786	-0.003357	-1.000000	-1.000000	-1.000000	-1.000000	-1.000000	-1.000000	-1.000000	146.827586	0.000000	-1.000000	-1.000000	271319.000000	1772311200.841153
-16306.200000	-13842.810000	-17698.005000	-12665.655000	0.000000	0.000000	0.000000	0.000000	17.272951	6.748798	6.883945	7.697483	0.000000	0.000000	-0.000000	-0.000000	9.110220	-1.327620	1.968540	0.013000	0.981321	-0.001221	-1.000000	-1.000000	-1.000000	-1.000000	-1.000000	-1.000000	-1.000000	146.827586	0.000000	-1.000000	-1.000000	271320.000000	1772311200.845348
-16309.935000	-13796.955000	-17704.890000	-12671.910000	0.000000	0.000000	0.000000	0.000000	15.662846	10.505985	3.475662	4.227103	0.000000	0.000000	-0.000000	-0.000000	9.110220	-1.327620	1.968540	0.013000	0.981321	-0.001221	-1.000000	-1.000000	-1.000000	-1.000000	-1.000000	-1.000000	-1.000000	146.827586	0.000000	-1.000000	-1.000000	271321.000000	1772311200.845350
-16303.815000	-13759.290000	-17701.785000	-12670.875000	0.000000	0.000000	0.000000	0.000000	4.731516	14.329231	-3.414627	-2.770372	0.000000	0.000000	-0.000000	-0.000000	9.110220	-1.327620	1.968540	0.013000	0.981321	-0.001221	-1.000000	-1.000000	-1.000000	-1.000000	-1.000000	-1.000000	-1.000000	146.827586	0.000000	-1.000000	-1.000000	271322.000000	1772311200.850141
-16304.265000	-13742.190000	-17698.365000	-12651.255000	0.000000	0.000000	0.000000	0.000000	-7.065981	18.537054	-8.541983	-7.935631	0.000000	0.000000	-0.000000	-0.000000	9.110220	-1.327620	1.968540	0.013000	0.981321	-0.001221	-1.000000	-1.000000	-1.000000	-1.000000	-1.000000	-1.000000	-1.000000	146.827586	0.000000	-1.000000	-1.000000	271323.000000	1772311200.850144
-16315.020000	-13704.660000	-17707.365000	-12656.160000	0.000000	0.000000	0.000000	0.000000	-13.088311	18.954404	-8.419898	-7.288742	0.000000	0.000000	-0.000000	-0.000000	9.110220	-1.327620	1.968540	0.013000	0.981321	-0.001221	-1.000000	-1.000000	-1.000000	-1.000000	-1.000000	-1.000000	-1.000000	146.827586	0.000000	-1.000000	-1.000000	271324.000000	1772311200.856258
-16321.905000	-13664.745000	-17716.635000	-12684.915000	0.000000	0.000000	0.000000	0.000000	-12.542319	12.751060	-4.219297	-2.496538	0.000000	0.000000	-0.000000	-0.000000	9.110220	-1.327620	1.968540	0.013000	0.981321	-0.001221	-1.000000	-1.000000	-1.000000	-1.000000	-1.000000	-1.000000	-1.000000	146.827586	0.000000	-1.000000	-1.000000	271325.000000	1772311200.856261
-16317.315000	-13676.490000	-17711.415000	-12676.095000	0.000000	0.000000	0.000000	0.000000	-7.985658	1.236973	0.658063	1.225296	0.000000	0.000000	-0.000000	-0.000000	9.110220	-1.327620	1.968540	0.013000	0.981321	-0.001221	-1.000000	-1.000000	-1.000000	-1.000000	-1.000000	-1.000000	-1.000000	146.827586	0.000000	-1.000000	-1.000000	271326.000000	1772311200.857330
-16312.320000	-13676.040000	-17715.915000	-12688.830000	0.000000	0.000000	0.000000	0.000000	-1.731919	-13.210151	4.205070	1.702276	0.000000	0.000000	-0.000000	-0.000000	9.110220	-1.327620	1.968540	0.013000	0.981321	-0.001221	-1.000000	-1.000000	-1.000000	-1.000000	-1.000000	-1.000000	-1.000000	146.827586	0.000000	-1.000000	-1.000000	271327.000000	1772311200.857332
-16313.535000	-13637.340000	-17721.990000	-12719.655000	0.000000	0.000000	0.000000	0.000000	4.478304	-26.481356	5.896118	0.199656	0.000000	0.000000	-0.000000	-0.000000	9.110220	-1.327620	1.968540	0.013000	0.981321	-0.001221	-1.000000	-1.000000	-1.000000	-1.000000	-1.000000	-1.000000	-1.000000	146.827586	0.000000	-1.000000	-1.000000	271328.000000	1772311200.861368
-16316.415000	-13574.430000	-17718.480000	-12708.810000	0.000000	0.000000	0.000000	0.000000	8.567765	-30.832777	5.644996	-1.813961	0.000000	0.000000	-0.000000	-0.000000	9.110220	-1.327620	1.968540	0.013000	0.981321	-0.001221	-1.000000	-1.000000	-1.000000	-1.000000	-1.000000	-1.000000	-1.000000	146.827586	0.000000	-1.000000	-1.000000	271329.000000	1772311200.861371
-16320.330000	-13547.430000	-17711.685000	-12691.260000	0.000000	0.000000	0.000000	0.000000	8.906399	-21.251485	4.259280	-1.812726	0.000000	0.000000	-0.000000	-0.000000	11.460260	-0.412020	-0.350980	0.019165	0.980466	-0.003784	-1.000000	-1.000000	-1.000000	-1.000000	-1.000000	-1.000000	-1.000000	146.827586	0.000000	-1.000000	-1.000000	271330.000000	1772311200.865301
-16324.020000	-13521.330000	-17708.265000	-12680.595000	0.000000	0.000000	0.000000	0.000000	5.673095	-2.970192	3.046420	2.646550	0.000000	0.000000	-0.000000	-0.000000	11.460260	-0.412020	-0.350980	0.019165	0.980466	-0.003784	-1.000000	-1.000000	-1.000000	-1.000000	-1.000000	-1.000000	-1.000000	146.827586	0.000000	-1.000000	-1.000000	271331.000000	1772311200.865304
-16336.215000	-13507.335000	-17716.230000	-12675.195000	0.000000	0.000000	0.000000	0.000000	0.636592	12.232326	2.168536	9.752260	0.000000	0.000000	-0.000000	-0.000000	11.460260	-0.412020	-0.350980	0.019165	0.980466	-0.003784	-1.000000	-1.000000	-1.000000	-1.000000	-1.000000	-1.000000	-1.000000	146.827586	0.000000	-1.000000	-1.000000	271332.000000	1772311200.869550
-16324.830000	-13512.330000	-17710.875000	-12677.355000	0.000000	0.000000	0.000000	0.000000	-3.810345	15.851508	0.710265	14.161381	0.000000	0.000000	-0.000000	-0.000000	11.460260	-0.412020	-0.350980	0.019165	0.980466	-0.003784	-1.000000	-1.000000	-1.000000	-1.000000	-1.000000	-1.000000	-1.000000	146.827586	0.000000	-1.000000	-1.000000	271333.000000	1772311200.869552
-16294.815000	-13525.155000	-17707.455000	-12695.130000	0.000000	0.000000	0.000000	0.000000	-4.820253	7.226772	-1.376055	11.623438	0.000000	0.000000	-0.000000	-0.000000	11.460260	-0.412020	-0.350980	0.019165	0.980466	-0.003784	-1.000000	-1.000000	-1.000000	-1.000000	-1.000000	-1.000000	-1.000000	146.827586	0.000000	-1.000000	-1.000000	271334.000000	1772311200.873375
-16253.235000	-13536.405000	-17710.155000	-12700.305000	0.000000	0.000000	0.000000	0.000000	-0.224821	-7.644293	-3.031787	2.225125	0.000000	0.000000	-0.000000	-0.000000	11.460260	-0.412020	-0.350980	0.019165	0.980466	-0.003784	-1.000000	-1.000000	-1.000000	-1.000000	-1.000000	-1.000000	-1.000000	146.827586	0.000000	-1.000000	-1.000000	271335.000000	1772311200.873378
