Channel1	Channel2	Channel3	Channel4	Channel5	Channel6	Channel7	Channel8	FilteredChannel1	FilteredChannel2	FilteredChannel3	FilteredChannel4	FilteredChannel5	FilteredChannel6	FilteredChannel7	FilteredChannel8	GyroX	GyroY	GyroZ	AccX	AccY	AccZ	PPG1	PPG2	rawPPG1	rawPPG2	rawPPG3	Hr	Hrv	Battery	Trigger	PhysicalTrigger	AutoTrigger	NumMeasurements	Timestamp
-3233.340000	22008.915000	-19891.395000	-14764.815000	0.000000	0.000000	0.000000	0.000000	40.996240	-55.736991	47.792621	55.534859	-0.000000	0.000000	0.000000	-0.000000	6.470240	0.106820	-0.854560	-0.029968	0.756895	0.651243	-1.000000	-1.000000	-1.000000	-1.000000	-1.000000	-1.000000	-1.000000	138.965517	0.000000	-1.000000	-1.000000	521133.000000	1772919072.142491
-3286.755000	22038.930000	-19957.230000	-14842.350000	0.000000	0.000000	0.000000	0.000000	-19.686786	-58.635894	-40.763196	-39.156210	-0.000000	0.000000	0.000000	-0.000000	6.470240	0.106820	-0.854560	-0.029968	0.756895	0.651243	-1.000000	-1.000000	-1.000000	-1.000000	-1.000000	-1.000000	-1.000000	138.965517	0.000000	-1.000000	-1.000000	521134.000000	1772919072.142494
-3263.130000	22087.080000	-19912.455000	-14799.690000	0.000000	0.000000	0.000000	0.000000	-68.035265	-47.053269	-105.521063	-110.803434	-0.000000	0.000000	0.000000	-0.000000	6.470240	0.106820	-0.854560	-0.029968	0.756895	0.651243	-1.000000	-1.000000	-1.000000	-1.000000	-1.000000	-1.000000	-1.000000	138.965517	0.000000	-1.000000	-1.000000	521135.000000	1772919072.146586
-3233.610000	22151.520000	-19865.070000	-14748.570000	0.000000	0.000000	0.000000	0.000000	-78.486250	-20.226848	-111.881214	-121.211698	-0.000000	0.000000	0.000000	-0.000000	6.470240	0.106820	-0.854560	-0.029968	0.756895	0.651243	-1.000000	-1.000000	-1.000000	-1.000000	-1.000000	-1.000000	-1.000000	138.965517	0.000000	-1.000000	-1.000000	521136.000000	1772919072.146611
-3166.920000	22213.935000	-19764.045000	-14643.495000	0.000000	0.000000	0.000000	0.000000	-46.262535	14.879278	-57.510499	-65.867780	-0.000000	0.000000	0.000000	-0.000000	6.470240	0.106820	-0.854560	-0.029968	0.756895	0.651243	-1.000000	-1.000000	-1.000000	-1.000000	-1.000000	-1.000000	-1.000000	138.965517	0.000000	-1.000000	-1.000000	521137.000000	1772919072.150577
-3104.865000	22259.070000	-19678.770000	-14547.195000	0.000000	0.000000	0.000000	0.000000	10.014247	45.082833	26.661237	23.753141	-0.000000	0.000000	0.000000	-0.000000	6.470240	0.106820	-0.854560	-0.029968	0.756895	0.651243	-1.000000	-1.000000	-1.000000	-1.000000	-1.000000	-1.000000	-1.000000	138.965517	0.000000	-1.000000	-1.000000	521138.000000	1772919072.150580
-3109.545000	22204.755000	-19703.070000	-14567.715000	0.000000	0.000000	0.000000	0.000000	59.916559	56.102047	95.286511	99.394548	-0.000000	0.000000	0.000000	-0.000000	6.470240	0.106820	-0.854560	-0.029968	0.756895	0.651243	-1.000000	-1.000000	-1.000000	-1.000000	-1.000000	-1.000000	-1.000000	138.965517	0.000000	-1.000000	-1.000000	521139.000000	1772919072.154632
-3132.405000	22119.480000	-19744.920000	-14611.995000	0.000000	0.000000	0.000000	0.000000	76.878331	38.623985	111.597596	120.566385	-0.000000	0.000000	0.000000	-0.000000	6.470240	0.106820	-0.854560	-0.029968	0.756895	0.651243	-1.000000	-1.000000	-1.000000	-1.000000	-1.000000	-1.000000	-1.000000	138.965517	0.000000	-1.000000	-1.000000	521140.000000	1772919072.154635
-3197.655000	22114.080000	-19846.170000	-14716.890000	0.000000	0.000000	0.000000	0.000000	52.139207	-1.964321	67.146067	76.164242	-0.000000	0.000000	0.000000	-0.000000	5.112100	0.610400	-0.701960	-0.030212	0.757811	0.650389	-1.000000	-1.000000	-1.000000	-1.000000	-1.000000	-1.000000	-1.000000	138.965517	0.000000	-1.000000	-1.000000	521141.000000	1772919072.158577
-3267.135000	22107.870000	-19949.490000	-14830.560000	0.000000	0.000000	0.000000	0.000000	-0.867897	-42.043775	-13.913977	-9.680881	-0.000000	0.000000	0.000000	-0.000000	5.112100	0.610400	-0.701960	-0.030212	0.757811	0.650389	-1.000000	-1.000000	-1.000000	-1.000000	-1.000000	-1.000000	-1.000000	138.965517	0.000000	-1.000000	-1.000000	521142.000000	1772919072.158620
-3233.025000	21988.485000	-19894.275000	-14780.160000	0.000000	0.000000	0.000000	0.000000	-53.548912	-58.419323	-87.905049	-90.736939	-0.000000	0.000000	0.000000	-0.000000	5.112100	0.610400	-0.701960	-0.030212	0.757811	0.650389	-1.000000	-1.000000	-1.000000	-1.000000	-1.000000	-1.000000	-1.000000	138.965517	0.000000	-1.000000	-1.000000	521143.000000	1772919072.162567
-3191.670000	21901.635000	-19831.320000	-14714.055000	0.000000	0.000000	0.000000	0.000000	-75.872097	-49.329547	-112.603569	-121.003041	-0.000000	0.000000	0.000000	-0.000000	5.112100	0.610400	-0.701960	-0.030212	0.757811	0.650389	-1.000000	-1.000000	-1.000000	-1.000000	-1.000000	-1.000000	-1.000000	138.965517	0.000000	-1.000000	-1.000000	521144.000000	1772919072.162570
-3119.985000	21822.165000	-19737.765000	-14617.485000	0.000000	0.000000	0.000000	0.000000	-54.684188	-27.821634	-73.104775	-82.506352	-0.000000	0.000000	0.000000	-0.000000	5.112100	0.610400	-0.701960	-0.030212	0.757811	0.650389	-1.000000	-1.000000	-1.000000	-1.000000	-1.000000	-1.000000	-1.000000	138.965517	0.000000	-1.000000	-1.000000	521145.000000	1772919072.166509
-3049.155000	21804.615000	-19623.915000	-14492.115000	0.000000	0.000000	0.000000	0.000000	-2.995201	-3.097758	7.166254	1.853863	-0.000000	0.000000	0.000000	-0.000000	5.112100	0.610400	-0.701960	-0.030212	0.757811	0.650389	-1.000000	-1.000000	-1.000000	-1.000000	-1.000000	-1.000000	-1.000000	138.965517	0.000000	-1.000000	-1.000000	521146.000000	1772919072.166512
-3056.130000	21789.540000	-19639.395000	-14498.955000	0.000000	0.000000	0.000000	0.000000	48.879364	23.253345	82.482476	84.163705	-0.000000	0.000000	0.000000	-0.000000	5.112100	0.610400	-0.701960	-0.030212	0.757811	0.650389	-1.000000	-1.000000	-1.000000	-1.000000	-1.000000	-1.000000	-1.000000	138.965517	0.000000	-1.000000	-1.000000	521147.000000	1772919072.170636
-3084.165000	21770.460000	-19691.280000	-14554.080000	0.000000	0.000000	0.000000	0.000000	70.909932	48.966080	110.273099	118.135595	-0.000000	0.000000	0.000000	-0.000000	5.112100	0.610400	-0.701960	-0.030212	0.757811	0.650389	-1.000000	-1.000000	-1.000000	-1.000000	-1.000000	-1.000000	-1.000000	138.965517	0.000000	-1.000000	-1.000000	521148.000000	1772919072.170639
-3139.290000	21786.750000	-19771.740000	-14639.850000	0.000000	0.000000	0.000000	0.000000	50.804849	66.830201	74.649736	84.322221	-0.000000	0.000000	0.000000	-0.000000	5.112100	0.610400	-0.701960	-0.030212	0.757811	0.650389	-1.000000	-1.000000	-1.000000	-1.000000	-1.000000	-1.000000	-1.000000	138.965517	0.000000	-1.000000	-1.000000	521149.000000	1772919072.174610
-3234.555000	21828.735000	-19907.820000	-14783.895000	0.000000	0.000000	0.000000	0.000000	0.422082	70.534235	-4.372757	1.548436	-0.000000	0.000000	0.000000	-0.000000	5.112100	0.610400	-0.701960	-0.030212	0.757811	0.650389	-1.000000	-1.000000	-1.000000	-1.000000	-1.000000	-1.000000	-1.000000	138.965517	0.000000	-1.000000	-1.000000	521150.000000	1772919072.174613
-3246.165000	21850.830000	-19914.615000	-14798.970000	0.000000	0.000000	0.000000	0.000000	-52.820910	59.670897	-84.058879	-85.318170	-0.000000	0.000000	0.000000	-0.000000	5.936140	0.564620	-0.640920	-0.030517	0.759520	0.650450	-1.000000	-1.000000	-1.000000	-1.000000	-1.000000	-1.000000	-1.000000	138.965517	0.000000	-1.000000	-1.000000	521151.000000	1772919072.178606
-3221.055000	21909.555000	-19865.520000	-14749.110000	0.000000	0.000000	0.000000	0.000000	-79.452337	37.972007	-120.505947	-128.319565	-0.000000	0.000000	0.000000	-0.000000	5.936140	0.564620	-0.640920	-0.030517	0.759520	0.650450	-1.000000	-1.000000	-1.000000	-1.000000	-1.000000	-1.000000	-1.000000	138.965517	0.000000	-1.000000	-1.000000	521152.000000	1772919072.178609
-3179.430000	21934.575000	-19799.730000	-14681.565000	0.000000	0.000000	0.000000	0.000000	-63.283997	11.082191	-91.816680	-101.942277	-0.000000	0.000000	0.000000	-0.000000	5.936140	0.564620	-0.640920	-0.030517	0.759520	0.650450	-1.000000	-1.000000	-1.000000	-1.000000	-1.000000	-1.000000	-1.000000	138.965517	0.000000	-1.000000	-1.000000	521153.000000	1772919072.182636
-3092.490000	21949.020000	-19673.595000	-14548.140000	0.000000	0.000000	0.000000	0.000000	-11.914499	-15.595882	-12.574941	-19.593005	-0.000000	0.000000	0.000000	-0.000000	5.936140	0.564620	-0.640920	-0.030517	0.759520	0.650450	-1.000000	-1.000000	-1.000000	-1.000000	-1.000000	-1.000000	-1.000000	138.965517	0.000000	-1.000000	-1.000000	521154.000000	1772919072.182639
-3056.895000	21897.630000	-19640.070000	-14502.330000	0.000000	0.000000	0.000000	0.000000	48.308262	-39.434025	75.485379	75.312202	-0.000000	0.000000	0.000000	-0.000000	5.936140	0.564620	-0.640920	-0.030517	0.759520	0.650450	-1.000000	-1.000000	-1.000000	-1.000000	-1.000000	-1.000000	-1.000000	138.965517	0.000000	-1.000000	-1.000000	521155.000000	1772919072.186579
-3092.400000	21886.965000	-19690.380000	-14553.945000	0.000000	0.000000	0.000000	0.000000	85.951294	-58.948655	125.791662	132.733312	-0.000000	0.000000	0.000000	-0.000000	5.936140	0.564620	-0.640920	-0.030517	0.759520	0.650450	-1.000000	-1.000000	-1.000000	-1.000000	-1.000000	-1.000000	-1.000000	138.965517	0.000000	-1.000000	-1.000000	521156.000000	1772919072.186582
-3138.525000	21849.615000	-19746.090000	-14613.165000	0.000000	0.000000	0.000000	0.000000	79.815082	-69.645016	110.740411	121.266009	-0.000000	0.000000	0.000000	-0.000000	5.936140	0.564620	-0.640920	-0.030517	0.759520	0.650450	-1.000000	-1.000000	-1.000000	-1.000000	-1.000000	-1.000000	-1.000000	138.965517	0.000000	-1.000000	-1.000000	521157.000000	1772919072.190651
-3212.595000	21821.175000	-19868.040000	-14741.550000	0.000000	0.000000	0.000000	0.000000	32.254216	-65.743128	38.466067	46.958852	-0.000000	0.000000	0.000000	-0.000000	5.936140	0.564620	-0.640920	-0.030517	0.759520	0.650450	-1.000000	-1.000000	-1.000000	-1.000000	-1.000000	-1.000000	-1.000000	138.965517	0.000000	-1.000000	-1.000000	521158.000000	1772919072.190654
-3229.020000	21757.905000	-19908.360000	-14792.805000	0.000000	0.000000	0.000000	0.000000	-30.901097	-46.845713	-52.374513	-50.432298	-0.000000	0.000000	0.000000	-0.000000	5.936140	0.564620	-0.640920	-0.030517	0.759520	0.650450	-1.000000	-1.000000	-1.000000	-1.000000	-1.000000	-1.000000	-1.000000	138.965517	0.000000	-1.000000	-1.000000	521159.000000	1772919072.194630
-3206.340000	21777.885000	-19873.530000	-14752.305000	0.000000	0.000000	0.000000	0.000000	-75.140531	-18.556337	-113.900514	-119.356318	-0.000000	0.000000	0.000000	-0.000000	5.936140	0.564620	-0.640920	-0.030517	0.759520	0.650450	-1.000000	-1.000000	-1.000000	-1.000000	-1.000000	-1.000000	-1.000000	138.965517	0.000000	-1.000000	-1.000000	521160.000000	1772919072.194633
-3187.170000	21826.440000	-19819.980000	-14700.105000	0.000000	0.000000	0.000000	0.000000	-77.642007	13.813008	-113.855224	-123.378426	-0.000000	0.000000	0.000000	-0.000000	5.051060	0.259420	-0.808780	-0.030701	0.758421	0.650755	-1.000000	-1.000000	-1.000000	-1.000000	-1.000000	-1.000000	-1.000000	138.965517	0.000000	-1.000000	-1.000000	521161.000000	1772919072.198690
-3103.155000	21829.050000	-19700.325000	-14578.920000	0.000000	0.000000	0.000000	0.000000	-40.044151	45.456294	-53.858802	-62.170177	-0.000000	0.000000	0.000000	-0.000000	5.051060	0.259420	-0.808780	-0.030701	0.758421	0.650755	-1.000000	-1.000000	-1.000000	-1.000000	-1.000000	-1.000000	-1.000000	138.965517	0.000000	-1.000000	-1.000000	521162.000000	1772919072.198693
-3043.350000	21811.275000	-19626.525000	-14490.630000	0.000000	0.000000	0.000000	0.000000	16.245028	66.170481	33.148371	30.116926	-0.000000	0.000000	0.000000	-0.000000	5.051060	0.259420	-0.808780	-0.030701	0.758421	0.650755	-1.000000	-1.000000	-1.000000	-1.000000	-1.000000	-1.000000	-1.000000	138.965517	0.000000	-1.000000	-1.000000	521163.000000	1772919072.202773
-3076.155000	21853.890000	-19678.140000	-14540.400000	0.000000	0.000000	0.000000	0.000000	62.074468	65.601182	100.652768	104.181488	-0.000000	0.000000	0.000000	-0.000000	5.051060	0.259420	-0.808780	-0.030701	0.758421	0.650755	-1.000000	-1.000000	-1.000000	-1.000000	-1.000000	-1.000000	-1.000000	138.965517	0.000000	-1.000000	-1.000000	521164.000000	1772919072.202776
-3107.745000	21832.605000	-19726.605000	-14592.690000	0.000000	0.000000	0.000000	0.000000	72.630675	44.460996	111.380178	119.515857	-0.000000	0.000000	0.000000	-0.000000	5.051060	0.259420	-0.808780	-0.030701	0.758421	0.650755	-1.000000	-1.000000	-1.000000	-1.000000	-1.000000	-1.000000	-1.000000	138.965517	0.000000	-1.000000	-1.000000	521165.000000	1772919072.208553
-3158.190000	21725.730000	-19812.465000	-14681.025000	0.000000	0.000000	0.000000	0.000000	42.345885	10.843079	60.277268	68.531374	-0.000000	0.000000	0.000000	-0.000000	5.051060	0.259420	-0.808780	-0.030701	0.758421	0.650755	-1.000000	-1.000000	-1.000000	-1.000000	-1.000000	-1.000000	-1.000000	138.965517	0.000000	-1.000000	-1.000000	521166.000000	1772919072.208555
-3208.140000	21564.585000	-19886.985000	-14767.470000	0.000000	0.000000	0.000000	0.000000	-10.465837	-29.435549	-22.169534	-18.362257	-0.000000	0.000000	0.000000	-0.000000	5.051060	0.259420	-0.808780	-0.030701	0.758421	0.650755	-1.000000	-1.000000	-1.000000	-1.000000	-1.000000	-1.000000	-1.000000	138.965517	0.000000	-1.000000	-1.000000	521167.000000	1772919072.210711
-3201.930000	21572.955000	-19860.615000	-14743.890000	0.000000	0.000000	0.000000	0.000000	-56.149155	-67.010126	-90.103652	-92.850016	-0.000000	0.000000	0.000000	-0.000000	5.051060	0.259420	-0.808780	-0.030701	0.758421	0.650755	-1.000000	-1.000000	-1.000000	-1.000000	-1.000000	-1.000000	-1.000000	138.965517	0.000000	-1.000000	-1.000000	521168.000000	1772919072.210713
-3174.930000	21613.140000	-19815.120000	-14695.650000	0.000000	0.000000	0.000000	0.000000	-70.503121	-80.533654	-107.241621	-115.022499	-0.000000	0.000000	0.000000	-0.000000	5.051060	0.259420	-0.808780	-0.030701	0.758421	0.650755	-1.000000	-1.000000	-1.000000	-1.000000	-1.000000	-1.000000	-1.000000	138.965517	0.000000	-1.000000	-1.000000	521169.000000	1772919072.214679
-3100.500000	21563.820000	-19714.725000	-14593.995000	0.000000	0.000000	0.000000	0.000000	-46.579111	-54.107920	-65.700150	-74.148254	-0.000000	0.000000	0.000000	-0.000000	5.051060	0.259420	-0.808780	-0.030701	0.758421	0.650755	-1.000000	-1.000000	-1.000000	-1.000000	-1.000000	-1.000000	-1.000000	138.965517	0.000000	-1.000000	-1.000000	521170.000000	1772919072.214682
-3019.815000	21523.995000	-19608.480000	-14472.675000	0.000000	0.000000	0.000000	0.000000	3.014423	-1.075700	11.136961	6.741140	-0.000000	0.000000	0.000000	-0.000000	5.478340	0.885080	-0.671440	-0.029663	0.758360	0.650511	-1.000000	-1.000000	-1.000000	-1.000000	-1.000000	-1.000000	-1.000000	138.965517	0.000000	-1.000000	-1.000000	521171.000000	1772919072.218704
-3044.790000	21607.335000	-19643.895000	-14502.465000	0.000000	0.000000	0.000000	0.000000	52.067174	48.349444	81.785258	84.070732	-0.000000	0.000000	0.000000	-0.000000	5.478340	0.885080	-0.671440	-0.029663	0.758360	0.650511	-1.000000	-1.000000	-1.000000	-1.000000	-1.000000	-1.000000	-1.000000	138.965517	0.000000	-1.000000	-1.000000	521172.000000	1772919072.218707
-3078.000000	21618.855000	-19691.865000	-14557.365000	0.000000	0.000000	0.000000	0.000000	72.223335	75.820250	106.453809	114.408746	-0.000000	0.000000	0.000000	-0.000000	5.478340	0.885080	-0.671440	-0.029663	0.758360	0.650511	-1.000000	-1.000000	-1.000000	-1.000000	-1.000000	-1.000000	-1.000000	138.965517	0.000000	-1.000000	-1.000000	521173.000000	1772919072.222799
-3136.680000	21620.385000	-19775.115000	-14643.720000	0.000000	0.000000	0.000000	0.000000	50.599241	77.559531	70.531241	79.594390	-0.000000	0.000000	0.000000	-0.000000	5.478340	0.885080	-0.671440	-0.029663	0.758360	0.650511	-1.000000	-1.000000	-1.000000	-1.000000	-1.000000	-1.000000	-1.000000	138.965517	0.000000	-1.000000	-1.000000	521174.000000	1772919072.222801
-3230.415000	21649.725000	-19908.000000	-14784.750000	0.000000	0.000000	0.000000	0.000000	-0.825001	55.732552	-5.694699	-0.870993	-0.000000	0.000000	0.000000	-0.000000	5.478340	0.885080	-0.671440	-0.029663	0.758360	0.650511	-1.000000	-1.000000	-1.000000	-1.000000	-1.000000	-1.000000	-1.000000	138.965517	0.000000	-1.000000	-1.000000	521175.000000	1772919072.228789
-3236.985000	21668.850000	-19904.895000	-14788.530000	0.000000	0.000000	0.000000	0.000000	-53.772273	19.595331	-80.807016	-82.964488	-0.000000	0.000000	0.000000	-0.000000	5.478340	0.885080	-0.671440	-0.029663	0.758360	0.650511	-1.000000	-1.000000	-1.000000	-1.000000	-1.000000	-1.000000	-1.000000	138.965517	0.000000	-1.000000	-1.000000	521176.000000	1772919072.228792
-3211.425000	21733.245000	-19856.790000	-14740.155000	0.000000	0.000000	0.000000	0.000000	-78.668343	-15.722974	-113.142945	-121.062221	-0.000000	0.000000	0.000000	-0.000000	5.478340	0.885080	-0.671440	-0.029663	0.758360	0.650511	-1.000000	-1.000000	-1.000000	-1.000000	-1.000000	-1.000000	-1.000000	138.965517	0.000000	-1.000000	-1.000000	521177.000000	1772919072.231817
-3165.165000	21763.035000	-19788.075000	-14668.470000	0.000000	0.000000	0.000000	0.000000	-60.445741	-37.295155	-83.008918	-92.393083	-0.000000	0.000000	0.000000	-0.000000	5.478340	0.885080	-0.671440	-0.029663	0.758360	0.650511	-1.000000	-1.000000	-1.000000	-1.000000	-1.000000	-1.000000	-1.000000	138.965517	0.000000	-1.000000	-1.000000	521178.000000	1772919072.231820
-3083.805000	21796.695000	-19669.050000	-14538.825000	0.000000	0.000000	0.000000	0.000000	-8.257387	-41.578080	-6.132137	-11.924542	-0.000000	0.000000	0.000000	-0.000000	5.478340	0.885080	-0.671440	-0.029663	0.758360	0.650511	-1.000000	-1.000000	-1.000000	-1.000000	-1.000000	-1.000000	-1.000000	138.965517	0.000000	-1.000000	-1.000000	521179.000000	1772919072.235170
-3077.550000	21893.355000	-19662.345000	-14524.650000	0.000000	0.000000	0.000000	0.000000	50.137375	-33.070859	76.065367	77.095894	-0.000000	0.000000	0.000000	-0.000000	5.478340	0.885080	-0.671440	-0.029663	0.758360	0.650511	-1.000000	-1.000000	-1.000000	-1.000000	-1.000000	-1.000000	-1.000000	138.965517	0.000000	-1.000000	-1.000000	521180.000000	1772919072.235179
-3109.050000	21920.040000	-19713.870000	-14577.345000	0.000000	0.000000	0.000000	0.000000	83.072376	-17.933604	118.748448	126.249142	-0.000000	0.000000	0.000000	-0.000000	7.141680	0.595140	-0.579880	-0.030823	0.757200	0.651549	-1.000000	-1.000000	-1.000000	-1.000000	-1.000000	-1.000000	-1.000000	138.965517	0.000000	-1.000000	-1.000000	521181.000000	1772919072.241071
-3147.885000	21921.795000	-19773.990000	-14640.345000	0.000000	0.000000	0.000000	0.000000	72.327421	-4.171576	97.992709	107.997005	-0.000000	0.000000	0.000000	-0.000000	7.141680	0.595140	-0.579880	-0.030823	0.757200	0.651549	-1.000000	-1.000000	-1.000000	-1.000000	-1.000000	-1.000000	-1.000000	138.965517	0.000000	-1.000000	-1.000000	521182.000000	1772919072.241074
-3232.215000	21920.400000	-19899.495000	-14772.330000	0.000000	0.000000	0.000000	0.000000	24.328392	-0.592391	25.592561	32.724585	-0.000000	0.000000	0.000000	-0.000000	7.141680	0.595140	-0.579880	-0.030823	0.757200	0.651549	-1.000000	-1.000000	-1.000000	-1.000000	-1.000000	-1.000000	-1.000000	138.965517	0.000000	-1.000000	-1.000000	521183.000000	1772919072.242769
-3230.910000	21730.995000	-19903.770000	-14784.930000	0.000000	0.000000	0.000000	0.000000	-34.484020	-11.962937	-58.894205	-58.355326	-0.000000	0.000000	0.000000	-0.000000	7.141680	0.595140	-0.579880	-0.030823	0.757200	0.651549	-1.000000	-1.000000	-1.000000	-1.000000	-1.000000	-1.000000	-1.000000	138.965517	0.000000	-1.000000	-1.000000	521184.000000	1772919072.242798
-3188.250000	21618.810000	-19841.895000	-14722.020000	0.000000	0.000000	0.000000	0.000000	-71.817363	-37.540890	-109.193730	-115.391287	-0.000000	0.000000	0.000000	-0.000000	7.141680	0.595140	-0.579880	-0.030823	0.757200	0.651549	-1.000000	-1.000000	-1.000000	-1.000000	-1.000000	-1.000000	-1.000000	138.965517	0.000000	-1.000000	-1.000000	521185.000000	1772919072.247143
-3145.770000	21574.755000	-19781.055000	-14658.930000	0.000000	0.000000	0.000000	0.000000	-67.331361	-64.333236	-97.437936	-106.925448	-0.000000	0.000000	0.000000	-0.000000	7.141680	0.595140	-0.579880	-0.030823	0.757200	0.651549	-1.000000	-1.000000	-1.000000	-1.000000	-1.000000	-1.000000	-1.000000	138.965517	0.000000	-1.000000	-1.000000	521186.000000	1772919072.247146
-3068.055000	21555.360000	-19666.260000	-14538.240000	0.000000	0.000000	0.000000	0.000000	-25.727245	-67.653156	-32.208123	-39.900525	-0.000000	0.000000	0.000000	-0.000000	7.141680	0.595140	-0.579880	-0.030823	0.757200	0.651549	-1.000000	-1.000000	-1.000000	-1.000000	-1.000000	-1.000000	-1.000000	138.965517	0.000000	-1.000000	-1.000000	521187.000000	1772919072.250806
-3038.220000	21653.820000	-19624.860000	-14484.330000	0.000000	0.000000	0.000000	0.000000	27.755460	-31.217007	48.432483	46.508563	-0.000000	0.000000	0.000000	-0.000000	7.141680	0.595140	-0.579880	-0.030823	0.757200	0.651549	-1.000000	-1.000000	-1.000000	-1.000000	-1.000000	-1.000000	-1.000000	138.965517	0.000000	-1.000000	-1.000000	521188.000000	1772919072.250809
-3076.155000	21763.530000	-19685.970000	-14545.755000	0.000000	0.000000	0.000000	0.000000	62.714029	38.063832	99.434651	104.212915	-0.000000	0.000000	0.000000	-0.000000	7.141680	0.595140	-0.579880	-0.030823	0.757200	0.651549	-1.000000	-1.000000	-1.000000	-1.000000	-1.000000	-1.000000	-1.000000	138.965517	0.000000	-1.000000	-1.000000	521189.000000	1772919072.254926
-3108.735000	21780.540000	-19738.215000	-14602.320000	0.000000	0.000000	0.000000	0.000000	59.489955	110.651606	92.164244	100.924503	-0.000000	0.000000	0.000000	-0.000000	7.141680	0.595140	-0.579880	-0.030823	0.757200	0.651549	-1.000000	-1.000000	-1.000000	-1.000000	-1.000000	-1.000000	-1.000000	138.965517	0.000000	-1.000000	-1.000000	521190.000000	1772919072.254934
-3182.265000	21728.790000	-19839.510000	-14706.855000	0.000000	0.000000	0.000000	0.000000	20.740696	145.958609	31.763055	39.481939	-0.000000	0.000000	0.000000	-0.000000	5.569900	0.488320	-0.366240	-0.030151	0.758787	0.651243	-1.000000	-1.000000	-1.000000	-1.000000	-1.000000	-1.000000	-1.000000	138.965517	0.000000	-1.000000	-1.000000	521191.000000	1772919072.258948
-3259.800000	21795.390000	-19936.350000	-14815.800000	0.000000	0.000000	0.000000	0.000000	-31.674901	120.086694	-47.457786	-45.130407	-0.000000	0.000000	0.000000	-0.000000	5.569900	0.488320	-0.366240	-0.030151	0.758787	0.651243	-1.000000	-1.000000	-1.000000	-1.000000	-1.000000	-1.000000	-1.000000	138.965517	0.000000	-1.000000	-1.000000	521192.000000	1772919072.258951
-3230.685000	21804.075000	-19891.080000	-14773.095000	0.000000	0.000000	0.000000	0.000000	-69.832285	47.999746	-102.998706	-107.387433	-0.000000	0.000000	0.000000	-0.000000	5.569900	0.488320	-0.366240	-0.030151	0.758787	0.651243	-1.000000	-1.000000	-1.000000	-1.000000	-1.000000	-1.000000	-1.000000	138.965517	0.000000	-1.000000	-1.000000	521193.000000	1772919072.262856
-3195.495000	21743.235000	-19826.820000	-14704.560000	0.000000	0.000000	0.000000	0.000000	-71.783625	-32.334091	-103.638080	-112.379674	-0.000000	0.000000	0.000000	-0.000000	5.569900	0.488320	-0.366240	-0.030151	0.758787	0.651243	-1.000000	-1.000000	-1.000000	-1.000000	-1.000000	-1.000000	-1.000000	138.965517	0.000000	-1.000000	-1.000000	521194.000000	1772919072.262859
-3127.275000	21740.445000	-19730.610000	-14606.280000	0.000000	0.000000	0.000000	0.000000	-33.831041	-90.736309	-46.516346	-54.759973	-0.000000	0.000000	0.000000	-0.000000	5.569900	0.488320	-0.366240	-0.030151	0.758787	0.651243	-1.000000	-1.000000	-1.000000	-1.000000	-1.000000	-1.000000	-1.000000	138.965517	0.000000	-1.000000	-1.000000	521195.000000	1772919072.266834
-3051.045000	21749.310000	-19631.070000	-14494.995000	0.000000	0.000000	0.000000	0.000000	25.309411	-112.490956	38.766535	35.580307	-0.000000	0.000000	0.000000	-0.000000	5.569900	0.488320	-0.366240	-0.030151	0.758787	0.651243	-1.000000	-1.000000	-1.000000	-1.000000	-1.000000	-1.000000	-1.000000	138.965517	0.000000	-1.000000	-1.000000	521196.000000	1772919072.266837
-3083.805000	21849.255000	-19675.530000	-14535.270000	0.000000	0.000000	0.000000	0.000000	74.547165	-93.703508	106.437670	110.127906	-0.000000	0.000000	0.000000	-0.000000	5.569900	0.488320	-0.366240	-0.030151	0.758787	0.651243	-1.000000	-1.000000	-1.000000	-1.000000	-1.000000	-1.000000	-1.000000	138.965517	0.000000	-1.000000	-1.000000	521197.000000	1772919072.271035
-3142.080000	21980.430000	-19745.505000	-14611.140000	0.000000	0.000000	0.000000	0.000000	85.733868	-41.023349	118.188745	126.869285	-0.000000	0.000000	0.000000	-0.000000	5.569900	0.488320	-0.366240	-0.030151	0.758787	0.651243	-1.000000	-1.000000	-1.000000	-1.000000	-1.000000	-1.000000	-1.000000	138.965517	0.000000	-1.000000	-1.000000	521198.000000	1772919072.271039
-3209.895000	22107.960000	-19847.880000	-14716.530000	0.000000	0.000000	0.000000	0.000000	50.419460	27.053990	65.500391	74.405477	-0.000000	0.000000	0.000000	-0.000000	5.569900	0.488320	-0.366240	-0.030151	0.758787	0.651243	-1.000000	-1.000000	-1.000000	-1.000000	-1.000000	-1.000000	-1.000000	138.965517	0.000000	-1.000000	-1.000000	521199.000000	1772919072.275549
-3284.685000	22087.080000	-19951.695000	-14831.730000	0.000000	0.000000	0.000000	0.000000	-12.522863	80.963061	-23.384552	-19.185174	-0.000000	0.000000	0.000000	-0.000000	5.569900	0.488320	-0.366240	-0.030151	0.758787	0.651243	-1.000000	-1.000000	-1.000000	-1.000000	-1.000000	-1.000000	-1.000000	138.965517	0.000000	-1.000000	-1.000000	521200.000000	1772919072.275552
-3269.520000	21987.585000	-19917.495000	-14804.055000	0.000000	0.000000	0.000000	0.000000	-68.190336	89.496526	-99.827027	-102.639640	-0.000000	0.000000	0.000000	-0.000000	5.356260	0.335720	-1.175020	-0.028931	0.757505	0.650755	-1.000000	-1.000000	-1.000000	-1.000000	-1.000000	-1.000000	-1.000000	138.965517	0.000000	-1.000000	-1.000000	521201.000000	1772919072.278974
-3231.405000	21994.830000	-19866.465000	-14749.740000	0.000000	0.000000	0.000000	0.000000	-85.676535	43.191659	-121.221742	-129.531570	-0.000000	0.000000	0.000000	-0.000000	5.356260	0.335720	-1.175020	-0.028931	0.757505	0.650755	-1.000000	-1.000000	-1.000000	-1.000000	-1.000000	-1.000000	-1.000000	138.965517	0.000000	-1.000000	-1.000000	521202.000000	1772919072.279009
-3161.925000	21938.580000	-19782.270000	-14662.170000	0.000000	0.000000	0.000000	0.000000	-55.499194	-30.554065	-75.898538	-85.087760	-0.000000	0.000000	0.000000	-0.000000	5.356260	0.335720	-1.175020	-0.028931	0.757505	0.650755	-1.000000	-1.000000	-1.000000	-1.000000	-1.000000	-1.000000	-1.000000	138.965517	0.000000	-1.000000	-1.000000	521203.000000	1772919072.282884
-3061.845000	21899.250000	-19653.120000	-14523.885000	0.000000	0.000000	0.000000	0.000000	5.577914	-88.229131	10.284320	5.362966	-0.000000	0.000000	0.000000	-0.000000	5.356260	0.335720	-1.175020	-0.028931	0.757505	0.650755	-1.000000	-1.000000	-1.000000	-1.000000	-1.000000	-1.000000	-1.000000	138.965517	0.000000	-1.000000	-1.000000	521204.000000	1772919072.282887
-3048.030000	21836.385000	-19640.610000	-14499.090000	0.000000	0.000000	0.000000	0.000000	65.234269	-103.291975	91.527271	93.744285	-0.000000	0.000000	0.000000	-0.000000	5.356260	0.335720	-1.175020	-0.028931	0.757505	0.650755	-1.000000	-1.000000	-1.000000	-1.000000	-1.000000	-1.000000	-1.000000	138.965517	0.000000	-1.000000	-1.000000	521205.000000	1772919072.286892
-3091.635000	21850.290000	-19700.010000	-14561.010000	0.000000	0.000000	0.000000	0.000000	91.144006	-75.339994	124.905612	133.437864	-0.000000	0.000000	0.000000	-0.000000	5.356260	0.335720	-1.175020	-0.028931	0.757505	0.650755	-1.000000	-1.000000	-1.000000	-1.000000	-1.000000	-1.000000	-1.000000	138.965517	0.000000	-1.000000	-1.000000	521206.000000	1772919072.286895
-3140.370000	21876.795000	-19768.275000	-14636.790000	0.000000	0.000000	0.000000	0.000000	67.603968	-19.832437	91.442453	101.887675	-0.000000	0.000000	0.000000	-0.000000	5.356260	0.335720	-1.175020	-0.028931	0.757505	0.650755	-1.000000	-1.000000	-1.000000	-1.000000	-1.000000	-1.000000	-1.000000	138.965517	0.000000	-1.000000	-1.000000	521207.000000	1772919072.290746
-3222.540000	21841.830000	-19892.025000	-14767.155000	0.000000	0.000000	0.000000	0.000000	6.524104	40.699438	8.538655	15.041087	-0.000000	0.000000	0.000000	-0.000000	5.356260	0.335720	-1.175020	-0.028931	0.757505	0.650755	-1.000000	-1.000000	-1.000000	-1.000000	-1.000000	-1.000000	-1.000000	138.965517	0.000000	-1.000000	-1.000000	521208.000000	1772919072.290749
-3236.850000	21773.835000	-19909.890000	-14793.795000	0.000000	0.000000	0.000000	0.000000	-59.324528	80.855038	-79.914218	-81.146724	-0.000000	0.000000	0.000000	-0.000000	5.356260	0.335720	-1.175020	-0.028931	0.757505	0.650755	-1.000000	-1.000000	-1.000000	-1.000000	-1.000000	-1.000000	-1.000000	138.965517	0.000000	-1.000000	-1.000000	521209.000000	1772919072.297498
-3206.430000	21786.030000	-19860.030000	-14742.765000	0.000000	0.000000	0.000000	0.000000	-94.814612	84.739099	-126.878320	-135.281101	-0.000000	0.000000	0.000000	-0.000000	5.356260	0.335720	-1.175020	-0.028931	0.757505	0.650755	-1.000000	-1.000000	-1.000000	-1.000000	-1.000000	-1.000000	-1.000000	138.965517	0.000000	-1.000000	-1.000000	521210.000000	1772919072.297502
-3145.590000	21672.630000	-19780.065000	-14659.065000	0.000000	0.000000	0.000000	0.000000	-81.066662	56.749579	-106.670585	-117.714204	-0.000000	0.000000	0.000000	-0.000000	5.768280	0.625660	-1.571780	-0.029236	0.759459	0.650572	-1.000000	-1.000000	-1.000000	-1.000000	-1.000000	-1.000000	-1.000000	138.965517	0.000000	-1.000000	-1.000000	521211.000000	1772919072.299004
-3061.620000	21621.420000	-19656.090000	-14527.665000	0.000000	0.000000	0.000000	0.000000	-25.799588	13.656872	-30.232591	-38.039150	-0.000000	0.000000	0.000000	-0.000000	5.768280	0.625660	-1.571780	-0.029236	0.759459	0.650572	-1.000000	-1.000000	-1.000000	-1.000000	-1.000000	-1.000000	-1.000000	138.965517	0.000000	-1.000000	-1.000000	521212.000000	1772919072.299006
-3033.630000	21690.135000	-19617.795000	-14478.615000	0.000000	0.000000	0.000000	0.000000	41.415532	-23.922928	61.355951	60.805138	-0.000000	0.000000	0.000000	-0.000000	5.768280	0.625660	-1.571780	-0.029236	0.759459	0.650572	-1.000000	-1.000000	-1.000000	-1.000000	-1.000000	-1.000000	-1.000000	138.965517	0.000000	-1.000000	-1.000000	521213.000000	1772919072.303022
-3047.580000	21623.895000	-19650.555000	-14512.590000	0.000000	0.000000	0.000000	0.000000	85.063040	-37.481786	119.039186	125.890308	-0.000000	0.000000	0.000000	-0.000000	5.768280	0.625660	-1.571780	-0.029236	0.759459	0.650572	-1.000000	-1.000000	-1.000000	-1.000000	-1.000000	-1.000000	-1.000000	138.965517	0.000000	-1.000000	-1.000000	521214.000000	1772919072.303025
-3082.770000	21573.765000	-19707.390000	-14572.710000	0.000000	0.000000	0.000000	0.000000	82.874906	-26.487013	112.063921	122.497822	-0.000000	0.000000	0.000000	-0.000000	5.768280	0.625660	-1.571780	-0.029236	0.759459	0.650572	-1.000000	-1.000000	-1.000000	-1.000000	-1.000000	-1.000000	-1.000000	138.965517	0.000000	-1.000000	-1.000000	521215.000000	1772919072.307555
-3178.440000	21631.725000	-19839.330000	-14709.420000	0.000000	0.000000	0.000000	0.000000	37.581312	-6.399680	45.302194	53.634358	-0.000000	0.000000	0.000000	-0.000000	5.768280	0.625660	-1.571780	-0.029236	0.759459	0.650572	-1.000000	-1.000000	-1.000000	-1.000000	-1.000000	-1.000000	-1.000000	138.965517	0.000000	-1.000000	-1.000000	521216.000000	1772919072.307557
-3251.655000	21721.770000	-19926.945000	-14811.030000	0.000000	0.000000	0.000000	0.000000	-27.165752	13.494835	-45.861787	-44.010143	-0.000000	0.000000	0.000000	-0.000000	5.768280	0.625660	-1.571780	-0.029236	0.759459	0.650572	-1.000000	-1.000000	-1.000000	-1.000000	-1.000000	-1.000000	-1.000000	138.965517	0.000000	-1.000000	-1.000000	521217.000000	1772919072.311038
-3234.195000	21799.620000	-19889.505000	-14775.165000	0.000000	0.000000	0.000000	0.000000	-78.653074	33.033414	-114.022150	-119.604344	-0.000000	0.000000	0.000000	-0.000000	5.768280	0.625660	-1.571780	-0.029236	0.759459	0.650572	-1.000000	-1.000000	-1.000000	-1.000000	-1.000000	-1.000000	-1.000000	138.965517	0.000000	-1.000000	-1.000000	521218.000000	1772919072.311041
-3197.655000	21815.325000	-19833.030000	-14714.865000	0.000000	0.000000	0.000000	0.000000	-89.008804	47.023978	-121.618833	-131.663709	-0.000000	0.000000	0.000000	-0.000000	5.768280	0.625660	-1.571780	-0.029236	0.759459	0.650572	-1.000000	-1.000000	-1.000000	-1.000000	-1.000000	-1.000000	-1.000000	138.965517	0.000000	-1.000000	-1.000000	521219.000000	1772919072.315113
-3112.245000	21738.015000	-19715.805000	-14592.780000	0.000000	0.000000	0.000000	0.000000	-51.164228	41.972000	-63.038149	-72.039932	-0.000000	0.000000	0.000000	-0.000000	5.768280	0.625660	-1.571780	-0.029236	0.759459	0.650572	-1.000000	-1.000000	-1.000000	-1.000000	-1.000000	-1.000000	-1.000000	138.965517	0.000000	-1.000000	-1.000000	521220.000000	1772919072.315115
-3024.630000	21630.510000	-19607.535000	-14470.695000	0.000000	0.000000	0.000000	0.000000	15.845965	8.021869	31.009763	28.055965	-0.000000	0.000000	0.000000	-0.000000	5.630940	1.068200	-1.281840	-0.029480	0.760252	0.650206	-1.000000	-1.000000	-1.000000	-1.000000	-1.000000	-1.000000	-1.000000	138.965517	0.000000	-1.000000	-1.000000	521221.000000	1772919072.319055
-3066.705000	21754.800000	-19664.370000	-14525.865000	0.000000	0.000000	0.000000	0.000000	76.511478	-42.869662	110.237925	115.103756	-0.000000	0.000000	0.000000	-0.000000	5.630940	1.068200	-1.281840	-0.029480	0.760252	0.650206	-1.000000	-1.000000	-1.000000	-1.000000	-1.000000	-1.000000	-1.000000	138.965517	0.000000	-1.000000	-1.000000	521222.000000	1772919072.319059
-3113.820000	21859.785000	-19730.880000	-14596.830000	0.000000	0.000000	0.000000	0.000000	96.106762	-74.791791	129.804112	139.933240	-0.000000	0.000000	0.000000	-0.000000	5.630940	1.068200	-1.281840	-0.029480	0.760252	0.650206	-1.000000	-1.000000	-1.000000	-1.000000	-1.000000	-1.000000	-1.000000	138.965517	0.000000	-1.000000	-1.000000	521223.000000	1772919072.325832
-3187.755000	21926.160000	-19833.795000	-14703.525000	0.000000	0.000000	0.000000	0.000000	62.367883	-60.343844	77.643139	87.417554	-0.000000	0.000000	0.000000	-0.000000	5.630940	1.068200	-1.281840	-0.029480	0.760252	0.650206	-1.000000	-1.000000	-1.000000	-1.000000	-1.000000	-1.000000	-1.000000	138.965517	0.000000	-1.000000	-1.000000	521224.000000	1772919072.325834
-3271.140000	21960.495000	-19947.825000	-14828.670000	0.000000	0.000000	0.000000	0.000000	-5.185716	-11.071074	-16.476941	-12.407337	-0.000000	0.000000	0.000000	-0.000000	5.630940	1.068200	-1.281840	-0.029480	0.760252	0.650206	-1.000000	-1.000000	-1.000000	-1.000000	-1.000000	-1.000000	-1.000000	138.965517	0.000000	-1.000000	-1.000000	521225.000000	1772919072.328669
-3248.325000	21910.590000	-19911.690000	-14798.115000	0.000000	0.000000	0.000000	0.000000	-68.340011	34.531560	-100.115829	-103.878327	-0.000000	0.000000	0.000000	-0.000000	5.630940	1.068200	-1.281840	-0.029480	0.760252	0.650206	-1.000000	-1.000000	-1.000000	-1.000000	-1.000000	-1.000000	-1.000000	138.965517	0.000000	-1.000000	-1.000000	521226.000000	1772919072.328672
-3203.325000	21850.965000	-19847.970000	-14730.255000	0.000000	0.000000	0.000000	0.000000	-91.725169	44.340847	-126.722734	-136.224596	-0.000000	0.000000	0.000000	-0.000000	5.630940	1.068200	-1.281840	-0.029480	0.760252	0.650206	-1.000000	-1.000000	-1.000000	-1.000000	-1.000000	-1.000000	-1.000000	138.965517	0.000000	-1.000000	-1.000000	521227.000000	1772919072.331778
-3151.170000	21852.180000	-19769.220000	-14649.660000	0.000000	0.000000	0.000000	0.000000	-63.100617	15.618066	-82.126464	-92.184881	-0.000000	0.000000	0.000000	-0.000000	5.630940	1.068200	-1.281840	-0.029480	0.760252	0.650206	-1.000000	-1.000000	-1.000000	-1.000000	-1.000000	-1.000000	-1.000000	138.965517	0.000000	-1.000000	-1.000000	521228.000000	1772919072.331781
-3062.385000	21853.170000	-19645.695000	-14515.155000	0.000000	0.000000	0.000000	0.000000	-0.532417	-25.562096	6.821840	1.566052	-0.000000	0.000000	0.000000	-0.000000	5.630940	1.068200	-1.281840	-0.029480	0.760252	0.650206	-1.000000	-1.000000	-1.000000	-1.000000	-1.000000	-1.000000	-1.000000	138.965517	0.000000	-1.000000	-1.000000	521229.000000	1772919072.339517
-3058.605000	21874.995000	-19654.740000	-14515.425000	0.000000	0.000000	0.000000	0.000000	60.840031	-47.984071	90.728112	93.008065	-0.000000	0.000000	0.000000	-0.000000	5.630940	1.068200	-1.281840	-0.029480	0.760252	0.650206	-1.000000	-1.000000	-1.000000	-1.000000	-1.000000	-1.000000	-1.000000	138.965517	0.000000	-1.000000	-1.000000	521230.000000	1772919072.339521
-3090.015000	21890.115000	-19709.505000	-14573.655000	0.000000	0.000000	0.000000	0.000000	88.225815	-38.751098	124.269662	132.914394	-0.000000	0.000000	0.000000	-0.000000	5.279960	0.427280	-0.961380	-0.030029	0.759092	0.649840	-1.000000	-1.000000	-1.000000	-1.000000	-1.000000	-1.000000	-1.000000	138.965517	0.000000	-1.000000	-1.000000	521231.000000	1772919072.339525
-3130.740000	21850.470000	-19771.380000	-14640.390000	0.000000	0.000000	0.000000	0.000000	67.659848	-8.191521	89.790645	100.143218	-0.000000	0.000000	0.000000	-0.000000	5.279960	0.427280	-0.961380	-0.030029	0.759092	0.649840	-1.000000	-1.000000	-1.000000	-1.000000	-1.000000	-1.000000	-1.000000	138.965517	0.000000	-1.000000	-1.000000	521232.000000	1772919072.339528
-3221.505000	21802.455000	-19895.310000	-14771.295000	0.000000	0.000000	0.000000	0.000000	11.386392	20.888765	7.620558	14.006362	-0.000000	0.000000	0.000000	-0.000000	5.279960	0.427280	-0.961380	-0.030029	0.759092	0.649840	-1.000000	-1.000000	-1.000000	-1.000000	-1.000000	-1.000000	-1.000000	138.965517	0.000000	-1.000000	-1.000000	521233.000000	1772919072.343072
-3231.945000	21730.905000	-19898.640000	-14784.435000	0.000000	0.000000	0.000000	0.000000	-50.535595	30.478364	-77.619838	-78.629811	-0.000000	0.000000	0.000000	-0.000000	5.279960	0.427280	-0.961380	-0.030029	0.759092	0.649840	-1.000000	-1.000000	-1.000000	-1.000000	-1.000000	-1.000000	-1.000000	138.965517	0.000000	-1.000000	-1.000000	521234.000000	1772919072.343075
-3192.930000	21655.935000	-19835.910000	-14717.565000	0.000000	0.000000	0.000000	0.000000	-85.497532	18.362573	-120.460199	-128.219109	-0.000000	0.000000	0.000000	-0.000000	5.279960	0.427280	-0.961380	-0.030029	0.759092	0.649840	-1.000000	-1.000000	-1.000000	-1.000000	-1.000000	-1.000000	-1.000000	138.965517	0.000000	-1.000000	-1.000000	521235.000000	1772919072.347122
-3137.490000	21584.160000	-19768.455000	-14645.745000	0.000000	0.000000	0.000000	0.000000	-74.443189	-4.098504	-97.723754	-107.848779	-0.000000	0.000000	0.000000	-0.000000	5.279960	0.427280	-0.961380	-0.030029	0.759092	0.649840	-1.000000	-1.000000	-1.000000	-1.000000	-1.000000	-1.000000	-1.000000	138.965517	0.000000	-1.000000	-1.000000	521236.000000	1772919072.347124
-3043.215000	21533.490000	-19638.270000	-14510.115000	0.000000	0.000000	0.000000	0.000000	-23.502376	-21.313087	-22.822974	-29.697444	-0.000000	0.000000	0.000000	-0.000000	5.279960	0.427280	-0.961380	-0.030029	0.759092	0.649840	-1.000000	-1.000000	-1.000000	-1.000000	-1.000000	-1.000000	-1.000000	138.965517	0.000000	-1.000000	-1.000000	521237.000000	1772919072.351043
-3020.940000	21560.310000	-19609.785000	-14469.570000	0.000000	0.000000	0.000000	0.000000	39.448044	-21.350490	63.049603	63.035867	-0.000000	0.000000	0.000000	-0.000000	5.279960	0.427280	-0.961380	-0.030029	0.759092	0.649840	-1.000000	-1.000000	-1.000000	-1.000000	-1.000000	-1.000000	-1.000000	138.965517	0.000000	-1.000000	-1.000000	521238.000000	1772919072.351046
-3032.145000	21457.935000	-19640.655000	-14500.980000	0.000000	0.000000	0.000000	0.000000	80.074729	-2.832735	113.681022	120.396348	-0.000000	0.000000	0.000000	-0.000000	5.279960	0.427280	-0.961380	-0.030029	0.759092	0.649840	-1.000000	-1.000000	-1.000000	-1.000000	-1.000000	-1.000000	-1.000000	138.965517	0.000000	-1.000000	-1.000000	521239.000000	1772919072.355086
-3057.030000	21335.535000	-19687.635000	-14552.505000	0.000000	0.000000	0.000000	0.000000	76.729229	19.697835	102.104296	111.834850	-0.000000	0.000000	0.000000	-0.000000	5.279960	0.427280	-0.961380	-0.030029	0.759092	0.649840	-1.000000	-1.000000	-1.000000	-1.000000	-1.000000	-1.000000	-1.000000	138.965517	0.000000	-1.000000	-1.000000	521240.000000	1772919072.355089
-3145.815000	21323.520000	-19817.685000	-14686.155000	0.000000	0.000000	0.000000	0.000000	32.594962	28.254574	35.679647	43.062973	-0.000000	0.000000	0.000000	-0.000000	5.005280	0.701960	-1.037680	-0.031006	0.760191	0.649962	-1.000000	-1.000000	-1.000000	-1.000000	-1.000000	-1.000000	-1.000000	138.965517	0.000000	-1.000000	-1.000000	521241.000000	1772919072.361348
-3185.325000	21274.245000	-19872.630000	-14753.520000	0.000000	0.000000	0.000000	0.000000	-28.641363	21.916985	-50.326013	-49.298639	-0.000000	0.000000	0.000000	-0.000000	5.005280	0.701960	-1.037680	-0.031006	0.760191	0.649962	-1.000000	-1.000000	-1.000000	-1.000000	-1.000000	-1.000000	-1.000000	138.965517	0.000000	-1.000000	-1.000000	521242.000000	1772919072.361350
-3132.180000	21058.875000	-19792.305000	-14672.655000	0.000000	0.000000	0.000000	0.000000	-74.652877	9.443844	-110.140180	-116.050476	-0.000000	0.000000	0.000000	-0.000000	5.005280	0.701960	-1.037680	-0.031006	0.760191	0.649962	-1.000000	-1.000000	-1.000000	-1.000000	-1.000000	-1.000000	-1.000000	138.965517	0.000000	-1.000000	-1.000000	521243.000000	1772919072.363146
-3090.555000	20931.165000	-19728.630000	-14604.615000	0.000000	0.000000	0.000000	0.000000	-79.398281	-8.087930	-109.070124	-118.757910	-0.000000	0.000000	0.000000	-0.000000	5.005280	0.701960	-1.037680	-0.031006	0.760191	0.649962	-1.000000	-1.000000	-1.000000	-1.000000	-1.000000	-1.000000	-1.000000	138.965517	0.000000	-1.000000	-1.000000	521244.000000	1772919072.363149
-3016.620000	20859.210000	-19616.355000	-14489.010000	0.000000	0.000000	0.000000	0.000000	-40.284501	-27.757909	-46.869056	-55.063747	-0.000000	0.000000	0.000000	-0.000000	5.005280	0.701960	-1.037680	-0.031006	0.760191	0.649962	-1.000000	-1.000000	-1.000000	-1.000000	-1.000000	-1.000000	-1.000000	138.965517	0.000000	-1.000000	-1.000000	521245.000000	1772919072.367051
-2986.785000	20965.095000	-19554.615000	-14416.425000	0.000000	0.000000	0.000000	0.000000	19.119844	-32.051084	40.501044	38.143069	-0.000000	0.000000	0.000000	-0.000000	5.005280	0.701960	-1.037680	-0.031006	0.760191	0.649962	-1.000000	-1.000000	-1.000000	-1.000000	-1.000000	-1.000000	-1.000000	138.965517	0.000000	-1.000000	-1.000000	521246.000000	1772919072.367055
-3022.245000	21099.510000	-19615.590000	-14478.570000	0.000000	0.000000	0.000000	0.000000	64.351673	-2.103799	103.398055	107.942724	-0.000000	0.000000	0.000000	-0.000000	5.005280	0.701960	-1.037680	-0.031006	0.760191	0.649962	-1.000000	-1.000000	-1.000000	-1.000000	-1.000000	-1.000000	-1.000000	138.965517	0.000000	-1.000000	-1.000000	521247.000000	1772919072.371247
-3063.195000	21203.910000	-19688.355000	-14553.945000	0.000000	0.000000	0.000000	0.000000	70.227285	57.515529	105.926763	114.676113	-0.000000	0.000000	0.000000	-0.000000	5.005280	0.701960	-1.037680	-0.031006	0.760191	0.649962	-1.000000	-1.000000	-1.000000	-1.000000	-1.000000	-1.000000	-1.000000	138.965517	0.000000	-1.000000	-1.000000	521248.000000	1772919072.371264
-3128.850000	21231.135000	-19789.650000	-14657.085000	0.000000	0.000000	0.000000	0.000000	35.571257	112.112191	47.291147	55.390916	-0.000000	0.000000	0.000000	-0.000000	5.005280	0.701960	-1.037680	-0.031006	0.760191	0.649962	-1.000000	-1.000000	-1.000000	-1.000000	-1.000000	-1.000000	-1.000000	138.965517	0.000000	-1.000000	-1.000000	521249.000000	1772919072.375197
-3202.965000	21214.530000	-19886.175000	-14765.445000	0.000000	0.000000	0.000000	0.000000	-18.160363	120.319375	-38.149539	-34.873643	-0.000000	0.000000	0.000000	-0.000000	5.005280	0.701960	-1.037680	-0.031006	0.760191	0.649962	-1.000000	-1.000000	-1.000000	-1.000000	-1.000000	-1.000000	-1.000000	138.965517	0.000000	-1.000000	-1.000000	521250.000000	1772919072.375200
-3151.620000	20996.055000	-19820.880000	-14702.445000	0.000000	0.000000	0.000000	0.000000	-60.512283	63.555045	-102.049611	-105.079450	-0.000000	0.000000	0.000000	-0.000000	4.425400	0.015260	-0.640920	-0.030640	0.760618	0.649046	-1.000000	-1.000000	-1.000000	-1.000000	-1.000000	-1.000000	-1.000000	138.965517	0.000000	-1.000000	-1.000000	521251.000000	1772919072.379237
-3115.395000	20936.115000	-19765.305000	-14643.945000	0.000000	0.000000	0.000000	0.000000	-66.674794	-41.015164	-107.425715	-114.940798	-0.000000	0.000000	0.000000	-0.000000	4.425400	0.015260	-0.640920	-0.030640	0.760618	0.649046	-1.000000	-1.000000	-1.000000	-1.000000	-1.000000	-1.000000	-1.000000	138.965517	0.000000	-1.000000	-1.000000	521252.000000	1772919072.379240
-3042.495000	20829.060000	-19665.045000	-14540.715000	0.000000	0.000000	0.000000	0.000000	-32.166016	-144.083916	-50.504595	-58.248120	-0.000000	0.000000	0.000000	-0.000000	4.425400	0.015260	-0.640920	-0.030640	0.760618	0.649046	-1.000000	-1.000000	-1.000000	-1.000000	-1.000000	-1.000000	-1.000000	138.965517	0.000000	-1.000000	-1.000000	521253.000000	1772919072.383253
-2968.020000	20816.145000	-19556.595000	-14422.005000	0.000000	0.000000	0.000000	0.000000	23.379801	-191.106889	36.609426	32.957173	-0.000000	0.000000	0.000000	-0.000000	4.425400	0.015260	-0.640920	-0.030640	0.760618	0.649046	-1.000000	-1.000000	-1.000000	-1.000000	-1.000000	-1.000000	-1.000000	138.965517	0.000000	-1.000000	-1.000000	521254.000000	1772919072.383256
-2975.265000	20827.665000	-19573.740000	-14431.815000	0.000000	0.000000	0.000000	0.000000	68.986694	-157.484457	106.561423	109.093975	-0.000000	0.000000	0.000000	-0.000000	4.425400	0.015260	-0.640920	-0.030640	0.760618	0.649046	-1.000000	-1.000000	-1.000000	-1.000000	-1.000000	-1.000000	-1.000000	138.965517	0.000000	-1.000000	-1.000000	521255.000000	1772919072.387278
-3016.710000	20839.995000	-19634.220000	-14496.165000	0.000000	0.000000	0.000000	0.000000	78.628354	-60.773860	120.989875	128.501890	-0.000000	0.000000	0.000000	-0.000000	4.425400	0.015260	-0.640920	-0.030640	0.760618	0.649046	-1.000000	-1.000000	-1.000000	-1.000000	-1.000000	-1.000000	-1.000000	138.965517	0.000000	-1.000000	-1.000000	521256.000000	1772919072.387281
-3094.065000	20961.585000	-19733.220000	-14598.135000	0.000000	0.000000	0.000000	0.000000	44.834823	54.240018	70.313495	78.714785	-0.000000	0.000000	0.000000	-0.000000	4.425400	0.015260	-0.640920	-0.030640	0.760618	0.649046	-1.000000	-1.000000	-1.000000	-1.000000	-1.000000	-1.000000	-1.000000	138.965517	0.000000	-1.000000	-1.000000	521257.000000	1772919072.391253
-3203.190000	21094.155000	-19882.170000	-14756.265000	0.000000	0.000000	0.000000	0.000000	-16.596530	143.742694	-20.274156	-15.747012	-0.000000	0.000000	0.000000	-0.000000	4.425400	0.015260	-0.640920	-0.030640	0.760618	0.649046	-1.000000	-1.000000	-1.000000	-1.000000	-1.000000	-1.000000	-1.000000	138.965517	0.000000	-1.000000	-1.000000	521258.000000	1772919072.391255
-3207.510000	21092.580000	-19881.765000	-14764.500000	0.000000	0.000000	0.000000	0.000000	-74.674035	180.300334	-104.678203	-106.747905	-0.000000	0.000000	0.000000	-0.000000	4.425400	0.015260	-0.640920	-0.030640	0.760618	0.649046	-1.000000	-1.000000	-1.000000	-1.000000	-1.000000	-1.000000	-1.000000	138.965517	0.000000	-1.000000	-1.000000	521259.000000	1772919072.395262
-3189.960000	21189.960000	-19840.365000	-14721.705000	0.000000	0.000000	0.000000	0.000000	-97.610070	153.978348	-137.626679	-145.495330	-0.000000	0.000000	0.000000	-0.000000	4.425400	0.015260	-0.640920	-0.030640	0.760618	0.649046	-1.000000	-1.000000	-1.000000	-1.000000	-1.000000	-1.000000	-1.000000	138.965517	0.000000	-1.000000	-1.000000	521260.000000	1772919072.395265
-3138.345000	21186.180000	-19767.105000	-14643.405000	0.000000	0.000000	0.000000	0.000000	-70.708493	77.543896	-99.213580	-108.809684	-0.000000	0.000000	0.000000	-0.000000	3.952340	0.427280	-0.595140	-0.030090	0.761167	0.649046	-1.000000	-1.000000	-1.000000	-1.000000	-1.000000	-1.000000	-1.000000	138.965517	0.000000	-1.000000	-1.000000	521261.000000	1772919072.399327
-3031.785000	21104.730000	-19621.845000	-14491.125000	0.000000	0.000000	0.000000	0.000000	-6.220873	-19.046976	-8.382440	-14.478140	-0.000000	0.000000	0.000000	-0.000000	3.952340	0.427280	-0.595140	-0.030090	0.761167	0.649046	-1.000000	-1.000000	-1.000000	-1.000000	-1.000000	-1.000000	-1.000000	138.965517	0.000000	-1.000000	-1.000000	521262.000000	1772919072.399329
-3003.525000	21096.495000	-19591.020000	-14453.595000	0.000000	0.000000	0.000000	0.000000	64.405649	-104.721221	88.915056	89.680275	-0.000000	0.000000	0.000000	-0.000000	3.952340	0.427280	-0.595140	-0.030090	0.761167	0.649046	-1.000000	-1.000000	-1.000000	-1.000000	-1.000000	-1.000000	-1.000000	138.965517	0.000000	-1.000000	-1.000000	521263.000000	1772919072.403295
-3047.355000	21151.575000	-19649.880000	-14516.955000	0.000000	0.000000	0.000000	0.000000	105.243862	-151.713619	142.479652	149.613359	-0.000000	0.000000	0.000000	-0.000000	3.952340	0.427280	-0.595140	-0.030090	0.761167	0.649046	-1.000000	-1.000000	-1.000000	-1.000000	-1.000000	-1.000000	-1.000000	138.965517	0.000000	-1.000000	-1.000000	521264.000000	1772919072.403298
-3094.290000	21184.785000	-19717.110000	-14585.715000	0.000000	0.000000	0.000000	0.000000	93.420623	-141.995757	122.808502	132.245113	-0.000000	0.000000	0.000000	-0.000000	3.952340	0.427280	-0.595140	-0.030090	0.761167	0.649046	-1.000000	-1.000000	-1.000000	-1.000000	-1.000000	-1.000000	-1.000000	138.965517	0.000000	-1.000000	-1.000000	521265.000000	1772919072.407283
-3175.245000	21166.245000	-19842.255000	-14714.595000	0.000000	0.000000	0.000000	0.000000	34.639497	-83.321309	40.218830	46.891664	-0.000000	0.000000	0.000000	-0.000000	3.952340	0.427280	-0.595140	-0.030090	0.761167	0.649046	-1.000000	-1.000000	-1.000000	-1.000000	-1.000000	-1.000000	-1.000000	138.965517	0.000000	-1.000000	-1.000000	521266.000000	1772919072.407285
-3189.240000	21015.315000	-19866.870000	-14750.055000	0.000000	0.000000	0.000000	0.000000	-39.165418	-11.156155	-60.666517	-59.916506	-0.000000	0.000000	0.000000	-0.000000	3.952340	0.427280	-0.595140	-0.030090	0.761167	0.649046	-1.000000	-1.000000	-1.000000	-1.000000	-1.000000	-1.000000	-1.000000	138.965517	0.000000	-1.000000	-1.000000	521267.000000	1772919072.411299
-3161.790000	20985.120000	-19819.305000	-14702.265000	0.000000	0.000000	0.000000	0.000000	-88.605723	35.605840	-125.946559	-131.133650	-0.000000	0.000000	0.000000	-0.000000	3.952340	0.427280	-0.595140	-0.030090	0.761167	0.649046	-1.000000	-1.000000	-1.000000	-1.000000	-1.000000	-1.000000	-1.000000	138.965517	0.000000	-1.000000	-1.000000	521268.000000	1772919072.411302
-3142.215000	21062.565000	-19779.660000	-14658.975000	0.000000	0.000000	0.000000	0.000000	-89.470150	47.389947	-122.235108	-130.416674	-0.000000	0.000000	0.000000	-0.000000	3.952340	0.427280	-0.595140	-0.030090	0.761167	0.649046	-1.000000	-1.000000	-1.000000	-1.000000	-1.000000	-1.000000	-1.000000	138.965517	0.000000	-1.000000	-1.000000	521269.000000	1772919072.415294
-3071.745000	21107.475000	-19672.695000	-14545.845000	0.000000	0.000000	0.000000	0.000000	-45.985852	45.815756	-56.051840	-62.706700	-0.000000	0.000000	0.000000	-0.000000	3.952340	0.427280	-0.595140	-0.030090	0.761167	0.649046	-1.000000	-1.000000	-1.000000	-1.000000	-1.000000	-1.000000	-1.000000	138.965517	0.000000	-1.000000	-1.000000	521270.000000	1772919072.415297
-3024.270000	21167.730000	-19605.330000	-14467.455000	0.000000	0.000000	0.000000	0.000000	15.792523	50.941924	34.077585	32.663083	-0.000000	0.000000	0.000000	-0.000000	3.738700	0.289940	-1.068200	-0.030945	0.761534	0.648253	-1.000000	-1.000000	-1.000000	-1.000000	-1.000000	-1.000000	-1.000000	138.965517	0.000000	-1.000000	-1.000000	521271.000000	1772919072.419284
-3069.315000	21322.080000	-19666.980000	-14530.365000	0.000000	0.000000	0.000000	0.000000	63.642794	62.800635	100.603452	105.280244	-0.000000	0.000000	0.000000	-0.000000	3.738700	0.289940	-1.068200	-0.030945	0.761534	0.648253	-1.000000	-1.000000	-1.000000	-1.000000	-1.000000	-1.000000	-1.000000	138.965517	0.000000	-1.000000	-1.000000	521272.000000	1772919072.419287
-3120.840000	21450.510000	-19736.595000	-14603.760000	0.000000	0.000000	0.000000	0.000000	72.982527	71.985080	108.680552	116.772627	-0.000000	0.000000	0.000000	-0.000000	3.738700	0.289940	-1.068200	-0.030945	0.761534	0.648253	-1.000000	-1.000000	-1.000000	-1.000000	-1.000000	-1.000000	-1.000000	138.965517	0.000000	-1.000000	-1.000000	521273.000000	1772919072.423068
-3194.685000	21500.595000	-19844.010000	-14715.180000	0.000000	0.000000	0.000000	0.000000	40.213482	67.875172	55.458888	62.212801	-0.000000	0.000000	0.000000	-0.000000	3.738700	0.289940	-1.068200	-0.030945	0.761534	0.648253	-1.000000	-1.000000	-1.000000	-1.000000	-1.000000	-1.000000	-1.000000	138.965517	0.000000	-1.000000	-1.000000	521274.000000	1772919072.423071
-3267.945000	21539.610000	-19941.030000	-14824.485000	0.000000	0.000000	0.000000	0.000000	-14.548688	40.655874	-27.687374	-26.228882	-0.000000	0.000000	0.000000	-0.000000	3.738700	0.289940	-1.068200	-0.030945	0.761534	0.648253	-1.000000	-1.000000	-1.000000	-1.000000	-1.000000	-1.000000	-1.000000	138.965517	0.000000	-1.000000	-1.000000	521275.000000	1772919072.428238
-3239.370000	21530.295000	-19896.795000	-14783.220000	0.000000	0.000000	0.000000	0.000000	-59.710839	-9.700738	-93.916617	-98.796860	-0.000000	0.000000	0.000000	-0.000000	3.738700	0.289940	-1.068200	-0.030945	0.761534	0.648253	-1.000000	-1.000000	-1.000000	-1.000000	-1.000000	-1.000000	-1.000000	138.965517	0.000000	-1.000000	-1.000000	521276.000000	1772919072.428242
-3199.365000	21518.685000	-19839.240000	-14722.425000	0.000000	0.000000	0.000000	0.000000	-68.801631	-68.149923	-105.331808	-114.132556	-0.000000	0.000000	0.000000	-0.000000	3.738700	0.289940	-1.068200	-0.030945	0.761534	0.648253	-1.000000	-1.000000	-1.000000	-1.000000	-1.000000	-1.000000	-1.000000	138.965517	0.000000	-1.000000	-1.000000	521277.000000	1772919072.431294
-3146.760000	21566.115000	-19754.865000	-14634.495000	0.000000	0.000000	0.000000	0.000000	-36.032548	-110.768637	-55.089464	-63.069318	-0.000000	0.000000	0.000000	-0.000000	3.738700	0.289940	-1.068200	-0.030945	0.761534	0.648253	-1.000000	-1.000000	-1.000000	-1.000000	-1.000000	-1.000000	-1.000000	138.965517	0.000000	-1.000000	-1.000000	521278.000000	1772919072.431296
-3080.070000	21681.630000	-19656.765000	-14525.145000	0.000000	0.000000	0.000000	0.000000	19.470954	-115.399223	27.841553	25.124714	-0.000000	0.000000	0.000000	-0.000000	3.738700	0.289940	-1.068200	-0.030945	0.761534	0.648253	-1.000000	-1.000000	-1.000000	-1.000000	-1.000000	-1.000000	-1.000000	138.965517	0.000000	-1.000000	-1.000000	521279.000000	1772919072.437529
-3088.170000	21776.265000	-19686.195000	-14550.705000	0.000000	0.000000	0.000000	0.000000	66.469542	-74.834730	97.255808	101.512973	-0.000000	0.000000	0.000000	-0.000000	3.738700	0.289940	-1.068200	-0.030945	0.761534	0.648253	-1.000000	-1.000000	-1.000000	-1.000000	-1.000000	-1.000000	-1.000000	138.965517	0.000000	-1.000000	-1.000000	521280.000000	1772919072.437532
-3133.800000	21884.625000	-19753.470000	-14620.680000	0.000000	0.000000	0.000000	0.000000	78.747299	-5.775128	114.278682	123.506006	-0.000000	0.000000	0.000000	-0.000000	2.472120	1.037680	-0.869820	-0.029846	0.759703	0.649290	-1.000000	-1.000000	-1.000000	-1.000000	-1.000000	-1.000000	-1.000000	138.965517	0.000000	-1.000000	-1.000000	521281.000000	1772919072.440742
-3203.955000	21935.160000	-19831.770000	-14701.815000	0.000000	0.000000	0.000000	0.000000	48.387829	58.761580	68.608830	78.022098	-0.000000	0.000000	0.000000	-0.000000	2.472120	1.037680	-0.869820	-0.029846	0.759703	0.649290	-1.000000	-1.000000	-1.000000	-1.000000	-1.000000	-1.000000	-1.000000	138.965517	0.000000	-1.000000	-1.000000	521282.000000	1772919072.440744
-3285.990000	21916.260000	-19949.040000	-14828.355000	0.000000	0.000000	0.000000	0.000000	-9.431694	87.892791	-14.676398	-9.976358	-0.000000	0.000000	0.000000	-0.000000	2.472120	1.037680	-0.869820	-0.029846	0.759703	0.649290	-1.000000	-1.000000	-1.000000	-1.000000	-1.000000	-1.000000	-1.000000	138.965517	0.000000	-1.000000	-1.000000	521283.000000	1772919072.443775
-3278.565000	21908.160000	-19939.545000	-14827.050000	0.000000	0.000000	0.000000	0.000000	-64.177128	69.211006	-90.751165	-93.187492	-0.000000	0.000000	0.000000	-0.000000	2.472120	1.037680	-0.869820	-0.029846	0.759703	0.649290	-1.000000	-1.000000	-1.000000	-1.000000	-1.000000	-1.000000	-1.000000	138.965517	0.000000	-1.000000	-1.000000	521284.000000	1772919072.443777
-3239.190000	21911.175000	-19883.565000	-14768.010000	0.000000	0.000000	0.000000	0.000000	-85.386943	16.724527	-118.561894	-126.921119	-0.000000	0.000000	0.000000	-0.000000	2.472120	1.037680	-0.869820	-0.029846	0.759703	0.649290	-1.000000	-1.000000	-1.000000	-1.000000	-1.000000	-1.000000	-1.000000	138.965517	0.000000	-1.000000	-1.000000	521285.000000	1772919072.447288
-3196.485000	21942.945000	-19819.620000	-14699.430000	0.000000	0.000000	0.000000	0.000000	-60.563196	-37.339937	-82.689079	-92.576930	-0.000000	0.000000	0.000000	-0.000000	2.472120	1.037680	-0.869820	-0.029846	0.759703	0.649290	-1.000000	-1.000000	-1.000000	-1.000000	-1.000000	-1.000000	-1.000000	138.965517	0.000000	-1.000000	-1.000000	521286.000000	1772919072.447290
-3117.420000	21935.610000	-19688.355000	-14558.400000	0.000000	0.000000	0.000000	0.000000	-3.758962	-64.476409	-2.937164	-9.019840	-0.000000	0.000000	0.000000	-0.000000	2.472120	1.037680	-0.869820	-0.029846	0.759703	0.649290	-1.000000	-1.000000	-1.000000	-1.000000	-1.000000	-1.000000	-1.000000	138.965517	0.000000	-1.000000	-1.000000	521287.000000	1772919072.451307
-3107.790000	21967.965000	-19670.895000	-14534.460000	0.000000	0.000000	0.000000	0.000000	54.190606	-56.630990	78.589428	79.590297	-0.000000	0.000000	0.000000	-0.000000	2.472120	1.037680	-0.869820	-0.029846	0.759703	0.649290	-1.000000	-1.000000	-1.000000	-1.000000	-1.000000	-1.000000	-1.000000	138.965517	0.000000	-1.000000	-1.000000	521288.000000	1772919072.451310
-3136.860000	22057.605000	-19735.605000	-14602.050000	0.000000	0.000000	0.000000	0.000000	82.862550	-23.451794	118.759845	126.166820	-0.000000	0.000000	0.000000	-0.000000	2.472120	1.037680	-0.869820	-0.029846	0.759703	0.649290	-1.000000	-1.000000	-1.000000	-1.000000	-1.000000	-1.000000	-1.000000	138.965517	0.000000	-1.000000	-1.000000	521289.000000	1772919072.455498
-3171.510000	22111.830000	-19807.110000	-14675.085000	0.000000	0.000000	0.000000	0.000000	67.705809	19.192948	94.586669	104.119769	-0.000000	0.000000	0.000000	-0.000000	2.472120	1.037680	-0.869820	-0.029846	0.759703	0.649290	-1.000000	-1.000000	-1.000000	-1.000000	-1.000000	-1.000000	-1.000000	138.965517	0.000000	-1.000000	-1.000000	521290.000000	1772919072.455501
-3240.945000	22007.160000	-19914.030000	-14787.180000	0.000000	0.000000	0.000000	0.000000	18.137319	51.202203	18.749089	25.160966	-0.000000	0.000000	0.000000	-0.000000	4.791640	0.717220	-0.259420	-0.029846	0.758787	0.648070	-1.000000	-1.000000	-1.000000	-1.000000	-1.000000	-1.000000	-1.000000	138.965517	0.000000	-1.000000	-1.000000	521291.000000	1772919072.459388
-3263.670000	21919.995000	-19935.990000	-14820.570000	0.000000	0.000000	0.000000	0.000000	-39.087336	51.464162	-66.916917	-66.900585	-0.000000	0.000000	0.000000	-0.000000	4.791640	0.717220	-0.259420	-0.029846	0.758787	0.648070	-1.000000	-1.000000	-1.000000	-1.000000	-1.000000	-1.000000	-1.000000	138.965517	0.000000	-1.000000	-1.000000	521292.000000	1772919072.459391
-3228.345000	21883.590000	-19881.720000	-14765.445000	0.000000	0.000000	0.000000	0.000000	-74.364819	16.829726	-115.367533	-121.675433	-0.000000	0.000000	0.000000	-0.000000	4.791640	0.717220	-0.259420	-0.029846	0.758787	0.648070	-1.000000	-1.000000	-1.000000	-1.000000	-1.000000	-1.000000	-1.000000	138.965517	0.000000	-1.000000	-1.000000	521293.000000	1772919072.463390
-3197.430000	21921.030000	-19833.885000	-14714.415000	0.000000	0.000000	0.000000	0.000000	-69.792145	-27.188035	-100.611165	-109.917322	-0.000000	0.000000	0.000000	-0.000000	4.791640	0.717220	-0.259420	-0.029846	0.758787	0.648070	-1.000000	-1.000000	-1.000000	-1.000000	-1.000000	-1.000000	-1.000000	138.965517	0.000000	-1.000000	-1.000000	521294.000000	1772919072.463393
-3118.320000	21945.285000	-19716.930000	-14590.935000	0.000000	0.000000	0.000000	0.000000	-29.183875	-46.617650	-32.719054	-40.029623	-0.000000	0.000000	0.000000	-0.000000	4.791640	0.717220	-0.259420	-0.029846	0.758787	0.648070	-1.000000	-1.000000	-1.000000	-1.000000	-1.000000	-1.000000	-1.000000	138.965517	0.000000	-1.000000	-1.000000	521295.000000	1772919072.467477
-3082.545000	22005.720000	-19663.110000	-14523.165000	0.000000	0.000000	0.000000	0.000000	25.006153	-28.050604	50.745894	49.453910	-0.000000	0.000000	0.000000	-0.000000	4.791640	0.717220	-0.259420	-0.029846	0.758787	0.648070	-1.000000	-1.000000	-1.000000	-1.000000	-1.000000	-1.000000	-1.000000	138.965517	0.000000	-1.000000	-1.000000	521296.000000	1772919072.467480
-3123.315000	22106.610000	-19720.890000	-14581.800000	0.000000	0.000000	0.000000	0.000000	63.713175	15.440950	105.616734	111.261909	-0.000000	0.000000	0.000000	-0.000000	4.791640	0.717220	-0.259420	-0.029846	0.758787	0.648070	-1.000000	-1.000000	-1.000000	-1.000000	-1.000000	-1.000000	-1.000000	138.965517	0.000000	-1.000000	-1.000000	521297.000000	1772919072.471449
-3170.250000	22211.055000	-19787.220000	-14654.430000	0.000000	0.000000	0.000000	0.000000	65.289399	59.519088	101.892295	111.474111	-0.000000	0.000000	0.000000	-0.000000	4.791640	0.717220	-0.259420	-0.029846	0.758787	0.648070	-1.000000	-1.000000	-1.000000	-1.000000	-1.000000	-1.000000	-1.000000	138.965517	0.000000	-1.000000	-1.000000	521298.000000	1772919072.471451
-3246.615000	22257.360000	-19896.795000	-14769.405000	0.000000	0.000000	0.000000	0.000000	28.824133	82.398275	41.495026	49.487051	-0.000000	0.000000	0.000000	-0.000000	4.791640	0.717220	-0.259420	-0.029846	0.758787	0.648070	-1.000000	-1.000000	-1.000000	-1.000000	-1.000000	-1.000000	-1.000000	138.965517	0.000000	-1.000000	-1.000000	521299.000000	1772919072.475495
-3310.605000	22282.560000	-19981.665000	-14867.100000	0.000000	0.000000	0.000000	0.000000	-24.847075	71.270985	-42.143476	-40.442443	-0.000000	0.000000	0.000000	-0.000000	4.791640	0.717220	-0.259420	-0.029846	0.758787	0.648070	-1.000000	-1.000000	-1.000000	-1.000000	-1.000000	-1.000000	-1.000000	138.965517	0.000000	-1.000000	-1.000000	521300.000000	1772919072.475497
-3295.935000	22338.540000	-19948.635000	-14834.250000	0.000000	0.000000	0.000000	0.000000	-65.765948	28.783387	-103.536414	-109.216284	-0.000000	0.000000	0.000000	-0.000000	5.493600	0.534100	-1.648080	-0.030212	0.753294	0.650328	-1.000000	-1.000000	-1.000000	-1.000000	-1.000000	-1.000000	-1.000000	138.965517	0.000000	-1.000000	-1.000000	521301.000000	1772919072.479424
-3266.955000	22422.645000	-19901.430000	-14784.300000	0.000000	0.000000	0.000000	0.000000	-70.532750	-24.710632	-108.610217	-118.529688	-0.000000	0.000000	0.000000	-0.000000	5.493600	0.534100	-1.648080	-0.030212	0.753294	0.650328	-1.000000	-1.000000	-1.000000	-1.000000	-1.000000	-1.000000	-1.000000	138.965517	0.000000	-1.000000	-1.000000	521302.000000	1772919072.479427
-3206.655000	22490.010000	-19809.855000	-14689.890000	0.000000	0.000000	0.000000	0.000000	-35.516559	-62.967812	-54.055201	-62.668768	-0.000000	0.000000	0.000000	-0.000000	5.493600	0.534100	-1.648080	-0.030212	0.753294	0.650328	-1.000000	-1.000000	-1.000000	-1.000000	-1.000000	-1.000000	-1.000000	138.965517	0.000000	-1.000000	-1.000000	521303.000000	1772919072.487953
-3156.840000	22664.475000	-19730.655000	-14599.440000	0.000000	0.000000	0.000000	0.000000	20.633742	-69.914523	30.460265	27.824191	-0.000000	0.000000	0.000000	-0.000000	5.493600	0.534100	-1.648080	-0.030212	0.753294	0.650328	-1.000000	-1.000000	-1.000000	-1.000000	-1.000000	-1.000000	-1.000000	138.965517	0.000000	-1.000000	-1.000000	521304.000000	1772919072.487956
-3182.805000	22814.505000	-19769.805000	-14633.730000	0.000000	0.000000	0.000000	0.000000	67.581209	-44.952252	99.499917	104.276726	-0.000000	0.000000	0.000000	-0.000000	5.493600	0.534100	-1.648080	-0.030212	0.753294	0.650328	-1.000000	-1.000000	-1.000000	-1.000000	-1.000000	-1.000000	-1.000000	138.965517	0.000000	-1.000000	-1.000000	521305.000000	1772919072.487960
-3200.130000	22781.520000	-19806.885000	-14673.195000	0.000000	0.000000	0.000000	0.000000	79.700627	-5.338528	115.715689	125.555853	-0.000000	0.000000	0.000000	-0.000000	5.493600	0.534100	-1.648080	-0.030212	0.753294	0.650328	-1.000000	-1.000000	-1.000000	-1.000000	-1.000000	-1.000000	-1.000000	138.965517	0.000000	-1.000000	-1.000000	521306.000000	1772919072.487962
-3251.880000	22753.260000	-19891.440000	-14758.065000	0.000000	0.000000	0.000000	0.000000	51.241597	17.844612	71.284721	81.234323	-0.000000	0.000000	0.000000	-0.000000	5.493600	0.534100	-1.648080	-0.030212	0.753294	0.650328	-1.000000	-1.000000	-1.000000	-1.000000	-1.000000	-1.000000	-1.000000	138.965517	0.000000	-1.000000	-1.000000	521307.000000	1772919072.491465
-3332.745000	22766.355000	-20011.365000	-14886.180000	0.000000	0.000000	0.000000	0.000000	-1.711696	5.881318	-8.829032	-3.656309	-0.000000	0.000000	0.000000	-0.000000	5.493600	0.534100	-1.648080	-0.030212	0.753294	0.650328	-1.000000	-1.000000	-1.000000	-1.000000	-1.000000	-1.000000	-1.000000	138.965517	0.000000	-1.000000	-1.000000	521308.000000	1772919072.491467
-3307.275000	22669.830000	-19974.555000	-14857.695000	0.000000	0.000000	0.000000	0.000000	-52.001559	-29.397901	-82.731567	-84.745442	-0.000000	0.000000	0.000000	-0.000000	5.493600	0.534100	-1.648080	-0.030212	0.753294	0.650328	-1.000000	-1.000000	-1.000000	-1.000000	-1.000000	-1.000000	-1.000000	138.965517	0.000000	-1.000000	-1.000000	521309.000000	1772919072.495475
-3244.950000	22527.495000	-19888.110000	-14772.150000	0.000000	0.000000	0.000000	0.000000	-72.836640	-63.577063	-110.190955	-118.419501	-0.000000	0.000000	0.000000	-0.000000	5.493600	0.534100	-1.648080	-0.030212	0.753294	0.650328	-1.000000	-1.000000	-1.000000	-1.000000	-1.000000	-1.000000	-1.000000	138.965517	0.000000	-1.000000	-1.000000	521310.000000	1772919072.495477
-3172.500000	22374.495000	-19792.305000	-14672.430000	0.000000	0.000000	0.000000	0.000000	-51.627419	-81.150419	-74.260357	-84.753825	-0.000000	0.000000	0.000000	-0.000000	6.363420	0.793520	-0.259420	-0.030517	0.758604	0.653258	-1.000000	-1.000000	-1.000000	-1.000000	-1.000000	-1.000000	-1.000000	138.965517	0.000000	-1.000000	-1.000000	521311.000000	1772919072.499535
-3064.005000	22213.800000	-19647.945000	-14515.965000	0.000000	0.000000	0.000000	0.000000	0.083702	-76.470993	5.218692	-2.294813	-0.000000	0.000000	0.000000	-0.000000	6.363420	0.793520	-0.259420	-0.030517	0.758604	0.653258	-1.000000	-1.000000	-1.000000	-1.000000	-1.000000	-1.000000	-1.000000	138.965517	0.000000	-1.000000	-1.000000	521312.000000	1772919072.499538
-3057.255000	22193.055000	-19645.695000	-14505.255000	0.000000	0.000000	0.000000	0.000000	52.974442	-47.487461	83.379062	82.816095	-0.000000	0.000000	0.000000	-0.000000	6.363420	0.793520	-0.259420	-0.030517	0.758604	0.653258	-1.000000	-1.000000	-1.000000	-1.000000	-1.000000	-1.000000	-1.000000	138.965517	0.000000	-1.000000	-1.000000	521313.000000	1772919072.503597
-3107.340000	22253.715000	-19715.265000	-14579.415000	0.000000	0.000000	0.000000	0.000000	75.447295	7.027690	114.706078	121.390090	-0.000000	0.000000	0.000000	-0.000000	6.363420	0.793520	-0.259420	-0.030517	0.758604	0.653258	-1.000000	-1.000000	-1.000000	-1.000000	-1.000000	-1.000000	-1.000000	138.965517	0.000000	-1.000000	-1.000000	521314.000000	1772919072.503599
-3164.175000	22313.610000	-19794.195000	-14660.550000	0.000000	0.000000	0.000000	0.000000	51.578407	80.337750	78.454998	88.431352	-0.000000	0.000000	0.000000	-0.000000	6.363420	0.793520	-0.259420	-0.030517	0.758604	0.653258	-1.000000	-1.000000	-1.000000	-1.000000	-1.000000	-1.000000	-1.000000	138.965517	0.000000	-1.000000	-1.000000	521315.000000	1772919072.507518
-3271.680000	22416.345000	-19941.615000	-14814.945000	0.000000	0.000000	0.000000	0.000000	-7.227943	149.350475	-6.947432	0.536060	-0.000000	0.000000	0.000000	-0.000000	6.363420	0.793520	-0.259420	-0.030517	0.758604	0.653258	-1.000000	-1.000000	-1.000000	-1.000000	-1.000000	-1.000000	-1.000000	138.965517	0.000000	-1.000000	-1.000000	521316.000000	1772919072.507521
-3292.515000	22430.925000	-19964.115000	-14849.370000	0.000000	0.000000	0.000000	0.000000	-69.002871	182.678349	-95.255509	-94.354072	-0.000000	0.000000	0.000000	-0.000000	6.363420	0.793520	-0.259420	-0.030517	0.758604	0.653258	-1.000000	-1.000000	-1.000000	-1.000000	-1.000000	-1.000000	-1.000000	138.965517	0.000000	-1.000000	-1.000000	521317.000000	1772919072.511558
-3267.630000	22480.380000	-19917.315000	-14800.545000	0.000000	0.000000	0.000000	0.000000	-98.951324	159.637182	-137.522515	-143.553710	-0.000000	0.000000	0.000000	-0.000000	6.363420	0.793520	-0.259420	-0.030517	0.758604	0.653258	-1.000000	-1.000000	-1.000000	-1.000000	-1.000000	-1.000000	-1.000000	138.965517	0.000000	-1.000000	-1.000000	521318.000000	1772919072.511560
-3226.500000	22501.800000	-19855.845000	-14737.230000	0.000000	0.000000	0.000000	0.000000	-78.448808	85.045585	-108.325101	-117.796539	-0.000000	0.000000	0.000000	-0.000000	6.363420	0.793520	-0.259420	-0.030517	0.758604	0.653258	-1.000000	-1.000000	-1.000000	-1.000000	-1.000000	-1.000000	-1.000000	138.965517	0.000000	-1.000000	-1.000000	521319.000000	1772919072.515635
-3147.750000	22556.745000	-19739.205000	-14615.955000	0.000000	0.000000	0.000000	0.000000	-16.877413	-11.318063	-22.047164	-29.600638	-0.000000	0.000000	0.000000	-0.000000	6.363420	0.793520	-0.259420	-0.030517	0.758604	0.653258	-1.000000	-1.000000	-1.000000	-1.000000	-1.000000	-1.000000	-1.000000	138.965517	0.000000	-1.000000	-1.000000	521320.000000	1772919072.515637
-3128.040000	22706.055000	-19709.505000	-14574.105000	0.000000	0.000000	0.000000	0.000000	54.226191	-89.910546	76.163668	74.677879	-0.000000	0.000000	0.000000	-0.000000	4.120200	-0.564620	-1.190280	-0.030884	0.756468	0.649351	-1.000000	-1.000000	-1.000000	-1.000000	-1.000000	-1.000000	-1.000000	138.965517	0.000000	-1.000000	-1.000000	521321.000000	1772919072.519615
-3156.480000	22760.235000	-19756.890000	-14620.995000	0.000000	0.000000	0.000000	0.000000	98.556308	-122.010632	135.410823	140.872522	-0.000000	0.000000	0.000000	-0.000000	4.120200	-0.564620	-1.190280	-0.030884	0.756468	0.649351	-1.000000	-1.000000	-1.000000	-1.000000	-1.000000	-1.000000	-1.000000	138.965517	0.000000	-1.000000	-1.000000	521322.000000	1772919072.519618
-3182.265000	22722.615000	-19801.980000	-14671.440000	0.000000	0.000000	0.000000	0.000000	94.251987	-108.728806	125.714091	135.248464	-0.000000	0.000000	0.000000	-0.000000	4.120200	-0.564620	-1.190280	-0.030884	0.756468	0.649351	-1.000000	-1.000000	-1.000000	-1.000000	-1.000000	-1.000000	-1.000000	138.965517	0.000000	-1.000000	-1.000000	521323.000000	1772919072.523608
-3259.305000	22724.730000	-19921.095000	-14793.795000	0.000000	0.000000	0.000000	0.000000	46.043186	-76.981792	54.869972	63.256596	-0.000000	0.000000	0.000000	-0.000000	4.120200	-0.564620	-1.190280	-0.030884	0.756468	0.649351	-1.000000	-1.000000	-1.000000	-1.000000	-1.000000	-1.000000	-1.000000	138.965517	0.000000	-1.000000	-1.000000	521324.000000	1772919072.523611
-3313.440000	22759.065000	-19998.720000	-14885.280000	0.000000	0.000000	0.000000	0.000000	-20.010930	-49.722283	-38.941373	-36.275106	-0.000000	0.000000	0.000000	-0.000000	4.120200	-0.564620	-1.190280	-0.030884	0.756468	0.649351	-1.000000	-1.000000	-1.000000	-1.000000	-1.000000	-1.000000	-1.000000	138.965517	0.000000	-1.000000	-1.000000	521325.000000	1772919072.527642
-3318.390000	22900.500000	-19968.255000	-14858.235000	0.000000	0.000000	0.000000	0.000000	-71.806657	-27.209504	-108.592098	-113.135481	-0.000000	0.000000	0.000000	-0.000000	4.120200	-0.564620	-1.190280	-0.030884	0.756468	0.649351	-1.000000	-1.000000	-1.000000	-1.000000	-1.000000	-1.000000	-1.000000	138.965517	0.000000	-1.000000	-1.000000	521326.000000	1772919072.527645
-3288.420000	22948.560000	-19911.240000	-14797.395000	0.000000	0.000000	0.000000	0.000000	-85.311106	0.945000	-119.092247	-128.466602	-0.000000	0.000000	0.000000	-0.000000	4.120200	-0.564620	-1.190280	-0.030884	0.756468	0.649351	-1.000000	-1.000000	-1.000000	-1.000000	-1.000000	-1.000000	-1.000000	138.965517	0.000000	-1.000000	-1.000000	521327.000000	1772919072.533462
-3199.410000	22890.645000	-19795.815000	-14677.290000	0.000000	0.000000	0.000000	0.000000	-55.036969	31.345302	-65.950384	-74.991986	-0.000000	0.000000	0.000000	-0.000000	4.120200	-0.564620	-1.190280	-0.030884	0.756468	0.649351	-1.000000	-1.000000	-1.000000	-1.000000	-1.000000	-1.000000	-1.000000	138.965517	0.000000	-1.000000	-1.000000	521328.000000	1772919072.533465
-3126.915000	22901.580000	-19701.855000	-14570.775000	0.000000	0.000000	0.000000	0.000000	3.591008	45.145895	21.778942	18.166908	-0.000000	0.000000	0.000000	-0.000000	4.120200	-0.564620	-1.190280	-0.030884	0.756468	0.649351	-1.000000	-1.000000	-1.000000	-1.000000	-1.000000	-1.000000	-1.000000	138.965517	0.000000	-1.000000	-1.000000	521329.000000	1772919072.536461
-3151.395000	22959.630000	-19744.605000	-14608.215000	0.000000	0.000000	0.000000	0.000000	60.017290	34.232665	96.647107	100.663189	-0.000000	0.000000	0.000000	-0.000000	4.120200	-0.564620	-1.190280	-0.030884	0.756468	0.649351	-1.000000	-1.000000	-1.000000	-1.000000	-1.000000	-1.000000	-1.000000	138.965517	0.000000	-1.000000	-1.000000	521330.000000	1772919072.536463
-3196.260000	23024.295000	-19806.345000	-14672.430000	0.000000	0.000000	0.000000	0.000000	82.131634	13.234605	116.488226	126.176600	-0.000000	0.000000	0.000000	-0.000000	6.271860	1.434440	-1.800680	-0.028503	0.755491	0.653136	-1.000000	-1.000000	-1.000000	-1.000000	-1.000000	-1.000000	-1.000000	138.965517	0.000000	-1.000000	-1.000000	521331.000000	1772919072.539746
-3237.705000	22965.795000	-19877.895000	-14749.650000	0.000000	0.000000	0.000000	0.000000	57.002382	-0.986964	70.284737	80.416260	-0.000000	0.000000	0.000000	-0.000000	6.271860	1.434440	-1.800680	-0.028503	0.755491	0.653136	-1.000000	-1.000000	-1.000000	-1.000000	-1.000000	-1.000000	-1.000000	138.965517	0.000000	-1.000000	-1.000000	521332.000000	1772919072.539749
-3297.465000	22828.860000	-19971.405000	-14853.150000	0.000000	0.000000	0.000000	0.000000	0.808766	-9.899943	-13.963501	-9.000452	-0.000000	0.000000	0.000000	-0.000000	6.271860	1.434440	-1.800680	-0.028503	0.755491	0.653136	-1.000000	-1.000000	-1.000000	-1.000000	-1.000000	-1.000000	-1.000000	138.965517	0.000000	-1.000000	-1.000000	521333.000000	1772919072.545758
-3293.505000	22816.980000	-19954.215000	-14842.080000	0.000000	0.000000	0.000000	0.000000	-53.555599	-23.477488	-88.746949	-91.773191	-0.000000	0.000000	0.000000	-0.000000	6.271860	1.434440	-1.800680	-0.028503	0.755491	0.653136	-1.000000	-1.000000	-1.000000	-1.000000	-1.000000	-1.000000	-1.000000	138.965517	0.000000	-1.000000	-1.000000	521334.000000	1772919072.545778
-3261.150000	22833.855000	-19902.240000	-14785.920000	0.000000	0.000000	0.000000	0.000000	-76.705931	-36.476584	-113.880936	-123.320191	-0.000000	0.000000	0.000000	-0.000000	6.271860	1.434440	-1.800680	-0.028503	0.755491	0.653136	-1.000000	-1.000000	-1.000000	-1.000000	-1.000000	-1.000000	-1.000000	138.965517	0.000000	-1.000000	-1.000000	521335.000000	1772919072.547690
-3209.400000	22864.680000	-19824.120000	-14705.100000	0.000000	0.000000	0.000000	0.000000	-57.771900	-31.351075	-77.125251	-87.829955	-0.000000	0.000000	0.000000	-0.000000	6.271860	1.434440	-1.800680	-0.028503	0.755491	0.653136	-1.000000	-1.000000	-1.000000	-1.000000	-1.000000	-1.000000	-1.000000	138.965517	0.000000	-1.000000	-1.000000	521336.000000	1772919072.547693
-3127.005000	22873.995000	-19704.915000	-14574.645000	0.000000	0.000000	0.000000	0.000000	-8.668949	-2.501645	0.165780	-6.062690	-0.000000	0.000000	0.000000	-0.000000	6.271860	1.434440	-1.800680	-0.028503	0.755491	0.653136	-1.000000	-1.000000	-1.000000	-1.000000	-1.000000	-1.000000	-1.000000	138.965517	0.000000	-1.000000	-1.000000	521337.000000	1772919072.551648
-3142.305000	22953.870000	-19721.430000	-14582.475000	0.000000	0.000000	0.000000	0.000000	43.489445	36.441321	76.241035	77.712925	-0.000000	0.000000	0.000000	-0.000000	6.271860	1.434440	-1.800680	-0.028503	0.755491	0.653136	-1.000000	-1.000000	-1.000000	-1.000000	-1.000000	-1.000000	-1.000000	138.965517	0.000000	-1.000000	-1.000000	521338.000000	1772919072.551656
-3177.855000	22994.955000	-19776.015000	-14642.055000	0.000000	0.000000	0.000000	0.000000	69.587197	66.332846	109.511218	117.760467	-0.000000	0.000000	0.000000	-0.000000	6.271860	1.434440	-1.800680	-0.028503	0.755491	0.653136	-1.000000	-1.000000	-1.000000	-1.000000	-1.000000	-1.000000	-1.000000	138.965517	0.000000	-1.000000	-1.000000	521339.000000	1772919072.555784
-3239.145000	23117.445000	-19860.795000	-14732.910000	0.000000	0.000000	0.000000	0.000000	54.644087	75.510484	80.956621	91.217479	-0.000000	0.000000	0.000000	-0.000000	6.271860	1.434440	-1.800680	-0.028503	0.755491	0.653136	-1.000000	-1.000000	-1.000000	-1.000000	-1.000000	-1.000000	-1.000000	138.965517	0.000000	-1.000000	-1.000000	521340.000000	1772919072.555787
-3327.795000	23216.445000	-20006.235000	-14886.180000	0.000000	0.000000	0.000000	0.000000	7.569606	63.941376	6.244572	12.578276	-0.000000	0.000000	0.000000	-0.000000	5.218920	-0.610400	-0.183120	-0.032349	0.761412	0.651182	-1.000000	-1.000000	-1.000000	-1.000000	-1.000000	-1.000000	-1.000000	138.965517	0.000000	-1.000000	-1.000000	521341.000000	1772919072.559736
-3338.910000	23228.010000	-20014.290000	-14901.705000	0.000000	0.000000	0.000000	0.000000	-44.855764	37.480762	-74.068212	-75.161702	-0.000000	0.000000	0.000000	-0.000000	5.218920	-0.610400	-0.183120	-0.032349	0.761412	0.651182	-1.000000	-1.000000	-1.000000	-1.000000	-1.000000	-1.000000	-1.000000	138.965517	0.000000	-1.000000	-1.000000	521342.000000	1772919072.559739
-3293.235000	23180.085000	-19941.390000	-14829.930000	0.000000	0.000000	0.000000	0.000000	-72.168160	-1.111657	-114.473491	-122.187000	-0.000000	0.000000	0.000000	-0.000000	5.218920	-0.610400	-0.183120	-0.032349	0.761412	0.651182	-1.000000	-1.000000	-1.000000	-1.000000	-1.000000	-1.000000	-1.000000	138.965517	0.000000	-1.000000	-1.000000	521343.000000	1772919072.563746
-3257.190000	23193.225000	-19878.525000	-14764.455000	0.000000	0.000000	0.000000	0.000000	-57.245297	-47.662827	-89.378909	-99.340811	-0.000000	0.000000	0.000000	-0.000000	5.218920	-0.610400	-0.183120	-0.032349	0.761412	0.651182	-1.000000	-1.000000	-1.000000	-1.000000	-1.000000	-1.000000	-1.000000	138.965517	0.000000	-1.000000	-1.000000	521344.000000	1772919072.563749
-3148.965000	23097.465000	-19734.840000	-14612.715000	0.000000	0.000000	0.000000	0.000000	-7.736146	-88.466333	-11.598938	-18.383415	-0.000000	0.000000	0.000000	-0.000000	5.218920	-0.610400	-0.183120	-0.032349	0.761412	0.651182	-1.000000	-1.000000	-1.000000	-1.000000	-1.000000	-1.000000	-1.000000	138.965517	0.000000	-1.000000	-1.000000	521345.000000	1772919072.567671
-3104.775000	23021.055000	-19687.455000	-14551.335000	0.000000	0.000000	0.000000	0.000000	49.939164	-108.452187	76.340827	76.499945	-0.000000	0.000000	0.000000	-0.000000	5.218920	-0.610400	-0.183120	-0.032349	0.761412	0.651182	-1.000000	-1.000000	-1.000000	-1.000000	-1.000000	-1.000000	-1.000000	138.965517	0.000000	-1.000000	-1.000000	521346.000000	1772919072.567684
-3124.575000	22934.745000	-19725.480000	-14591.070000	0.000000	0.000000	0.000000	0.000000	84.984164	-101.426734	126.668370	134.068991	-0.000000	0.000000	0.000000	-0.000000	5.218920	-0.610400	-0.183120	-0.032349	0.761412	0.651182	-1.000000	-1.000000	-1.000000	-1.000000	-1.000000	-1.000000	-1.000000	138.965517	0.000000	-1.000000	-1.000000	521347.000000	1772919072.571756
-3166.830000	22929.165000	-19786.095000	-14656.815000	0.000000	0.000000	0.000000	0.000000	76.615815	-68.485552	110.575806	121.520670	-0.000000	0.000000	0.000000	-0.000000	5.218920	-0.610400	-0.183120	-0.032349	0.761412	0.651182	-1.000000	-1.000000	-1.000000	-1.000000	-1.000000	-1.000000	-1.000000	138.965517	0.000000	-1.000000	-1.000000	521348.000000	1772919072.571759
-3256.425000	22974.660000	-19916.865000	-14790.960000	0.000000	0.000000	0.000000	0.000000	26.632832	-14.445755	35.020422	43.590969	-0.000000	0.000000	0.000000	-0.000000	5.218920	-0.610400	-0.183120	-0.032349	0.761412	0.651182	-1.000000	-1.000000	-1.000000	-1.000000	-1.000000	-1.000000	-1.000000	138.965517	0.000000	-1.000000	-1.000000	521349.000000	1772919072.575712
-3285.675000	22874.895000	-19962.180000	-14846.040000	0.000000	0.000000	0.000000	0.000000	-40.075416	47.500093	-61.030586	-59.395504	-0.000000	0.000000	0.000000	-0.000000	5.218920	-0.610400	-0.183120	-0.032349	0.761412	0.651182	-1.000000	-1.000000	-1.000000	-1.000000	-1.000000	-1.000000	-1.000000	138.965517	0.000000	-1.000000	-1.000000	521350.000000	1772919072.575715
-3256.020000	22824.045000	-19911.150000	-14795.955000	0.000000	0.000000	0.000000	0.000000	-88.038837	92.390661	-126.725317	-132.706821	-0.000000	0.000000	0.000000	-0.000000	4.394880	0.610400	-1.922760	-0.030151	0.758177	0.649473	-1.000000	-1.000000	-1.000000	-1.000000	-1.000000	-1.000000	-1.000000	138.965517	0.000000	-1.000000	-1.000000	521351.000000	1772919072.579797
-3226.320000	22862.655000	-19859.895000	-14743.890000	0.000000	0.000000	0.000000	0.000000	-90.846991	101.495302	-126.087103	-136.408815	-0.000000	0.000000	0.000000	-0.000000	4.394880	0.610400	-1.922760	-0.030151	0.758177	0.649473	-1.000000	-1.000000	-1.000000	-1.000000	-1.000000	-1.000000	-1.000000	138.965517	0.000000	-1.000000	-1.000000	521352.000000	1772919072.579799
-3139.155000	22802.130000	-19739.970000	-14617.845000	0.000000	0.000000	0.000000	0.000000	-47.642712	79.517907	-60.305697	-69.631218	-0.000000	0.000000	0.000000	-0.000000	4.394880	0.610400	-1.922760	-0.030151	0.758177	0.649473	-1.000000	-1.000000	-1.000000	-1.000000	-1.000000	-1.000000	-1.000000	138.965517	0.000000	-1.000000	-1.000000	521353.000000	1772919072.584076
-3064.410000	22700.115000	-19644.435000	-14509.170000	0.000000	0.000000	0.000000	0.000000	18.309391	41.423880	34.647584	30.993091	-0.000000	0.000000	0.000000	-0.000000	4.394880	0.610400	-1.922760	-0.030151	0.758177	0.649473	-1.000000	-1.000000	-1.000000	-1.000000	-1.000000	-1.000000	-1.000000	138.965517	0.000000	-1.000000	-1.000000	521354.000000	1772919072.584078
-3085.920000	22683.960000	-19683.000000	-14545.890000	0.000000	0.000000	0.000000	0.000000	73.360215	-1.135169	109.316920	113.128077	-0.000000	0.000000	0.000000	-0.000000	4.394880	0.610400	-1.922760	-0.030151	0.758177	0.649473	-1.000000	-1.000000	-1.000000	-1.000000	-1.000000	-1.000000	-1.000000	138.965517	0.000000	-1.000000	-1.000000	521355.000000	1772919072.587828
-3109.725000	22595.310000	-19725.480000	-14591.880000	0.000000	0.000000	0.000000	0.000000	88.809324	-35.928605	124.442009	133.544817	-0.000000	0.000000	0.000000	-0.000000	4.394880	0.610400	-1.922760	-0.030151	0.758177	0.649473	-1.000000	-1.000000	-1.000000	-1.000000	-1.000000	-1.000000	-1.000000	138.965517	0.000000	-1.000000	-1.000000	521356.000000	1772919072.587831
-3185.685000	22600.980000	-19832.445000	-14702.130000	0.000000	0.000000	0.000000	0.000000	56.772876	-51.624858	72.726475	81.968575	-0.000000	0.000000	0.000000	-0.000000	4.394880	0.610400	-1.922760	-0.030151	0.758177	0.649473	-1.000000	-1.000000	-1.000000	-1.000000	-1.000000	-1.000000	-1.000000	138.965517	0.000000	-1.000000	-1.000000	521357.000000	1772919072.591866
-3267.720000	22629.060000	-19943.325000	-14824.575000	0.000000	0.000000	0.000000	0.000000	-5.104865	-43.218538	-17.079155	-12.812359	-0.000000	0.000000	0.000000	-0.000000	4.394880	0.610400	-1.922760	-0.030151	0.758177	0.649473	-1.000000	-1.000000	-1.000000	-1.000000	-1.000000	-1.000000	-1.000000	138.965517	0.000000	-1.000000	-1.000000	521358.000000	1772919072.591869
-3252.015000	22610.520000	-19911.690000	-14797.665000	0.000000	0.000000	0.000000	0.000000	-63.986038	-14.858024	-97.116159	-100.105168	-0.000000	0.000000	0.000000	-0.000000	4.394880	0.610400	-1.922760	-0.030151	0.758177	0.649473	-1.000000	-1.000000	-1.000000	-1.000000	-1.000000	-1.000000	-1.000000	138.965517	0.000000	-1.000000	-1.000000	521359.000000	1772919072.595867
-3219.480000	22639.320000	-19862.145000	-14745.195000	0.000000	0.000000	0.000000	0.000000	-87.744654	18.686644	-123.805197	-132.364499	-0.000000	0.000000	0.000000	-0.000000	4.394880	0.610400	-1.922760	-0.030151	0.758177	0.649473	-1.000000	-1.000000	-1.000000	-1.000000	-1.000000	-1.000000	-1.000000	138.965517	0.000000	-1.000000	-1.000000	521360.000000	1772919072.595869
-3154.635000	22606.740000	-19769.445000	-14649.705000	0.000000	0.000000	0.000000	0.000000	-63.063360	39.992345	-82.362369	-91.716286	-0.000000	0.000000	0.000000	-0.000000	6.271860	0.701960	-0.564620	-0.030029	0.757933	0.651427	-1.000000	-1.000000	-1.000000	-1.000000	-1.000000	-1.000000	-1.000000	138.965517	0.000000	-1.000000	-1.000000	521361.000000	1772919072.599853
-3056.760000	22530.645000	-19640.385000	-14509.305000	0.000000	0.000000	0.000000	0.000000	-3.749601	38.322523	3.886464	-1.088709	-0.000000	0.000000	0.000000	-0.000000	6.271860	0.701960	-0.564620	-0.030029	0.757933	0.651427	-1.000000	-1.000000	-1.000000	-1.000000	-1.000000	-1.000000	-1.000000	138.965517	0.000000	-1.000000	-1.000000	521362.000000	1772919072.599856
-3044.655000	22436.325000	-19640.205000	-14501.205000	0.000000	0.000000	0.000000	0.000000	58.497107	12.800746	88.616270	90.826045	-0.000000	0.000000	0.000000	-0.000000	6.271860	0.701960	-0.564620	-0.030029	0.757933	0.651427	-1.000000	-1.000000	-1.000000	-1.000000	-1.000000	-1.000000	-1.000000	138.965517	0.000000	-1.000000	-1.000000	521363.000000	1772919072.603863
-3072.915000	22344.660000	-19688.580000	-14551.335000	0.000000	0.000000	0.000000	0.000000	90.173522	-25.678793	126.073165	134.476823	-0.000000	0.000000	0.000000	-0.000000	6.271860	0.701960	-0.564620	-0.030029	0.757933	0.651427	-1.000000	-1.000000	-1.000000	-1.000000	-1.000000	-1.000000	-1.000000	138.965517	0.000000	-1.000000	-1.000000	521364.000000	1772919072.603866
-3139.020000	22380.930000	-19779.480000	-14643.765000	0.000000	0.000000	0.000000	0.000000	73.203430	-55.890477	95.044458	105.238241	-0.000000	0.000000	0.000000	-0.000000	6.271860	0.701960	-0.564620	-0.030029	0.757933	0.651427	-1.000000	-1.000000	-1.000000	-1.000000	-1.000000	-1.000000	-1.000000	138.965517	0.000000	-1.000000	-1.000000	521365.000000	1772919072.607738
-3244.275000	22449.060000	-19924.875000	-14797.170000	0.000000	0.000000	0.000000	0.000000	15.767667	-55.363924	11.721488	18.295850	-0.000000	0.000000	0.000000	-0.000000	6.271860	0.701960	-0.564620	-0.030029	0.757933	0.651427	-1.000000	-1.000000	-1.000000	-1.000000	-1.000000	-1.000000	-1.000000	138.965517	0.000000	-1.000000	-1.000000	521366.000000	1772919072.607741
-3253.095000	22453.110000	-19923.750000	-14806.575000	0.000000	0.000000	0.000000	0.000000	-51.887021	-18.519538	-79.534094	-80.071350	-0.000000	0.000000	0.000000	-0.000000	6.271860	0.701960	-0.564620	-0.030029	0.757933	0.651427	-1.000000	-1.000000	-1.000000	-1.000000	-1.000000	-1.000000	-1.000000	138.965517	0.000000	-1.000000	-1.000000	521367.000000	1772919072.611855
-3199.725000	22363.110000	-19851.390000	-14733.855000	0.000000	0.000000	0.000000	0.000000	-91.930872	31.208255	-127.826504	-135.357719	-0.000000	0.000000	0.000000	-0.000000	6.271860	0.701960	-0.564620	-0.030029	0.757933	0.651427	-1.000000	-1.000000	-1.000000	-1.000000	-1.000000	-1.000000	-1.000000	138.965517	0.000000	-1.000000	-1.000000	521368.000000	1772919072.611858
-3146.265000	22291.110000	-19777.455000	-14656.590000	0.000000	0.000000	0.000000	0.000000	-80.315236	57.510091	-104.308670	-115.040414	-0.000000	0.000000	0.000000	-0.000000	6.271860	0.701960	-0.564620	-0.030029	0.757933	0.651427	-1.000000	-1.000000	-1.000000	-1.000000	-1.000000	-1.000000	-1.000000	138.965517	0.000000	-1.000000	-1.000000	521369.000000	1772919072.615834
-3053.205000	22270.185000	-19651.590000	-14522.490000	0.000000	0.000000	0.000000	0.000000	-23.684636	44.277653	-22.599297	-30.911565	-0.000000	0.000000	0.000000	-0.000000	6.271860	0.701960	-0.564620	-0.030029	0.757933	0.651427	-1.000000	-1.000000	-1.000000	-1.000000	-1.000000	-1.000000	-1.000000	138.965517	0.000000	-1.000000	-1.000000	521370.000000	1772919072.615837
-3031.155000	22298.985000	-19630.800000	-14491.440000	0.000000	0.000000	0.000000	0.000000	45.331682	8.627330	70.622364	69.128120	-0.000000	0.000000	0.000000	-0.000000	3.464020	0.015260	-1.495480	-0.031006	0.759703	0.649840	-1.000000	-1.000000	-1.000000	-1.000000	-1.000000	-1.000000	-1.000000	138.965517	0.000000	-1.000000	-1.000000	521371.000000	1772919072.619902
-3068.595000	22269.150000	-19673.595000	-14535.630000	0.000000	0.000000	0.000000	0.000000	87.993704	-19.712781	123.693460	129.762777	-0.000000	0.000000	0.000000	-0.000000	3.464020	0.015260	-1.495480	-0.031006	0.759703	0.649840	-1.000000	-1.000000	-1.000000	-1.000000	-1.000000	-1.000000	-1.000000	138.965517	0.000000	-1.000000	-1.000000	521372.000000	1772919072.619904
-3120.975000	22266.225000	-19738.665000	-14604.075000	0.000000	0.000000	0.000000	0.000000	80.794568	-26.037246	108.203382	118.381248	-0.000000	0.000000	0.000000	-0.000000	3.464020	0.015260	-1.495480	-0.031006	0.759703	0.649840	-1.000000	-1.000000	-1.000000	-1.000000	-1.000000	-1.000000	-1.000000	138.965517	0.000000	-1.000000	-1.000000	521373.000000	1772919072.623861
-3211.470000	22304.205000	-19872.090000	-14743.530000	0.000000	0.000000	0.000000	0.000000	28.857222	-14.646831	34.326226	42.917435	-0.000000	0.000000	0.000000	-0.000000	3.464020	0.015260	-1.495480	-0.031006	0.759703	0.649840	-1.000000	-1.000000	-1.000000	-1.000000	-1.000000	-1.000000	-1.000000	138.965517	0.000000	-1.000000	-1.000000	521374.000000	1772919072.623864
-3230.865000	22206.645000	-19905.885000	-14788.755000	0.000000	0.000000	0.000000	0.000000	-38.020547	1.820694	-57.284340	-54.885062	-0.000000	0.000000	0.000000	-0.000000	3.464020	0.015260	-1.495480	-0.031006	0.759703	0.649840	-1.000000	-1.000000	-1.000000	-1.000000	-1.000000	-1.000000	-1.000000	138.965517	0.000000	-1.000000	-1.000000	521375.000000	1772919072.628770
-3186.315000	22110.570000	-19843.695000	-14725.395000	0.000000	0.000000	0.000000	0.000000	-82.081678	8.051360	-116.765187	-121.631446	-0.000000	0.000000	0.000000	-0.000000	3.464020	0.015260	-1.495480	-0.031006	0.759703	0.649840	-1.000000	-1.000000	-1.000000	-1.000000	-1.000000	-1.000000	-1.000000	138.965517	0.000000	-1.000000	-1.000000	521376.000000	1772919072.628773
-3152.430000	22088.520000	-19790.100000	-14668.380000	0.000000	0.000000	0.000000	0.000000	-78.754360	-3.185421	-110.938799	-120.066967	-0.000000	0.000000	0.000000	-0.000000	3.464020	0.015260	-1.495480	-0.031006	0.759703	0.649840	-1.000000	-1.000000	-1.000000	-1.000000	-1.000000	-1.000000	-1.000000	138.965517	0.000000	-1.000000	-1.000000	521377.000000	1772919072.632951
-3076.830000	22084.785000	-19677.690000	-14552.280000	0.000000	0.000000	0.000000	0.000000	-31.996204	-20.221447	-44.463719	-52.533745	-0.000000	0.000000	0.000000	-0.000000	3.464020	0.015260	-1.495480	-0.031006	0.759703	0.649840	-1.000000	-1.000000	-1.000000	-1.000000	-1.000000	-1.000000	-1.000000	138.965517	0.000000	-1.000000	-1.000000	521378.000000	1772919072.632975
-3017.970000	22062.735000	-19599.300000	-14463.585000	0.000000	0.000000	0.000000	0.000000	30.589413	-24.427507	44.652785	42.075071	-0.000000	0.000000	0.000000	-0.000000	3.464020	0.015260	-1.495480	-0.031006	0.759703	0.649840	-1.000000	-1.000000	-1.000000	-1.000000	-1.000000	-1.000000	-1.000000	138.965517	0.000000	-1.000000	-1.000000	521379.000000	1772919072.635896
-3047.040000	22082.805000	-19646.505000	-14511.060000	0.000000	0.000000	0.000000	0.000000	75.447248	-9.783935	108.424563	112.535529	-0.000000	0.000000	0.000000	-0.000000	3.464020	0.015260	-1.495480	-0.031006	0.759703	0.649840	-1.000000	-1.000000	-1.000000	-1.000000	-1.000000	-1.000000	-1.000000	138.965517	0.000000	-1.000000	-1.000000	521380.000000	1772919072.635899
-3082.995000	22074.075000	-19703.655000	-14570.055000	0.000000	0.000000	0.000000	0.000000	78.967047	14.903390	112.411827	120.708558	-0.000000	0.000000	0.000000	-0.000000	5.508860	0.595140	-0.793520	-0.029785	0.757750	0.651610	-1.000000	-1.000000	-1.000000	-1.000000	-1.000000	-1.000000	-1.000000	138.965517	0.000000	-1.000000	-1.000000	521381.000000	1772919072.642178
-3145.545000	22023.720000	-19805.490000	-14673.375000	0.000000	0.000000	0.000000	0.000000	39.807427	34.310867	54.739731	62.568737	-0.000000	0.000000	0.000000	-0.000000	5.508860	0.595140	-0.793520	-0.029785	0.757750	0.651610	-1.000000	-1.000000	-1.000000	-1.000000	-1.000000	-1.000000	-1.000000	138.965517	0.000000	-1.000000	-1.000000	521382.000000	1772919072.642181
-3215.430000	21993.885000	-19901.970000	-14780.250000	0.000000	0.000000	0.000000	0.000000	-20.342925	35.837606	-32.647226	-29.369391	-0.000000	0.000000	0.000000	-0.000000	5.508860	0.595140	-0.793520	-0.029785	0.757750	0.651610	-1.000000	-1.000000	-1.000000	-1.000000	-1.000000	-1.000000	-1.000000	138.965517	0.000000	-1.000000	-1.000000	521383.000000	1772919072.645273
-3216.870000	22072.140000	-19884.960000	-14766.255000	0.000000	0.000000	0.000000	0.000000	-70.041647	20.653662	-103.063268	-105.890578	-0.000000	0.000000	0.000000	-0.000000	5.508860	0.595140	-0.793520	-0.029785	0.757750	0.651610	-1.000000	-1.000000	-1.000000	-1.000000	-1.000000	-1.000000	-1.000000	138.965517	0.000000	-1.000000	-1.000000	521384.000000	1772919072.645276
-3183.300000	22098.960000	-19832.580000	-14710.815000	0.000000	0.000000	0.000000	0.000000	-83.686151	4.054567	-118.702225	-126.030931	-0.000000	0.000000	0.000000	-0.000000	5.508860	0.595140	-0.793520	-0.029785	0.757750	0.651610	-1.000000	-1.000000	-1.000000	-1.000000	-1.000000	-1.000000	-1.000000	138.965517	0.000000	-1.000000	-1.000000	521385.000000	1772919072.648173
-3123.045000	22094.235000	-19736.820000	-14616.315000	0.000000	0.000000	0.000000	0.000000	-53.893732	-2.488450	-70.633910	-78.518025	-0.000000	0.000000	0.000000	-0.000000	5.508860	0.595140	-0.793520	-0.029785	0.757750	0.651610	-1.000000	-1.000000	-1.000000	-1.000000	-1.000000	-1.000000	-1.000000	138.965517	0.000000	-1.000000	-1.000000	521386.000000	1772919072.648176
-3043.755000	22103.595000	-19622.745000	-14492.250000	0.000000	0.000000	0.000000	0.000000	4.270620	-2.610484	15.906150	11.520459	-0.000000	0.000000	0.000000	-0.000000	5.508860	0.595140	-0.793520	-0.029785	0.757750	0.651610	-1.000000	-1.000000	-1.000000	-1.000000	-1.000000	-1.000000	-1.000000	138.965517	0.000000	-1.000000	-1.000000	521387.000000	1772919072.651973
-3057.615000	22157.190000	-19652.940000	-14515.740000	0.000000	0.000000	0.000000	0.000000	60.828336	-3.961152	95.294903	96.579004	-0.000000	0.000000	0.000000	-0.000000	5.508860	0.595140	-0.793520	-0.029785	0.757750	0.651610	-1.000000	-1.000000	-1.000000	-1.000000	-1.000000	-1.000000	-1.000000	138.965517	0.000000	-1.000000	-1.000000	521388.000000	1772919072.651975
-3105.990000	22242.690000	-19721.430000	-14588.460000	0.000000	0.000000	0.000000	0.000000	85.085777	-5.985314	123.709828	130.005742	-0.000000	0.000000	0.000000	-0.000000	5.508860	0.595140	-0.793520	-0.029785	0.757750	0.651610	-1.000000	-1.000000	-1.000000	-1.000000	-1.000000	-1.000000	-1.000000	138.965517	0.000000	-1.000000	-1.000000	521389.000000	1772919072.657814
-3176.325000	22356.495000	-19815.795000	-14687.595000	0.000000	0.000000	0.000000	0.000000	62.820067	-2.688883	84.163166	92.013796	-0.000000	0.000000	0.000000	-0.000000	5.508860	0.595140	-0.793520	-0.029785	0.757750	0.651610	-1.000000	-1.000000	-1.000000	-1.000000	-1.000000	-1.000000	-1.000000	138.965517	0.000000	-1.000000	-1.000000	521390.000000	1772919072.657817
-3245.895000	22304.520000	-19920.375000	-14805.540000	0.000000	0.000000	0.000000	0.000000	6.521886	5.129586	-1.059286	3.757401	-0.000000	0.000000	0.000000	-0.000000	4.837420	-0.106820	-1.144500	-0.030884	0.756163	0.651121	-1.000000	-1.000000	-1.000000	-1.000000	-1.000000	-1.000000	-1.000000	138.965517	0.000000	-1.000000	-1.000000	521391.000000	1772919072.659950
-3219.120000	22139.100000	-19883.295000	-14777.370000	0.000000	0.000000	0.000000	0.000000	-51.268127	2.242357	-83.586231	-84.902761	-0.000000	0.000000	0.000000	-0.000000	4.837420	-0.106820	-1.144500	-0.030884	0.756163	0.651121	-1.000000	-1.000000	-1.000000	-1.000000	-1.000000	-1.000000	-1.000000	138.965517	0.000000	-1.000000	-1.000000	521392.000000	1772919072.659953
-3163.905000	21987.720000	-19812.060000	-14697.810000	0.000000	0.000000	0.000000	0.000000	-76.497640	-26.933315	-116.137133	-123.095072	-0.000000	0.000000	0.000000	-0.000000	4.837420	-0.106820	-1.144500	-0.030884	0.756163	0.651121	-1.000000	-1.000000	-1.000000	-1.000000	-1.000000	-1.000000	-1.000000	138.965517	0.000000	-1.000000	-1.000000	521393.000000	1772919072.664004
-3111.435000	21921.660000	-19747.845000	-14611.410000	0.000000	0.000000	0.000000	0.000000	-54.977988	-72.698053	-81.099103	-89.063889	-0.000000	0.000000	0.000000	-0.000000	4.837420	-0.106820	-1.144500	-0.030884	0.756163	0.651121	-1.000000	-1.000000	-1.000000	-1.000000	-1.000000	-1.000000	-1.000000	138.965517	0.000000	-1.000000	-1.000000	521394.000000	1772919072.664006
-3014.865000	21811.500000	-19631.205000	-14463.810000	0.000000	0.000000	0.000000	0.000000	-1.317084	-101.449565	-1.653410	-3.974357	-0.000000	0.000000	0.000000	-0.000000	4.837420	-0.106820	-1.144500	-0.030884	0.756163	0.651121	-1.000000	-1.000000	-1.000000	-1.000000	-1.000000	-1.000000	-1.000000	138.965517	0.000000	-1.000000	-1.000000	521395.000000	1772919072.667901
-3004.380000	21748.500000	-19621.890000	-14450.040000	0.000000	0.000000	0.000000	0.000000	52.833711	-87.119280	76.191882	83.520481	-0.000000	0.000000	0.000000	-0.000000	4.837420	-0.106820	-1.144500	-0.030884	0.756163	0.651121	-1.000000	-1.000000	-1.000000	-1.000000	-1.000000	-1.000000	-1.000000	138.965517	0.000000	-1.000000	-1.000000	521396.000000	1772919072.667908
-3032.190000	21669.120000	-19660.815000	-14510.745000	0.000000	0.000000	0.000000	0.000000	76.940851	-32.435080	110.325940	124.195103	-0.000000	0.000000	0.000000	-0.000000	4.837420	-0.106820	-1.144500	-0.030884	0.756163	0.651121	-1.000000	-1.000000	-1.000000	-1.000000	-1.000000	-1.000000	-1.000000	138.965517	0.000000	-1.000000	-1.000000	521397.000000	1772919072.672090
-3094.830000	21703.230000	-19737.270000	-14604.885000	0.000000	0.000000	0.000000	0.000000	56.715486	38.922669	82.954016	93.669615	-0.000000	0.000000	0.000000	-0.000000	4.837420	-0.106820	-1.144500	-0.030884	0.756163	0.651121	-1.000000	-1.000000	-1.000000	-1.000000	-1.000000	-1.000000	-1.000000	138.965517	0.000000	-1.000000	-1.000000	521398.000000	1772919072.672092
-3206.790000	21817.080000	-19888.290000	-14755.995000	0.000000	0.000000	0.000000	0.000000	1.737528	102.925551	8.744791	7.311722	-0.000000	0.000000	0.000000	-0.000000	4.837420	-0.106820	-1.144500	-0.030884	0.756163	0.651121	-1.000000	-1.000000	-1.000000	-1.000000	-1.000000	-1.000000	-1.000000	138.965517	0.000000	-1.000000	-1.000000	521399.000000	1772919072.675957
-3204.495000	21760.830000	-19882.620000	-14767.290000	0.000000	0.000000	0.000000	0.000000	-59.361084	142.354644	-73.552670	-88.097332	-0.000000	0.000000	0.000000	-0.000000	4.837420	-0.106820	-1.144500	-0.030884	0.756163	0.651121	-1.000000	-1.000000	-1.000000	-1.000000	-1.000000	-1.000000	-1.000000	138.965517	0.000000	-1.000000	-1.000000	521400.000000	1772919072.675960
-3133.080000	21618.360000	-19783.170000	-14675.490000	0.000000	0.000000	0.000000	0.000000	-91.273521	138.697873	-117.385054	-138.085262	-0.000000	0.000000	0.000000	-0.000000	5.447820	1.022420	-1.419180	-0.029907	0.757811	0.652098	-1.000000	-1.000000	-1.000000	-1.000000	-1.000000	-1.000000	-1.000000	138.965517	0.000000	-1.000000	-1.000000	521401.000000	1772919072.680023
-3085.200000	21517.245000	-19705.590000	-14597.145000	0.000000	0.000000	0.000000	0.000000	-72.275607	81.092457	-93.856596	-111.198719	-0.000000	0.000000	0.000000	-0.000000	5.447820	1.022420	-1.419180	-0.029907	0.757811	0.652098	-1.000000	-1.000000	-1.000000	-1.000000	-1.000000	-1.000000	-1.000000	138.965517	0.000000	-1.000000	-1.000000	521402.000000	1772919072.680025
-3026.430000	21511.755000	-19619.640000	-14477.355000	0.000000	0.000000	0.000000	0.000000	-12.497397	-9.635886	-15.781183	-21.911134	-0.000000	0.000000	0.000000	-0.000000	5.447820	1.022420	-1.419180	-0.029907	0.757811	0.652098	-1.000000	-1.000000	-1.000000	-1.000000	-1.000000	-1.000000	-1.000000	138.965517	0.000000	-1.000000	-1.000000	521403.000000	1772919072.684007
-2995.830000	21485.880000	-19580.040000	-14397.435000	0.000000	0.000000	0.000000	0.000000	52.771610	-86.151660	69.968287	79.534350	-0.000000	0.000000	0.000000	-0.000000	5.447820	1.022420	-1.419180	-0.029907	0.757811	0.652098	-1.000000	-1.000000	-1.000000	-1.000000	-1.000000	-1.000000	-1.000000	138.965517	0.000000	-1.000000	-1.000000	521404.000000	1772919072.684009
-3018.420000	21551.580000	-19625.040000	-14427.045000	0.000000	0.000000	0.000000	0.000000	87.929808	-110.254440	114.851889	139.294299	-0.000000	0.000000	0.000000	-0.000000	5.447820	1.022420	-1.419180	-0.029907	0.757811	0.652098	-1.000000	-1.000000	-1.000000	-1.000000	-1.000000	-1.000000	-1.000000	138.965517	0.000000	-1.000000	-1.000000	521405.000000	1772919072.688053
-3045.780000	21662.280000	-19661.130000	-14466.555000	0.000000	0.000000	0.000000	0.000000	76.662664	-75.815928	96.338563	127.285297	-0.000000	0.000000	0.000000	-0.000000	5.447820	1.022420	-1.419180	-0.029907	0.757811	0.652098	-1.000000	-1.000000	-1.000000	-1.000000	-1.000000	-1.000000	-1.000000	138.965517	0.000000	-1.000000	-1.000000	521406.000000	1772919072.688056
-3118.590000	21744.495000	-19776.510000	-14588.190000	0.000000	0.000000	0.000000	0.000000	27.748019	-5.963547	27.366564	50.944197	-0.000000	0.000000	0.000000	-0.000000	5.447820	1.022420	-1.419180	-0.029907	0.757811	0.652098	-1.000000	-1.000000	-1.000000	-1.000000	-1.000000	-1.000000	-1.000000	138.965517	0.000000	-1.000000	-1.000000	521407.000000	1772919072.692105
-3214.305000	21818.970000	-19903.635000	-14715.045000	0.000000	0.000000	0.000000	0.000000	-33.652330	60.772047	-56.202709	-51.630232	-0.000000	0.000000	0.000000	-0.000000	5.447820	1.022420	-1.419180	-0.029907	0.757811	0.652098	-1.000000	-1.000000	-1.000000	-1.000000	-1.000000	-1.000000	-1.000000	138.965517	0.000000	-1.000000	-1.000000	521408.000000	1772919072.692108
-3188.610000	21836.835000	-19848.105000	-14702.220000	0.000000	0.000000	0.000000	0.000000	-79.003073	90.075712	-114.232475	-131.500454	-0.000000	0.000000	0.000000	-0.000000	5.447820	1.022420	-1.419180	-0.029907	0.757811	0.652098	-1.000000	-1.000000	-1.000000	-1.000000	-1.000000	-1.000000	-1.000000	138.965517	0.000000	-1.000000	-1.000000	521409.000000	1772919072.698364
-3128.085000	21759.120000	-19775.835000	-14653.170000	0.000000	0.000000	0.000000	0.000000	-85.021134	67.660534	-115.141436	-148.487923	-0.000000	0.000000	0.000000	-0.000000	5.447820	1.022420	-1.419180	-0.029907	0.757811	0.652098	-1.000000	-1.000000	-1.000000	-1.000000	-1.000000	-1.000000	-1.000000	138.965517	0.000000	-1.000000	-1.000000	521410.000000	1772919072.698366
-3023.955000	21697.470000	-19658.205000	-14566.005000	0.000000	0.000000	0.000000	0.000000	-44.896467	3.459473	-53.406405	-92.105468	-0.000000	0.000000	0.000000	-0.000000	6.744920	6.180300	-0.854560	-0.028686	0.759214	0.652159	-1.000000	-1.000000	-1.000000	-1.000000	-1.000000	-1.000000	-1.000000	138.965517	0.000000	-1.000000	-1.000000	521411.000000	1772919072.700084
-2940.390000	21620.070000	-19547.100000	-14432.715000	0.000000	0.000000	0.000000	0.000000	23.185870	-72.278725	41.156402	9.971756	-0.000000	0.000000	0.000000	-0.000000	6.744920	6.180300	-0.854560	-0.028686	0.759214	0.652159	-1.000000	-1.000000	-1.000000	-1.000000	-1.000000	-1.000000	-1.000000	138.965517	0.000000	-1.000000	-1.000000	521412.000000	1772919072.700086
-2946.915000	21593.565000	-19578.105000	-14428.935000	0.000000	0.000000	0.000000	0.000000	82.966314	-122.548048	118.410086	107.218018	-0.000000	0.000000	0.000000	-0.000000	6.744920	6.180300	-0.854560	-0.028686	0.759214	0.652159	-1.000000	-1.000000	-1.000000	-1.000000	-1.000000	-1.000000	-1.000000	138.965517	0.000000	-1.000000	-1.000000	521413.000000	1772919072.704176
-2990.745000	21616.515000	-19728.990000	-14502.240000	0.000000	0.000000	0.000000	0.000000	99.714050	-122.256991	133.234829	150.342393	-0.000000	0.000000	0.000000	-0.000000	6.744920	6.180300	-0.854560	-0.028686	0.759214	0.652159	-1.000000	-1.000000	-1.000000	-1.000000	-1.000000	-1.000000	-1.000000	138.965517	0.000000	-1.000000	-1.000000	521414.000000	1772919072.704178
-3063.150000	21644.460000	-19931.760000	-14609.115000	0.000000	0.000000	0.000000	0.000000	61.969302	-70.389852	70.344195	115.987635	-0.000000	0.000000	0.000000	-0.000000	6.744920	6.180300	-0.854560	-0.028686	0.759214	0.652159	-1.000000	-1.000000	-1.000000	-1.000000	-1.000000	-1.000000	-1.000000	138.965517	0.000000	-1.000000	-1.000000	521415.000000	1772919072.708224
-3137.895000	21684.555000	-20020.680000	-14750.820000	0.000000	0.000000	0.000000	0.000000	-10.397839	9.434596	-40.011295	22.129452	-0.000000	0.000000	0.000000	-0.000000	6.744920	6.180300	-0.854560	-0.028686	0.759214	0.652159	-1.000000	-1.000000	-1.000000	-1.000000	-1.000000	-1.000000	-1.000000	138.965517	0.000000	-1.000000	-1.000000	521416.000000	1772919072.708227
-3165.120000	21692.745000	-19925.370000	-14718.330000	0.000000	0.000000	0.000000	0.000000	-78.877709	81.241567	-131.695078	-79.976379	-0.000000	0.000000	0.000000	-0.000000	6.744920	6.180300	-0.854560	-0.028686	0.759214	0.652159	-1.000000	-1.000000	-1.000000	-1.000000	-1.000000	-1.000000	-1.000000	138.965517	0.000000	-1.000000	-1.000000	521417.000000	1772919072.712124
-3199.320000	21775.860000	-19860.345000	-14653.080000	0.000000	0.000000	0.000000	0.000000	-109.057147	116.736836	-143.988450	-132.697824	-0.000000	0.000000	0.000000	-0.000000	6.744920	6.180300	-0.854560	-0.028686	0.759214	0.652159	-1.000000	-1.000000	-1.000000	-1.000000	-1.000000	-1.000000	-1.000000	138.965517	0.000000	-1.000000	-1.000000	521418.000000	1772919072.712126
-3210.615000	21810.645000	-19810.440000	-14668.605000	0.000000	0.000000	0.000000	0.000000	-89.336106	109.280023	-69.160855	-108.880007	-0.000000	0.000000	0.000000	-0.000000	6.744920	6.180300	-0.854560	-0.028686	0.759214	0.652159	-1.000000	-1.000000	-1.000000	-1.000000	-1.000000	-1.000000	-1.000000	138.965517	0.000000	-1.000000	-1.000000	521419.000000	1772919072.718316
-3133.035000	21902.850000	-19687.680000	-14628.825000	0.000000	0.000000	0.000000	0.000000	-32.593039	71.433418	43.904756	-31.496206	-0.000000	0.000000	0.000000	-0.000000	6.744920	6.180300	-0.854560	-0.028686	0.759214	0.652159	-1.000000	-1.000000	-1.000000	-1.000000	-1.000000	-1.000000	-1.000000	138.965517	0.000000	-1.000000	-1.000000	521420.000000	1772919072.718319
-3060.990000	22091.535000	-19641.735000	-14574.555000	0.000000	0.000000	0.000000	0.000000	36.834694	25.497656	132.159677	50.448666	-0.000000	0.000000	0.000000	-0.000000	15.900920	17.777900	-7.538440	-0.014282	0.738585	0.641478	-1.000000	-1.000000	-1.000000	-1.000000	-1.000000	-1.000000	-1.000000	138.965517	0.000000	-1.000000	-1.000000	521421.000000	1772919072.724968
-3051.810000	22070.970000	-19720.980000	-14566.545000	0.000000	0.000000	0.000000	0.000000	92.354977	-9.531889	153.856982	98.715868	-0.000000	0.000000	0.000000	-0.000000	15.900920	17.777900	-7.538440	-0.014282	0.738585	0.641478	-1.000000	-1.000000	-1.000000	-1.000000	-1.000000	-1.000000	-1.000000	138.965517	0.000000	-1.000000	-1.000000	521422.000000	1772919072.724971
-3119.805000	21982.500000	-19812.870000	-14639.265000	0.000000	0.000000	0.000000	0.000000	109.451837	-34.965011	99.815908	97.764711	-0.000000	0.000000	0.000000	-0.000000	15.900920	17.777900	-7.538440	-0.014282	0.738585	0.641478	-1.000000	-1.000000	-1.000000	-1.000000	-1.000000	-1.000000	-1.000000	138.965517	0.000000	-1.000000	-1.000000	521423.000000	1772919072.724975
-3244.860000	21963.420000	-19953.765000	-14803.245000	0.000000	0.000000	0.000000	0.000000	76.131239	-63.959982	-4.190225	50.479353	-0.000000	0.000000	0.000000	-0.000000	15.900920	17.777900	-7.538440	-0.014282	0.738585	0.641478	-1.000000	-1.000000	-1.000000	-1.000000	-1.000000	-1.000000	-1.000000	138.965517	0.000000	-1.000000	-1.000000	521424.000000	1772919072.724977
-3283.515000	21840.435000	-19917.090000	-14802.390000	0.000000	0.000000	0.000000	0.000000	5.474860	-95.021638	-106.366783	-21.940107	-0.000000	0.000000	0.000000	-0.000000	15.900920	17.777900	-7.538440	-0.014282	0.738585	0.641478	-1.000000	-1.000000	-1.000000	-1.000000	-1.000000	-1.000000	-1.000000	138.965517	0.000000	-1.000000	-1.000000	521425.000000	1772919072.728125
-3239.865000	21844.755000	-19800.225000	-14730.570000	0.000000	0.000000	0.000000	0.000000	-64.113351	-110.566697	-151.644535	-79.666851	-0.000000	0.000000	0.000000	-0.000000	15.900920	17.777900	-7.538440	-0.014282	0.738585	0.641478	-1.000000	-1.000000	-1.000000	-1.000000	-1.000000	-1.000000	-1.000000	138.965517	0.000000	-1.000000	-1.000000	521426.000000	1772919072.728128
-3196.395000	21806.595000	-19754.460000	-14670.180000	0.000000	0.000000	0.000000	0.000000	-91.579322	-93.902286	-114.697317	-85.947828	-0.000000	0.000000	0.000000	-0.000000	15.900920	17.777900	-7.538440	-0.014282	0.738585	0.641478	-1.000000	-1.000000	-1.000000	-1.000000	-1.000000	-1.000000	-1.000000	138.965517	0.000000	-1.000000	-1.000000	521427.000000	1772919072.735410
-3045.330000	21729.780000	-19612.620000	-14470.965000	0.000000	0.000000	0.000000	0.000000	-62.323716	-44.743061	-20.020282	-36.128049	-0.000000	0.000000	0.000000	-0.000000	15.900920	17.777900	-7.538440	-0.014282	0.738585	0.641478	-1.000000	-1.000000	-1.000000	-1.000000	-1.000000	-1.000000	-1.000000	138.965517	0.000000	-1.000000	-1.000000	521428.000000	1772919072.735413
-2880.765000	21779.865000	-19519.110000	-14290.920000	0.000000	0.000000	0.000000	0.000000	6.068057	18.273888	78.487635	42.657629	-0.000000	0.000000	0.000000	-0.000000	15.900920	17.777900	-7.538440	-0.014282	0.738585	0.641478	-1.000000	-1.000000	-1.000000	-1.000000	-1.000000	-1.000000	-1.000000	138.965517	0.000000	-1.000000	-1.000000	521429.000000	1772919072.738362
-2881.845000	21803.445000	-19676.790000	-14365.620000	0.000000	0.000000	0.000000	0.000000	75.425528	73.900833	129.768266	106.445279	-0.000000	0.000000	0.000000	-0.000000	15.900920	17.777900	-7.538440	-0.014282	0.738585	0.641478	-1.000000	-1.000000	-1.000000	-1.000000	-1.000000	-1.000000	-1.000000	138.965517	0.000000	-1.000000	-1.000000	521430.000000	1772919072.738384
-2959.920000	21756.690000	-19803.015000	-14506.470000	0.000000	0.000000	0.000000	0.000000	101.912688	107.115111	104.119557	109.402421	-0.000000	0.000000	0.000000	-0.000000	9.156000	4.623780	-11.780720	-0.025146	0.751402	0.633116	-1.000000	-1.000000	-1.000000	-1.000000	-1.000000	-1.000000	-1.000000	138.965517	0.000000	-1.000000	-1.000000	521431.000000	1772919072.741500
-3155.580000	21735.945000	-19888.875000	-14702.355000	0.000000	0.000000	0.000000	0.000000	60.444441	106.855761	13.448942	34.610218	-0.000000	0.000000	0.000000	-0.000000	9.156000	4.623780	-11.780720	-0.025146	0.751402	0.633116	-1.000000	-1.000000	-1.000000	-1.000000	-1.000000	-1.000000	-1.000000	138.965517	0.000000	-1.000000	-1.000000	521432.000000	1772919072.741502
-3130.875000	21733.605000	-19814.580000	-14677.470000	0.000000	0.000000	0.000000	0.000000	-31.011965	73.581987	-85.294863	-80.409972	-0.000000	0.000000	0.000000	-0.000000	9.156000	4.623780	-11.780720	-0.025146	0.751402	0.633116	-1.000000	-1.000000	-1.000000	-1.000000	-1.000000	-1.000000	-1.000000	138.965517	0.000000	-1.000000	-1.000000	521433.000000	1772919072.744689
-3087.000000	21697.020000	-19759.500000	-14611.680000	0.000000	0.000000	0.000000	0.000000	-114.163210	23.554425	-127.746011	-161.182078	-0.000000	0.000000	0.000000	-0.000000	9.156000	4.623780	-11.780720	-0.025146	0.751402	0.633116	-1.000000	-1.000000	-1.000000	-1.000000	-1.000000	-1.000000	-1.000000	138.965517	0.000000	-1.000000	-1.000000	521434.000000	1772919072.744692
-3243.825000	21655.710000	-19828.170000	-14672.295000	0.000000	0.000000	0.000000	0.000000	-136.444535	-22.940855	-92.967292	-154.577356	-0.000000	0.000000	0.000000	-0.000000	9.156000	4.623780	-11.780720	-0.025146	0.751402	0.633116	-1.000000	-1.000000	-1.000000	-1.000000	-1.000000	-1.000000	-1.000000	138.965517	0.000000	-1.000000	-1.000000	521435.000000	1772919072.748135
-3233.655000	21648.285000	-19732.455000	-14582.880000	0.000000	0.000000	0.000000	0.000000	-95.394247	-52.241753	-14.216092	-70.610566	-0.000000	0.000000	0.000000	-0.000000	9.156000	4.623780	-11.780720	-0.025146	0.751402	0.633116	-1.000000	-1.000000	-1.000000	-1.000000	-1.000000	-1.000000	-1.000000	138.965517	0.000000	-1.000000	-1.000000	521436.000000	1772919072.748138
-3094.155000	21639.555000	-19537.695000	-14402.745000	0.000000	0.000000	0.000000	0.000000	-21.092405	-58.409503	62.988407	40.996613	-0.000000	0.000000	0.000000	-0.000000	9.156000	4.623780	-11.780720	-0.025146	0.751402	0.633116	-1.000000	-1.000000	-1.000000	-1.000000	-1.000000	-1.000000	-1.000000	138.965517	0.000000	-1.000000	-1.000000	521437.000000	1772919072.752286
-2992.410000	21690.270000	-19390.635000	-14353.515000	0.000000	0.000000	0.000000	0.000000	60.030436	-42.460488	114.958106	132.650573	-0.000000	0.000000	0.000000	-0.000000	9.156000	4.623780	-11.780720	-0.025146	0.751402	0.633116	-1.000000	-1.000000	-1.000000	-1.000000	-1.000000	-1.000000	-1.000000	138.965517	0.000000	-1.000000	-1.000000	521438.000000	1772919072.752289
-2870.415000	21715.785000	-19341.765000	-14321.970000	0.000000	0.000000	0.000000	0.000000	125.468808	-11.948936	130.616717	169.812926	-0.000000	0.000000	0.000000	-0.000000	9.156000	4.623780	-11.780720	-0.025146	0.751402	0.633116	-1.000000	-1.000000	-1.000000	-1.000000	-1.000000	-1.000000	-1.000000	138.965517	0.000000	-1.000000	-1.000000	521439.000000	1772919072.756332
-2900.520000	21683.565000	-19490.445000	-14410.080000	0.000000	0.000000	0.000000	0.000000	150.152889	19.035029	97.568087	136.128374	-0.000000	0.000000	0.000000	-0.000000	9.156000	4.623780	-11.780720	-0.025146	0.751402	0.633116	-1.000000	-1.000000	-1.000000	-1.000000	-1.000000	-1.000000	-1.000000	138.965517	0.000000	-1.000000	-1.000000	521440.000000	1772919072.756335
-3265.515000	21631.095000	-19911.195000	-14769.225000	0.000000	0.000000	0.000000	0.000000	111.236601	33.470317	7.666958	39.082765	-0.000000	0.000000	0.000000	-0.000000	-43.399440	-14.100240	4.089680	-0.056579	0.843687	0.631102	-1.000000	-1.000000	-1.000000	-1.000000	-1.000000	-1.000000	-1.000000	138.965517	0.000000	-1.000000	-1.000000	521441.000000	1772919072.760340
-3311.460000	21627.045000	-19924.785000	-14820.345000	0.000000	0.000000	0.000000	0.000000	7.262573	23.726749	-118.852268	-88.845711	-0.000000	0.000000	0.000000	-0.000000	-43.399440	-14.100240	4.089680	-0.056579	0.843687	0.631102	-1.000000	-1.000000	-1.000000	-1.000000	-1.000000	-1.000000	-1.000000	138.965517	0.000000	-1.000000	-1.000000	521442.000000	1772919072.760342
-2990.115000	21702.735000	-19554.795000	-14521.365000	0.000000	0.000000	0.000000	0.000000	-107.751248	1.272525	-208.776209	-181.402416	-0.000000	0.000000	0.000000	-0.000000	-43.399440	-14.100240	4.089680	-0.056579	0.843687	0.631102	-1.000000	-1.000000	-1.000000	-1.000000	-1.000000	-1.000000	-1.000000	138.965517	0.000000	-1.000000	-1.000000	521443.000000	1772919072.764206
-2986.695000	21749.220000	-19493.595000	-14428.980000	0.000000	0.000000	0.000000	0.000000	-149.127446	-12.446829	-180.648616	-168.791275	-0.000000	0.000000	0.000000	-0.000000	-43.399440	-14.100240	4.089680	-0.056579	0.843687	0.631102	-1.000000	-1.000000	-1.000000	-1.000000	-1.000000	-1.000000	-1.000000	138.965517	0.000000	-1.000000	-1.000000	521444.000000	1772919072.764209
-3100.635000	21729.420000	-19489.770000	-14407.290000	0.000000	0.000000	0.000000	0.000000	-94.751736	-8.270167	-40.970099	-52.623837	-0.000000	0.000000	0.000000	-0.000000	-43.399440	-14.100240	4.089680	-0.056579	0.843687	0.631102	-1.000000	-1.000000	-1.000000	-1.000000	-1.000000	-1.000000	-1.000000	138.965517	0.000000	-1.000000	-1.000000	521445.000000	1772919072.768312
-3209.715000	21861.945000	-19535.580000	-14477.850000	0.000000	0.000000	0.000000	0.000000	-7.923544	5.205601	111.080012	83.230225	-0.000000	0.000000	0.000000	-0.000000	-43.399440	-14.100240	4.089680	-0.056579	0.843687	0.631102	-1.000000	-1.000000	-1.000000	-1.000000	-1.000000	-1.000000	-1.000000	138.965517	0.000000	-1.000000	-1.000000	521446.000000	1772919072.768314
-3013.335000	21895.785000	-19551.015000	-14433.885000	0.000000	0.000000	0.000000	0.000000	46.527415	17.607455	180.523063	151.465031	-0.000000	0.000000	0.000000	-0.000000	-43.399440	-14.100240	4.089680	-0.056579	0.843687	0.631102	-1.000000	-1.000000	-1.000000	-1.000000	-1.000000	-1.000000	-1.000000	138.965517	0.000000	-1.000000	-1.000000	521447.000000	1772919072.772383
-2903.670000	21859.650000	-19715.130000	-14503.770000	0.000000	0.000000	0.000000	0.000000	63.234714	21.484616	143.382502	127.610419	-0.000000	0.000000	0.000000	-0.000000	-43.399440	-14.100240	4.089680	-0.056579	0.843687	0.631102	-1.000000	-1.000000	-1.000000	-1.000000	-1.000000	-1.000000	-1.000000	138.965517	0.000000	-1.000000	-1.000000	521448.000000	1772919072.772386
-2896.290000	21760.830000	-19655.865000	-14560.470000	0.000000	0.000000	0.000000	0.000000	65.495358	7.558884	40.340908	44.791586	-0.000000	0.000000	0.000000	-0.000000	-43.399440	-14.100240	4.089680	-0.056579	0.843687	0.631102	-1.000000	-1.000000	-1.000000	-1.000000	-1.000000	-1.000000	-1.000000	138.965517	0.000000	-1.000000	-1.000000	521449.000000	1772919072.776226
-3051.720000	21597.210000	-19686.780000	-14729.445000	0.000000	0.000000	0.000000	0.000000	55.005925	-27.497329	-59.803272	-47.586427	-0.000000	0.000000	0.000000	-0.000000	-43.399440	-14.100240	4.089680	-0.056579	0.843687	0.631102	-1.000000	-1.000000	-1.000000	-1.000000	-1.000000	-1.000000	-1.000000	138.965517	0.000000	-1.000000	-1.000000	521450.000000	1772919072.776228
-3418.020000	21560.985000	-19905.165000	-14869.890000	0.000000	0.000000	0.000000	0.000000	12.287406	-70.204479	-108.710949	-113.065414	-0.000000	0.000000	0.000000	-0.000000	-101.433220	-16.786000	11.811240	-0.049866	0.914365	0.636595	-1.000000	-1.000000	-1.000000	-1.000000	-1.000000	-1.000000	-1.000000	138.965517	0.000000	-1.000000	-1.000000	521451.000000	1772919072.780329
-3235.635000	21555.270000	-19871.325000	-14709.375000	0.000000	0.000000	0.000000	0.000000	-60.569479	-91.981186	-104.236333	-129.176793	-0.000000	0.000000	0.000000	-0.000000	-101.433220	-16.786000	11.811240	-0.049866	0.914365	0.636595	-1.000000	-1.000000	-1.000000	-1.000000	-1.000000	-1.000000	-1.000000	138.965517	0.000000	-1.000000	-1.000000	521452.000000	1772919072.780332
-3128.355000	21595.230000	-19828.665000	-14648.850000	0.000000	0.000000	0.000000	0.000000	-111.653486	-69.203065	-63.269389	-82.747139	-0.000000	0.000000	0.000000	-0.000000	-101.433220	-16.786000	11.811240	-0.049866	0.914365	0.636595	-1.000000	-1.000000	-1.000000	-1.000000	-1.000000	-1.000000	-1.000000	138.965517	0.000000	-1.000000	-1.000000	521453.000000	1772919072.784349
-3328.965000	21720.195000	-19892.700000	-14591.475000	0.000000	0.000000	0.000000	0.000000	-92.322356	-3.842801	-1.431053	11.648984	-0.000000	0.000000	0.000000	-0.000000	-101.433220	-16.786000	11.811240	-0.049866	0.914365	0.636595	-1.000000	-1.000000	-1.000000	-1.000000	-1.000000	-1.000000	-1.000000	138.965517	0.000000	-1.000000	-1.000000	521454.000000	1772919072.784356
-3250.800000	21767.670000	-19683.180000	-14505.975000	0.000000	0.000000	0.000000	0.000000	-20.834207	76.503185	60.669611	106.095550	-0.000000	0.000000	0.000000	-0.000000	-101.433220	-16.786000	11.811240	-0.049866	0.914365	0.636595	-1.000000	-1.000000	-1.000000	-1.000000	-1.000000	-1.000000	-1.000000	138.965517	0.000000	-1.000000	-1.000000	521455.000000	1772919072.788403
-3033.765000	21711.375000	-19579.500000	-14523.075000	0.000000	0.000000	0.000000	0.000000	54.913621	131.098679	106.235930	151.973073	-0.000000	0.000000	0.000000	-0.000000	-101.433220	-16.786000	11.811240	-0.049866	0.914365	0.636595	-1.000000	-1.000000	-1.000000	-1.000000	-1.000000	-1.000000	-1.000000	138.965517	0.000000	-1.000000	-1.000000	521456.000000	1772919072.788405
