Channel1	Channel2	Channel3	Channel4	Channel5	Channel6	Channel7	Channel8	FilteredChannel1	FilteredChannel2	FilteredChannel3	FilteredChannel4	FilteredChannel5	FilteredChannel6	FilteredChannel7	FilteredChannel8	GyroX	GyroY	GyroZ	AccX	AccY	AccZ	PPG1	PPG2	rawPPG1	rawPPG2	rawPPG3	Hr	Hrv	Battery	Trigger	PhysicalTrigger	AutoTrigger	NumMeasurements	Timestamp
-4168.080000	20916.630000	-21532.320000	-14453.640000	0.000000	0.000000	0.000000	0.000000	89.897993	38.784123	152.070585	137.739941	0.000000	-0.000000	-0.000000	-0.000000	4.043900	0.534100	-0.900340	-0.012207	0.918882	0.373778	-1.000000	-1.000000	-1.000000	-1.000000	-1.000000	-1.000000	-1.000000	138.689655	0.000000	-1.000000	-1.000000	635072.000000	1772919300.697687
-4258.260000	20978.550000	-21674.610000	-14582.295000	0.000000	0.000000	0.000000	0.000000	49.403231	35.241242	84.202058	76.125807	0.000000	-0.000000	-0.000000	-0.000000	4.043900	0.534100	-0.900340	-0.012207	0.918882	0.373778	-1.000000	-1.000000	-1.000000	-1.000000	-1.000000	-1.000000	-1.000000	138.689655	0.000000	-1.000000	-1.000000	635073.000000	1772919300.697691
-4340.970000	21009.330000	-21804.480000	-14700.015000	0.000000	0.000000	0.000000	0.000000	-17.249651	11.774439	-28.118954	-25.333343	0.000000	-0.000000	-0.000000	-0.000000	4.043900	0.534100	-0.900340	-0.012207	0.918882	0.373778	-1.000000	-1.000000	-1.000000	-1.000000	-1.000000	-1.000000	-1.000000	138.689655	0.000000	-1.000000	-1.000000	635074.000000	1772919300.697697
-4321.080000	21051.900000	-21774.915000	-14672.475000	0.000000	0.000000	0.000000	0.000000	-74.560529	-15.495231	-125.117865	-112.721211	0.000000	-0.000000	-0.000000	-0.000000	4.043900	0.534100	-0.900340	-0.012207	0.918882	0.373778	-1.000000	-1.000000	-1.000000	-1.000000	-1.000000	-1.000000	-1.000000	138.689655	0.000000	-1.000000	-1.000000	635075.000000	1772919300.697699
-4284.225000	21147.750000	-21714.120000	-14619.060000	0.000000	0.000000	0.000000	0.000000	-91.001380	-31.718990	-154.042673	-138.606912	0.000000	-0.000000	-0.000000	-0.000000	4.043900	0.534100	-0.900340	-0.012207	0.918882	0.373778	-1.000000	-1.000000	-1.000000	-1.000000	-1.000000	-1.000000	-1.000000	138.689655	0.000000	-1.000000	-1.000000	635076.000000	1772919300.697703
-4194.990000	21204.180000	-21579.075000	-14497.695000	0.000000	0.000000	0.000000	0.000000	-56.708568	-29.588236	-98.642387	-88.552554	0.000000	-0.000000	-0.000000	-0.000000	4.043900	0.534100	-0.900340	-0.012207	0.918882	0.373778	-1.000000	-1.000000	-1.000000	-1.000000	-1.000000	-1.000000	-1.000000	138.689655	0.000000	-1.000000	-1.000000	635077.000000	1772919300.697705
-4087.755000	21186.540000	-21413.115000	-14344.785000	0.000000	0.000000	0.000000	0.000000	10.429699	-14.378818	11.320632	10.531172	0.000000	-0.000000	-0.000000	-0.000000	4.043900	0.534100	-0.900340	-0.012207	0.918882	0.373778	-1.000000	-1.000000	-1.000000	-1.000000	-1.000000	-1.000000	-1.000000	138.689655	0.000000	-1.000000	-1.000000	635078.000000	1772919300.699368
-4097.295000	21075.210000	-21427.830000	-14358.105000	0.000000	0.000000	0.000000	0.000000	74.856189	-3.390332	117.468369	106.191389	0.000000	-0.000000	-0.000000	-0.000000	4.043900	0.534100	-0.900340	-0.012207	0.918882	0.373778	-1.000000	-1.000000	-1.000000	-1.000000	-1.000000	-1.000000	-1.000000	138.689655	0.000000	-1.000000	-1.000000	635079.000000	1772919300.699371
-4163.895000	21037.995000	-21519.405000	-14443.740000	0.000000	0.000000	0.000000	0.000000	99.836056	-10.602378	160.670995	145.125215	0.000000	-0.000000	-0.000000	-0.000000	4.043900	0.534100	-0.900340	-0.012207	0.918882	0.373778	-1.000000	-1.000000	-1.000000	-1.000000	-1.000000	-1.000000	-1.000000	138.689655	0.000000	-1.000000	-1.000000	635080.000000	1772919300.705747
-4218.570000	21038.715000	-21617.505000	-14530.095000	0.000000	0.000000	0.000000	0.000000	68.695521	-29.197177	114.352567	103.109450	0.000000	-0.000000	-0.000000	-0.000000	4.043900	0.534100	-0.900340	-0.012207	0.918882	0.373778	-1.000000	-1.000000	-1.000000	-1.000000	-1.000000	-1.000000	-1.000000	138.689655	0.000000	-1.000000	-1.000000	635081.000000	1772919300.705752
-4218.570000	21038.715000	-21617.505000	-14530.095000	0.000000	0.000000	0.000000	0.000000	-0.074833	-36.965717	6.781897	5.679732	0.000000	-0.000000	-0.000000	-0.000000	4.043900	0.534100	-0.900340	-0.012207	0.918882	0.373778	-1.000000	-1.000000	-1.000000	-1.000000	-1.000000	-1.000000	-1.000000	138.689655	0.000000	-1.000000	-1.000000	635082.000000	1772919300.707749
-4218.570000	21038.715000	-21617.505000	-14530.095000	0.000000	0.000000	0.000000	0.000000	-64.374632	-20.288069	-96.335420	-87.566134	0.000000	-0.000000	-0.000000	-0.000000	4.043900	0.534100	-0.900340	-0.012207	0.918882	0.373778	-1.000000	-1.000000	-1.000000	-1.000000	-1.000000	-1.000000	-1.000000	138.689655	0.000000	-1.000000	-1.000000	635083.000000	1772919300.707751
-4218.570000	21038.715000	-21617.505000	-14530.095000	0.000000	0.000000	0.000000	0.000000	-89.811053	13.859053	-139.677265	-126.601651	0.000000	-0.000000	-0.000000	-0.000000	4.043900	0.534100	-0.900340	-0.012207	0.918882	0.373778	-1.000000	-1.000000	-1.000000	-1.000000	-1.000000	-1.000000	-1.000000	138.689655	0.000000	-1.000000	-1.000000	635084.000000	1772919300.707753
-4068.630000	20826.810000	-21411.405000	-14337.270000	0.000000	0.000000	0.000000	0.000000	-67.927255	43.028160	-108.582966	-98.200283	0.000000	-0.000000	-0.000000	-0.000000	4.715340	-0.045780	-0.259420	-0.012451	0.917661	0.374511	-1.000000	-1.000000	-1.000000	-1.000000	-1.000000	-1.000000	-1.000000	138.689655	0.000000	-1.000000	-1.000000	635086.000000	1772919300.715294
-4049.820000	20829.645000	-21375.450000	-14302.170000	0.000000	0.000000	0.000000	0.000000	-12.903668	45.491694	-25.067280	-22.131384	0.000000	-0.000000	-0.000000	-0.000000	4.715340	-0.045780	-0.259420	-0.012451	0.917661	0.374511	-1.000000	-1.000000	-1.000000	-1.000000	-1.000000	-1.000000	-1.000000	138.689655	0.000000	-1.000000	-1.000000	635087.000000	1772919300.715297
-4106.205000	20795.940000	-21455.235000	-14376.690000	0.000000	0.000000	0.000000	0.000000	43.476315	23.543968	62.217802	57.407490	0.000000	-0.000000	-0.000000	-0.000000	4.715340	-0.045780	-0.259420	-0.012451	0.917661	0.374511	-1.000000	-1.000000	-1.000000	-1.000000	-1.000000	-1.000000	-1.000000	138.689655	0.000000	-1.000000	-1.000000	635088.000000	1772919300.719380
-4158.180000	20715.120000	-21542.265000	-14457.195000	0.000000	0.000000	0.000000	0.000000	65.817027	0.072066	99.590643	91.130833	0.000000	-0.000000	-0.000000	-0.000000	4.715340	-0.045780	-0.259420	-0.012451	0.917661	0.374511	-1.000000	-1.000000	-1.000000	-1.000000	-1.000000	-1.000000	-1.000000	138.689655	0.000000	-1.000000	-1.000000	635089.000000	1772919300.719384
-4250.385000	20701.395000	-21703.230000	-14601.690000	0.000000	0.000000	0.000000	0.000000	41.721984	-9.208027	66.362284	59.996354	0.000000	-0.000000	-0.000000	-0.000000	4.715340	-0.045780	-0.259420	-0.012451	0.917661	0.374511	-1.000000	-1.000000	-1.000000	-1.000000	-1.000000	-1.000000	-1.000000	138.689655	0.000000	-1.000000	-1.000000	635090.000000	1772919300.723413
-4251.735000	20567.430000	-21735.900000	-14631.480000	0.000000	0.000000	0.000000	0.000000	-8.938906	-5.413440	-10.496506	-10.917581	0.000000	-0.000000	-0.000000	-0.000000	4.715340	-0.045780	-0.259420	-0.012451	0.917661	0.374511	-1.000000	-1.000000	-1.000000	-1.000000	-1.000000	-1.000000	-1.000000	138.689655	0.000000	-1.000000	-1.000000	635091.000000	1772919300.723416
-4201.605000	20497.095000	-21666.825000	-14568.570000	0.000000	0.000000	0.000000	0.000000	-49.408115	1.029464	-75.894335	-70.810321	0.000000	-0.000000	-0.000000	-0.000000	5.844580	-0.015260	-0.473060	-0.012939	0.915952	0.375060	-1.000000	-1.000000	-1.000000	-1.000000	-1.000000	-1.000000	-1.000000	138.689655	0.000000	-1.000000	-1.000000	635092.000000	1772919300.727442
-4166.280000	20511.090000	-21590.865000	-14500.440000	0.000000	0.000000	0.000000	0.000000	-51.822661	3.706778	-83.457541	-77.362153	0.000000	-0.000000	-0.000000	-0.000000	5.844580	-0.015260	-0.473060	-0.012939	0.915952	0.375060	-1.000000	-1.000000	-1.000000	-1.000000	-1.000000	-1.000000	-1.000000	138.689655	0.000000	-1.000000	-1.000000	635093.000000	1772919300.727445
-4079.115000	20496.285000	-21447.135000	-14363.370000	0.000000	0.000000	0.000000	0.000000	-16.177437	7.786569	-27.577752	-25.689265	0.000000	-0.000000	-0.000000	-0.000000	5.844580	-0.015260	-0.473060	-0.012939	0.915952	0.375060	-1.000000	-1.000000	-1.000000	-1.000000	-1.000000	-1.000000	-1.000000	138.689655	0.000000	-1.000000	-1.000000	635094.000000	1772919300.731358
-4038.930000	20528.415000	-21363.840000	-14286.555000	0.000000	0.000000	0.000000	0.000000	33.642858	18.893475	56.293692	51.780121	0.000000	-0.000000	-0.000000	-0.000000	5.844580	-0.015260	-0.473060	-0.012939	0.915952	0.375060	-1.000000	-1.000000	-1.000000	-1.000000	-1.000000	-1.000000	-1.000000	138.689655	0.000000	-1.000000	-1.000000	635095.000000	1772919300.731361
-4061.520000	20500.380000	-21405.645000	-14326.380000	0.000000	0.000000	0.000000	0.000000	67.059078	32.451473	116.218672	107.362351	0.000000	-0.000000	-0.000000	-0.000000	5.844580	-0.015260	-0.473060	-0.012939	0.915952	0.375060	-1.000000	-1.000000	-1.000000	-1.000000	-1.000000	-1.000000	-1.000000	138.689655	0.000000	-1.000000	-1.000000	635096.000000	1772919300.735535
-4107.825000	20508.795000	-21483.180000	-14397.750000	0.000000	0.000000	0.000000	0.000000	62.933883	37.611314	112.709423	104.373901	0.000000	-0.000000	-0.000000	-0.000000	5.844580	-0.015260	-0.473060	-0.012939	0.915952	0.375060	-1.000000	-1.000000	-1.000000	-1.000000	-1.000000	-1.000000	-1.000000	138.689655	0.000000	-1.000000	-1.000000	635097.000000	1772919300.735538
-4206.780000	20575.980000	-21635.235000	-14535.495000	0.000000	0.000000	0.000000	0.000000	21.063467	29.078787	42.244571	39.367645	0.000000	-0.000000	-0.000000	-0.000000	5.844580	-0.015260	-0.473060	-0.012939	0.915952	0.375060	-1.000000	-1.000000	-1.000000	-1.000000	-1.000000	-1.000000	-1.000000	138.689655	0.000000	-1.000000	-1.000000	635098.000000	1772919300.741354
-4277.925000	20605.995000	-21753.585000	-14643.990000	0.000000	0.000000	0.000000	0.000000	-37.899135	12.807655	-60.201198	-55.199902	0.000000	-0.000000	-0.000000	-0.000000	5.844580	-0.015260	-0.473060	-0.012939	0.915952	0.375060	-1.000000	-1.000000	-1.000000	-1.000000	-1.000000	-1.000000	-1.000000	138.689655	0.000000	-1.000000	-1.000000	635099.000000	1772919300.741357
-4243.455000	20586.240000	-21705.345000	-14598.405000	0.000000	0.000000	0.000000	0.000000	-82.355855	-3.789703	-139.621335	-128.411958	0.000000	-0.000000	-0.000000	-0.000000	5.844580	-0.015260	-0.473060	-0.012939	0.915952	0.375060	-1.000000	-1.000000	-1.000000	-1.000000	-1.000000	-1.000000	-1.000000	138.689655	0.000000	-1.000000	-1.000000	635100.000000	1772919300.743402
-4198.590000	20556.585000	-21633.480000	-14532.615000	0.000000	0.000000	0.000000	0.000000	-84.968423	-20.473731	-148.882929	-136.907068	0.000000	-0.000000	-0.000000	-0.000000	5.844580	-0.015260	-0.473060	-0.012939	0.915952	0.375060	-1.000000	-1.000000	-1.000000	-1.000000	-1.000000	-1.000000	-1.000000	138.689655	0.000000	-1.000000	-1.000000	635101.000000	1772919300.743405
-4111.065000	20455.920000	-21499.290000	-14413.230000	0.000000	0.000000	0.000000	0.000000	-40.581063	-39.488949	-78.279659	-72.019590	0.000000	-0.000000	-0.000000	-0.000000	6.943300	0.137340	0.656180	-0.013061	0.915708	0.375854	-1.000000	-1.000000	-1.000000	-1.000000	-1.000000	-1.000000	-1.000000	138.689655	0.000000	-1.000000	-1.000000	635102.000000	1772919300.747477
-4028.715000	20448.315000	-21359.385000	-14284.125000	0.000000	0.000000	0.000000	0.000000	28.685289	-57.656826	36.484989	33.169784	0.000000	-0.000000	-0.000000	-0.000000	6.943300	0.137340	0.656180	-0.013061	0.915708	0.375854	-1.000000	-1.000000	-1.000000	-1.000000	-1.000000	-1.000000	-1.000000	138.689655	0.000000	-1.000000	-1.000000	635103.000000	1772919300.747480
-4066.650000	20614.545000	-21400.605000	-14324.310000	0.000000	0.000000	0.000000	0.000000	85.852318	-60.728792	134.936233	123.208286	0.000000	-0.000000	-0.000000	-0.000000	6.943300	0.137340	0.656180	-0.013061	0.915708	0.375854	-1.000000	-1.000000	-1.000000	-1.000000	-1.000000	-1.000000	-1.000000	138.689655	0.000000	-1.000000	-1.000000	635104.000000	1772919300.751445
-4110.390000	20646.135000	-21475.305000	-14394.105000	0.000000	0.000000	0.000000	0.000000	98.299303	-32.893267	162.779824	148.588218	0.000000	-0.000000	-0.000000	-0.000000	6.943300	0.137340	0.656180	-0.013061	0.915708	0.375854	-1.000000	-1.000000	-1.000000	-1.000000	-1.000000	-1.000000	-1.000000	138.689655	0.000000	-1.000000	-1.000000	635105.000000	1772919300.751448
-4160.790000	20544.120000	-21574.620000	-14481.270000	0.000000	0.000000	0.000000	0.000000	58.215848	15.700044	103.688275	94.600699	0.000000	-0.000000	-0.000000	-0.000000	6.943300	0.137340	0.656180	-0.013061	0.915708	0.375854	-1.000000	-1.000000	-1.000000	-1.000000	-1.000000	-1.000000	-1.000000	138.689655	0.000000	-1.000000	-1.000000	635106.000000	1772919300.755520
-4232.205000	20409.345000	-21708.315000	-14601.150000	0.000000	0.000000	0.000000	0.000000	-11.219769	47.020045	-9.017243	-7.985877	0.000000	-0.000000	-0.000000	-0.000000	6.943300	0.137340	0.656180	-0.013061	0.915708	0.375854	-1.000000	-1.000000	-1.000000	-1.000000	-1.000000	-1.000000	-1.000000	138.689655	0.000000	-1.000000	-1.000000	635107.000000	1772919300.755523
-4224.960000	20302.560000	-21689.460000	-14581.890000	0.000000	0.000000	0.000000	0.000000	-72.183755	34.110393	-114.013856	-103.083634	0.000000	-0.000000	-0.000000	-0.000000	6.943300	0.137340	0.656180	-0.013061	0.915708	0.375854	-1.000000	-1.000000	-1.000000	-1.000000	-1.000000	-1.000000	-1.000000	138.689655	0.000000	-1.000000	-1.000000	635108.000000	1772919300.759504
-4199.445000	20321.910000	-21633.705000	-14530.545000	0.000000	0.000000	0.000000	0.000000	-93.797224	-9.141199	-155.727126	-140.434049	0.000000	-0.000000	-0.000000	-0.000000	6.943300	0.137340	0.656180	-0.013061	0.915708	0.375854	-1.000000	-1.000000	-1.000000	-1.000000	-1.000000	-1.000000	-1.000000	138.689655	0.000000	-1.000000	-1.000000	635109.000000	1772919300.759506
-4155.570000	20393.685000	-21549.780000	-14457.240000	0.000000	0.000000	0.000000	0.000000	-67.276584	-40.759791	-114.032776	-102.380038	0.000000	-0.000000	-0.000000	-0.000000	6.943300	0.137340	0.656180	-0.013061	0.915708	0.375854	-1.000000	-1.000000	-1.000000	-1.000000	-1.000000	-1.000000	-1.000000	138.689655	0.000000	-1.000000	-1.000000	635110.000000	1772919300.763475
-4062.015000	20525.220000	-21398.670000	-14322.420000	0.000000	0.000000	0.000000	0.000000	-8.721939	-28.371823	-14.534707	-12.674112	0.000000	-0.000000	-0.000000	-0.000000	6.943300	0.137340	0.656180	-0.013061	0.915708	0.375854	-1.000000	-1.000000	-1.000000	-1.000000	-1.000000	-1.000000	-1.000000	138.689655	0.000000	-1.000000	-1.000000	635111.000000	1772919300.763478
-4030.245000	20566.350000	-21363.030000	-14289.390000	0.000000	0.000000	0.000000	0.000000	52.231754	23.479446	89.667559	80.635481	0.000000	-0.000000	-0.000000	-0.000000	7.172200	0.244160	-0.289940	-0.010681	0.916563	0.374633	-1.000000	-1.000000	-1.000000	-1.000000	-1.000000	-1.000000	-1.000000	138.689655	0.000000	-1.000000	-1.000000	635112.000000	1772919300.767520
-4064.355000	20571.705000	-21428.820000	-14353.110000	0.000000	0.000000	0.000000	0.000000	85.869229	76.993227	144.837067	129.555328	0.000000	-0.000000	-0.000000	-0.000000	7.172200	0.244160	-0.289940	-0.010681	0.916563	0.374633	-1.000000	-1.000000	-1.000000	-1.000000	-1.000000	-1.000000	-1.000000	138.689655	0.000000	-1.000000	-1.000000	635113.000000	1772919300.767523
-4141.350000	20583.810000	-21532.545000	-14449.770000	0.000000	0.000000	0.000000	0.000000	74.185164	92.122534	121.375617	107.832975	0.000000	-0.000000	-0.000000	-0.000000	7.172200	0.244160	-0.289940	-0.010681	0.916563	0.374633	-1.000000	-1.000000	-1.000000	-1.000000	-1.000000	-1.000000	-1.000000	138.689655	0.000000	-1.000000	-1.000000	635114.000000	1772919300.773838
-4250.925000	20521.440000	-21705.975000	-14605.740000	0.000000	0.000000	0.000000	0.000000	21.333748	56.788874	31.003837	26.226754	0.000000	-0.000000	-0.000000	-0.000000	7.172200	0.244160	-0.289940	-0.010681	0.916563	0.374633	-1.000000	-1.000000	-1.000000	-1.000000	-1.000000	-1.000000	-1.000000	138.689655	0.000000	-1.000000	-1.000000	635115.000000	1772919300.773841
-4230.720000	20306.745000	-21707.190000	-14604.255000	0.000000	0.000000	0.000000	0.000000	-44.828289	-13.297140	-77.580863	-71.091190	0.000000	-0.000000	-0.000000	-0.000000	7.172200	0.244160	-0.289940	-0.010681	0.916563	0.374633	-1.000000	-1.000000	-1.000000	-1.000000	-1.000000	-1.000000	-1.000000	138.689655	0.000000	-1.000000	-1.000000	635116.000000	1772919300.775548
-4161.915000	20064.645000	-21619.395000	-14515.875000	0.000000	0.000000	0.000000	0.000000	-84.677415	-92.959039	-142.318981	-127.918182	0.000000	-0.000000	-0.000000	-0.000000	7.172200	0.244160	-0.289940	-0.010681	0.916563	0.374633	-1.000000	-1.000000	-1.000000	-1.000000	-1.000000	-1.000000	-1.000000	138.689655	0.000000	-1.000000	-1.000000	635117.000000	1772919300.775551
-4123.080000	20035.305000	-21552.840000	-14452.560000	0.000000	0.000000	0.000000	0.000000	-72.790802	-151.562475	-124.481663	-109.600457	0.000000	-0.000000	-0.000000	-0.000000	7.172200	0.244160	-0.289940	-0.010681	0.916563	0.374633	-1.000000	-1.000000	-1.000000	-1.000000	-1.000000	-1.000000	-1.000000	138.689655	0.000000	-1.000000	-1.000000	635118.000000	1772919300.782456
-4044.915000	20125.530000	-21409.965000	-14328.765000	0.000000	0.000000	0.000000	0.000000	-18.247814	-151.867865	-36.229913	-28.348510	0.000000	-0.000000	-0.000000	-0.000000	7.172200	0.244160	-0.289940	-0.010681	0.916563	0.374633	-1.000000	-1.000000	-1.000000	-1.000000	-1.000000	-1.000000	-1.000000	138.689655	0.000000	-1.000000	-1.000000	635119.000000	1772919300.782459
-4012.605000	20199.960000	-21344.040000	-14270.265000	0.000000	0.000000	0.000000	0.000000	44.531748	-74.698549	70.557288	67.467403	0.000000	-0.000000	-0.000000	-0.000000	7.172200	0.244160	-0.289940	-0.010681	0.916563	0.374633	-1.000000	-1.000000	-1.000000	-1.000000	-1.000000	-1.000000	-1.000000	138.689655	0.000000	-1.000000	-1.000000	635120.000000	1772919300.790230
-4041.090000	20201.085000	-21392.235000	-14315.805000	0.000000	0.000000	0.000000	0.000000	80.188225	50.505549	137.524825	125.023217	0.000000	-0.000000	-0.000000	-0.000000	7.172200	0.244160	-0.289940	-0.010681	0.916563	0.374633	-1.000000	-1.000000	-1.000000	-1.000000	-1.000000	-1.000000	-1.000000	138.689655	0.000000	-1.000000	-1.000000	635121.000000	1772919300.790233
-4085.820000	20197.755000	-21465.090000	-14381.505000	0.000000	0.000000	0.000000	0.000000	70.366683	157.405051	128.942271	113.729691	0.000000	-0.000000	-0.000000	-0.000000	6.805960	0.579880	-0.610400	-0.008728	0.917112	0.374511	-1.000000	-1.000000	-1.000000	-1.000000	-1.000000	-1.000000	-1.000000	138.689655	0.000000	-1.000000	-1.000000	635122.000000	1772919300.790237
-4184.505000	20177.685000	-21616.605000	-14515.920000	0.000000	0.000000	0.000000	0.000000	21.294473	191.108536	49.884040	40.240345	0.000000	-0.000000	-0.000000	-0.000000	6.805960	0.579880	-0.610400	-0.008728	0.917112	0.374511	-1.000000	-1.000000	-1.000000	-1.000000	-1.000000	-1.000000	-1.000000	138.689655	0.000000	-1.000000	-1.000000	635123.000000	1772919300.790239
-4232.250000	20112.885000	-21714.705000	-14606.010000	0.000000	0.000000	0.000000	0.000000	-41.069080	142.174551	-57.746025	-56.615718	0.000000	-0.000000	-0.000000	-0.000000	6.805960	0.579880	-0.610400	-0.008728	0.917112	0.374511	-1.000000	-1.000000	-1.000000	-1.000000	-1.000000	-1.000000	-1.000000	138.689655	0.000000	-1.000000	-1.000000	635124.000000	1772919300.803578
-4189.905000	20073.735000	-21656.205000	-14550.030000	0.000000	0.000000	0.000000	0.000000	-83.385152	42.694889	-136.845827	-125.819606	0.000000	-0.000000	-0.000000	-0.000000	6.805960	0.579880	-0.610400	-0.008728	0.917112	0.374511	-1.000000	-1.000000	-1.000000	-1.000000	-1.000000	-1.000000	-1.000000	138.689655	0.000000	-1.000000	-1.000000	635125.000000	1772919300.803581
-4137.345000	20077.155000	-21572.145000	-14472.720000	0.000000	0.000000	0.000000	0.000000	-80.742172	-57.151657	-142.601726	-128.244411	0.000000	-0.000000	-0.000000	-0.000000	6.805960	0.579880	-0.610400	-0.008728	0.917112	0.374511	-1.000000	-1.000000	-1.000000	-1.000000	-1.000000	-1.000000	-1.000000	138.689655	0.000000	-1.000000	-1.000000	635126.000000	1772919300.803586
-4074.165000	20125.395000	-21456.945000	-14373.495000	0.000000	0.000000	0.000000	0.000000	-33.162662	-113.888513	-70.047677	-60.720216	0.000000	-0.000000	-0.000000	-0.000000	6.805960	0.579880	-0.610400	-0.008728	0.917112	0.374511	-1.000000	-1.000000	-1.000000	-1.000000	-1.000000	-1.000000	-1.000000	138.689655	0.000000	-1.000000	-1.000000	635127.000000	1772919300.803588
-4027.815000	20156.580000	-21360.240000	-14288.715000	0.000000	0.000000	0.000000	0.000000	32.683857	-110.414833	40.586032	39.493826	0.000000	-0.000000	-0.000000	-0.000000	6.805960	0.579880	-0.610400	-0.008728	0.917112	0.374511	-1.000000	-1.000000	-1.000000	-1.000000	-1.000000	-1.000000	-1.000000	138.689655	0.000000	-1.000000	-1.000000	635128.000000	1772919300.803680
-4061.655000	20208.510000	-21401.640000	-14329.170000	0.000000	0.000000	0.000000	0.000000	80.250180	-61.350019	128.434531	117.444937	0.000000	-0.000000	-0.000000	-0.000000	6.805960	0.579880	-0.610400	-0.008728	0.917112	0.374511	-1.000000	-1.000000	-1.000000	-1.000000	-1.000000	-1.000000	-1.000000	138.689655	0.000000	-1.000000	-1.000000	635129.000000	1772919300.803683
-4100.040000	20275.695000	-21463.875000	-14387.085000	0.000000	0.000000	0.000000	0.000000	83.970082	1.043795	145.942425	131.257180	0.000000	-0.000000	-0.000000	-0.000000	6.805960	0.579880	-0.610400	-0.008728	0.917112	0.374511	-1.000000	-1.000000	-1.000000	-1.000000	-1.000000	-1.000000	-1.000000	138.689655	0.000000	-1.000000	-1.000000	635130.000000	1772919300.807359
-4170.465000	20294.730000	-21582.315000	-14493.645000	0.000000	0.000000	0.000000	0.000000	43.272503	46.992485	85.188576	75.103501	0.000000	-0.000000	-0.000000	-0.000000	6.805960	0.579880	-0.610400	-0.008728	0.917112	0.374511	-1.000000	-1.000000	-1.000000	-1.000000	-1.000000	-1.000000	-1.000000	138.689655	0.000000	-1.000000	-1.000000	635131.000000	1772919300.807362
-4266.720000	20352.240000	-21739.815000	-14639.535000	0.000000	0.000000	0.000000	0.000000	-19.126380	60.822422	-19.889096	-19.704560	0.000000	-0.000000	-0.000000	-0.000000	6.363420	0.564620	-0.564620	-0.009277	0.916929	0.373778	-1.000000	-1.000000	-1.000000	-1.000000	-1.000000	-1.000000	-1.000000	138.689655	0.000000	-1.000000	-1.000000	635132.000000	1772919300.814964
-4251.060000	20373.030000	-21720.870000	-14620.815000	0.000000	0.000000	0.000000	0.000000	-71.195435	44.184151	-114.358171	-103.867481	0.000000	-0.000000	-0.000000	-0.000000	6.363420	0.564620	-0.564620	-0.009277	0.916929	0.373778	-1.000000	-1.000000	-1.000000	-1.000000	-1.000000	-1.000000	-1.000000	138.689655	0.000000	-1.000000	-1.000000	635133.000000	1772919300.814968
-4202.865000	20352.555000	-21643.335000	-14548.680000	0.000000	0.000000	0.000000	0.000000	-85.316469	10.224620	-147.396732	-132.199476	0.000000	-0.000000	-0.000000	-0.000000	6.363420	0.564620	-0.564620	-0.009277	0.916929	0.373778	-1.000000	-1.000000	-1.000000	-1.000000	-1.000000	-1.000000	-1.000000	138.689655	0.000000	-1.000000	-1.000000	635134.000000	1772919300.814972
-4144.905000	20376.495000	-21540.375000	-14458.095000	0.000000	0.000000	0.000000	0.000000	-52.440705	-25.797773	-99.101305	-87.348148	0.000000	-0.000000	-0.000000	-0.000000	6.363420	0.564620	-0.564620	-0.009277	0.916929	0.373778	-1.000000	-1.000000	-1.000000	-1.000000	-1.000000	-1.000000	-1.000000	138.689655	0.000000	-1.000000	-1.000000	635135.000000	1772919300.814975
-4049.955000	20448.000000	-21382.020000	-14315.355000	0.000000	0.000000	0.000000	0.000000	10.345983	-48.938472	4.909394	6.967253	0.000000	-0.000000	-0.000000	-0.000000	6.363420	0.564620	-0.564620	-0.009277	0.916929	0.373778	-1.000000	-1.000000	-1.000000	-1.000000	-1.000000	-1.000000	-1.000000	138.689655	0.000000	-1.000000	-1.000000	635136.000000	1772919300.815852
-4058.955000	20533.410000	-21385.665000	-14321.880000	0.000000	0.000000	0.000000	0.000000	69.462987	-47.493637	108.384478	99.663939	0.000000	-0.000000	-0.000000	-0.000000	6.363420	0.564620	-0.564620	-0.009277	0.916929	0.373778	-1.000000	-1.000000	-1.000000	-1.000000	-1.000000	-1.000000	-1.000000	138.689655	0.000000	-1.000000	-1.000000	635137.000000	1772919300.815855
-4117.320000	20636.865000	-21469.770000	-14404.770000	0.000000	0.000000	0.000000	0.000000	92.135782	-21.330412	153.996876	139.203034	0.000000	-0.000000	-0.000000	-0.000000	6.363420	0.564620	-0.564620	-0.009277	0.916929	0.373778	-1.000000	-1.000000	-1.000000	-1.000000	-1.000000	-1.000000	-1.000000	138.689655	0.000000	-1.000000	-1.000000	635138.000000	1772919300.819715
-4180.140000	20664.945000	-21574.305000	-14493.375000	0.000000	0.000000	0.000000	0.000000	64.179807	14.737687	114.592575	101.803289	0.000000	-0.000000	-0.000000	-0.000000	6.363420	0.564620	-0.564620	-0.009277	0.916929	0.373778	-1.000000	-1.000000	-1.000000	-1.000000	-1.000000	-1.000000	-1.000000	138.689655	0.000000	-1.000000	-1.000000	635139.000000	1772919300.819719
-4272.840000	20624.895000	-21740.580000	-14635.845000	0.000000	0.000000	0.000000	0.000000	0.321951	37.295986	11.189723	7.763635	0.000000	-0.000000	-0.000000	-0.000000	6.363420	0.564620	-0.564620	-0.009277	0.916929	0.373778	-1.000000	-1.000000	-1.000000	-1.000000	-1.000000	-1.000000	-1.000000	138.689655	0.000000	-1.000000	-1.000000	635140.000000	1772919300.823719
-4280.220000	20600.010000	-21755.340000	-14651.955000	0.000000	0.000000	0.000000	0.000000	-64.414210	29.486365	-99.677086	-91.086649	0.000000	-0.000000	-0.000000	-0.000000	6.363420	0.564620	-0.564620	-0.009277	0.916929	0.373778	-1.000000	-1.000000	-1.000000	-1.000000	-1.000000	-1.000000	-1.000000	138.689655	0.000000	-1.000000	-1.000000	635141.000000	1772919300.823722
-4227.975000	20569.545000	-21673.080000	-14579.055000	0.000000	0.000000	0.000000	0.000000	-94.236260	-4.317503	-156.469034	-140.298799	0.000000	-0.000000	-0.000000	-0.000000	6.744920	0.961380	-0.503580	-0.011047	0.918394	0.373168	-1.000000	-1.000000	-1.000000	-1.000000	-1.000000	-1.000000	-1.000000	138.689655	0.000000	-1.000000	-1.000000	635142.000000	1772919300.827776
-4171.815000	20528.865000	-21584.835000	-14499.765000	0.000000	0.000000	0.000000	0.000000	-72.112514	-41.786461	-126.408838	-112.165187	0.000000	-0.000000	-0.000000	-0.000000	6.744920	0.961380	-0.503580	-0.011047	0.918394	0.373168	-1.000000	-1.000000	-1.000000	-1.000000	-1.000000	-1.000000	-1.000000	138.689655	0.000000	-1.000000	-1.000000	635143.000000	1772919300.827778
-4081.185000	20586.780000	-21431.565000	-14361.660000	0.000000	0.000000	0.000000	0.000000	-10.521535	-59.214334	-26.715577	-22.845059	0.000000	-0.000000	-0.000000	-0.000000	6.744920	0.961380	-0.503580	-0.011047	0.918394	0.373168	-1.000000	-1.000000	-1.000000	-1.000000	-1.000000	-1.000000	-1.000000	138.689655	0.000000	-1.000000	-1.000000	635144.000000	1772919300.831638
-4039.380000	20580.795000	-21366.045000	-14299.335000	0.000000	0.000000	0.000000	0.000000	56.851627	-44.882609	87.429551	78.709979	0.000000	-0.000000	-0.000000	-0.000000	6.744920	0.961380	-0.503580	-0.011047	0.918394	0.373168	-1.000000	-1.000000	-1.000000	-1.000000	-1.000000	-1.000000	-1.000000	138.689655	0.000000	-1.000000	-1.000000	635145.000000	1772919300.831642
-4071.420000	20536.965000	-21418.515000	-14346.495000	0.000000	0.000000	0.000000	0.000000	94.298097	-7.434035	154.896736	138.545014	0.000000	-0.000000	-0.000000	-0.000000	6.744920	0.961380	-0.503580	-0.011047	0.918394	0.373168	-1.000000	-1.000000	-1.000000	-1.000000	-1.000000	-1.000000	-1.000000	138.689655	0.000000	-1.000000	-1.000000	635146.000000	1772919300.835702
-4123.620000	20576.295000	-21494.115000	-14416.155000	0.000000	0.000000	0.000000	0.000000	81.668515	30.285838	139.491051	124.496561	0.000000	-0.000000	-0.000000	-0.000000	6.744920	0.961380	-0.503580	-0.011047	0.918394	0.373168	-1.000000	-1.000000	-1.000000	-1.000000	-1.000000	-1.000000	-1.000000	138.689655	0.000000	-1.000000	-1.000000	635147.000000	1772919300.835705
-4215.465000	20603.610000	-21639.915000	-14549.175000	0.000000	0.000000	0.000000	0.000000	25.169965	52.004858	49.736486	43.863185	0.000000	-0.000000	-0.000000	-0.000000	6.744920	0.961380	-0.503580	-0.011047	0.918394	0.373168	-1.000000	-1.000000	-1.000000	-1.000000	-1.000000	-1.000000	-1.000000	138.689655	0.000000	-1.000000	-1.000000	635148.000000	1772919300.839848
-4272.390000	20585.655000	-21726.990000	-14625.765000	0.000000	0.000000	0.000000	0.000000	-46.042993	55.056255	-66.802951	-60.934515	0.000000	-0.000000	-0.000000	-0.000000	6.744920	0.961380	-0.503580	-0.011047	0.918394	0.373168	-1.000000	-1.000000	-1.000000	-1.000000	-1.000000	-1.000000	-1.000000	138.689655	0.000000	-1.000000	-1.000000	635149.000000	1772919300.839850
-4261.905000	20539.125000	-21701.475000	-14598.090000	0.000000	0.000000	0.000000	0.000000	-95.269867	41.126523	-149.594181	-135.227424	0.000000	-0.000000	-0.000000	-0.000000	6.744920	0.961380	-0.503580	-0.011047	0.918394	0.373168	-1.000000	-1.000000	-1.000000	-1.000000	-1.000000	-1.000000	-1.000000	138.689655	0.000000	-1.000000	-1.000000	635150.000000	1772919300.843788
-4219.830000	20572.515000	-21644.415000	-14548.590000	0.000000	0.000000	0.000000	0.000000	-96.541518	15.010747	-155.487919	-139.869387	0.000000	-0.000000	-0.000000	-0.000000	6.744920	0.961380	-0.503580	-0.011047	0.918394	0.373168	-1.000000	-1.000000	-1.000000	-1.000000	-1.000000	-1.000000	-1.000000	138.689655	0.000000	-1.000000	-1.000000	635151.000000	1772919300.843791
-4129.830000	20641.905000	-21509.145000	-14429.205000	0.000000	0.000000	0.000000	0.000000	-48.519898	-9.950300	-81.977533	-72.976871	0.000000	-0.000000	-0.000000	-0.000000	5.417300	0.747740	0.457800	-0.011597	0.918821	0.373534	-1.000000	-1.000000	-1.000000	-1.000000	-1.000000	-1.000000	-1.000000	138.689655	0.000000	-1.000000	-1.000000	635152.000000	1772919300.847982
-4049.415000	20694.780000	-21380.895000	-14314.275000	0.000000	0.000000	0.000000	0.000000	25.014541	-18.802193	32.864979	30.461518	0.000000	-0.000000	-0.000000	-0.000000	5.417300	0.747740	0.457800	-0.011597	0.918821	0.373534	-1.000000	-1.000000	-1.000000	-1.000000	-1.000000	-1.000000	-1.000000	138.689655	0.000000	-1.000000	-1.000000	635153.000000	1772919300.847985
-4060.710000	20656.935000	-21410.820000	-14340.420000	0.000000	0.000000	0.000000	0.000000	87.121494	-10.976514	130.855488	118.025890	0.000000	-0.000000	-0.000000	-0.000000	5.417300	0.747740	0.457800	-0.011597	0.918821	0.373534	-1.000000	-1.000000	-1.000000	-1.000000	-1.000000	-1.000000	-1.000000	138.689655	0.000000	-1.000000	-1.000000	635154.000000	1772919300.851813
-4109.445000	20612.655000	-21488.175000	-14410.350000	0.000000	0.000000	0.000000	0.000000	104.909257	-2.270627	160.330331	143.859687	0.000000	-0.000000	-0.000000	-0.000000	5.417300	0.747740	0.457800	-0.011597	0.918821	0.373534	-1.000000	-1.000000	-1.000000	-1.000000	-1.000000	-1.000000	-1.000000	138.689655	0.000000	-1.000000	-1.000000	635155.000000	1772919300.851816
-4194.045000	20594.745000	-21623.220000	-14532.165000	0.000000	0.000000	0.000000	0.000000	67.865949	-6.675947	104.533591	93.412729	0.000000	-0.000000	-0.000000	-0.000000	5.417300	0.747740	0.457800	-0.011597	0.918821	0.373534	-1.000000	-1.000000	-1.000000	-1.000000	-1.000000	-1.000000	-1.000000	138.689655	0.000000	-1.000000	-1.000000	635156.000000	1772919300.855768
-4269.960000	20540.925000	-21766.770000	-14653.530000	0.000000	0.000000	0.000000	0.000000	-4.540178	-21.873110	-6.633859	-6.244899	0.000000	-0.000000	-0.000000	-0.000000	5.417300	0.747740	0.457800	-0.011597	0.918821	0.373534	-1.000000	-1.000000	-1.000000	-1.000000	-1.000000	-1.000000	-1.000000	138.689655	0.000000	-1.000000	-1.000000	635157.000000	1772919300.855770
-4251.510000	20579.310000	-21747.915000	-14631.255000	0.000000	0.000000	0.000000	0.000000	-73.140035	-34.010818	-113.099540	-101.010989	0.000000	-0.000000	-0.000000	-0.000000	5.417300	0.747740	0.457800	-0.011597	0.918821	0.373534	-1.000000	-1.000000	-1.000000	-1.000000	-1.000000	-1.000000	-1.000000	138.689655	0.000000	-1.000000	-1.000000	635158.000000	1772919300.859833
-4210.740000	20591.865000	-21677.850000	-14566.185000	0.000000	0.000000	0.000000	0.000000	-100.290667	-29.882779	-155.975332	-138.267159	0.000000	-0.000000	-0.000000	-0.000000	5.417300	0.747740	0.457800	-0.011597	0.918821	0.373534	-1.000000	-1.000000	-1.000000	-1.000000	-1.000000	-1.000000	-1.000000	138.689655	0.000000	-1.000000	-1.000000	635159.000000	1772919300.859837
-4129.965000	20544.390000	-21558.555000	-14454.270000	0.000000	0.000000	0.000000	0.000000	-71.919396	-8.544662	-111.252358	-97.343467	0.000000	-0.000000	-0.000000	-0.000000	5.417300	0.747740	0.457800	-0.011597	0.918821	0.373534	-1.000000	-1.000000	-1.000000	-1.000000	-1.000000	-1.000000	-1.000000	138.689655	0.000000	-1.000000	-1.000000	635160.000000	1772919300.864355
-4046.220000	20458.890000	-21409.290000	-14303.205000	0.000000	0.000000	0.000000	0.000000	-5.373395	14.785829	-4.743310	-1.859801	0.000000	-0.000000	-0.000000	-0.000000	5.417300	0.747740	0.457800	-0.011597	0.918821	0.373534	-1.000000	-1.000000	-1.000000	-1.000000	-1.000000	-1.000000	-1.000000	138.689655	0.000000	-1.000000	-1.000000	635161.000000	1772919300.864358
-4071.015000	20484.360000	-21415.905000	-14321.025000	0.000000	0.000000	0.000000	0.000000	61.582009	24.157138	104.242537	95.177657	0.000000	-0.000000	-0.000000	-0.000000	5.203660	1.953280	0.122080	-0.009705	0.921690	0.372375	-1.000000	-1.000000	-1.000000	-1.000000	-1.000000	-1.000000	-1.000000	138.689655	0.000000	-1.000000	-1.000000	635162.000000	1772919300.867833
-4100.940000	20516.265000	-21452.085000	-14383.710000	0.000000	0.000000	0.000000	0.000000	91.247024	21.020258	155.397169	138.781979	0.000000	-0.000000	-0.000000	-0.000000	5.203660	1.953280	0.122080	-0.009705	0.921690	0.372375	-1.000000	-1.000000	-1.000000	-1.000000	-1.000000	-1.000000	-1.000000	138.689655	0.000000	-1.000000	-1.000000	635163.000000	1772919300.867837
-4135.815000	20587.095000	-21508.470000	-14446.710000	0.000000	0.000000	0.000000	0.000000	68.766977	19.009191	122.059394	103.836372	0.000000	-0.000000	-0.000000	-0.000000	5.203660	1.953280	0.122080	-0.009705	0.921690	0.372375	-1.000000	-1.000000	-1.000000	-1.000000	-1.000000	-1.000000	-1.000000	138.689655	0.000000	-1.000000	-1.000000	635164.000000	1772919300.871975
-4239.720000	20612.475000	-21684.240000	-14593.005000	0.000000	0.000000	0.000000	0.000000	10.076340	25.097901	25.255800	11.617844	0.000000	-0.000000	-0.000000	-0.000000	5.203660	1.953280	0.122080	-0.009705	0.921690	0.372375	-1.000000	-1.000000	-1.000000	-1.000000	-1.000000	-1.000000	-1.000000	138.689655	0.000000	-1.000000	-1.000000	635165.000000	1772919300.872002
-4271.355000	20652.660000	-21754.890000	-14643.720000	0.000000	0.000000	0.000000	0.000000	-52.545541	32.651627	-84.782976	-87.285455	0.000000	-0.000000	-0.000000	-0.000000	5.203660	1.953280	0.122080	-0.009705	0.921690	0.372375	-1.000000	-1.000000	-1.000000	-1.000000	-1.000000	-1.000000	-1.000000	138.689655	0.000000	-1.000000	-1.000000	635166.000000	1772919300.875865
-4244.580000	20705.760000	-21786.525000	-14622.120000	0.000000	0.000000	0.000000	0.000000	-87.454574	31.105843	-154.875834	-141.945687	0.000000	-0.000000	-0.000000	-0.000000	5.203660	1.953280	0.122080	-0.009705	0.921690	0.372375	-1.000000	-1.000000	-1.000000	-1.000000	-1.000000	-1.000000	-1.000000	138.689655	0.000000	-1.000000	-1.000000	635167.000000	1772919300.875869
-4178.565000	20713.860000	-21706.425000	-14538.015000	0.000000	0.000000	0.000000	0.000000	-76.003661	16.853349	-150.557569	-124.057995	0.000000	-0.000000	-0.000000	-0.000000	5.203660	1.953280	0.122080	-0.009705	0.921690	0.372375	-1.000000	-1.000000	-1.000000	-1.000000	-1.000000	-1.000000	-1.000000	138.689655	0.000000	-1.000000	-1.000000	635168.000000	1772919300.881257
-4068.180000	20713.770000	-21490.065000	-14376.915000	0.000000	0.000000	0.000000	0.000000	-22.547811	-6.600045	-70.741500	-41.451377	0.000000	-0.000000	-0.000000	-0.000000	5.203660	1.953280	0.122080	-0.009705	0.921690	0.372375	-1.000000	-1.000000	-1.000000	-1.000000	-1.000000	-1.000000	-1.000000	138.689655	0.000000	-1.000000	-1.000000	635169.000000	1772919300.881261
-4047.885000	20756.070000	-21426.120000	-14324.805000	0.000000	0.000000	0.000000	0.000000	45.734871	-31.348693	50.073855	65.276123	0.000000	-0.000000	-0.000000	-0.000000	5.203660	1.953280	0.122080	-0.009705	0.921690	0.372375	-1.000000	-1.000000	-1.000000	-1.000000	-1.000000	-1.000000	-1.000000	138.689655	0.000000	-1.000000	-1.000000	635170.000000	1772919300.888792
-4149.540000	20781.360000	-21534.885000	-14387.445000	0.000000	0.000000	0.000000	0.000000	89.819873	-46.570462	149.055835	139.947846	0.000000	-0.000000	-0.000000	-0.000000	5.203660	1.953280	0.122080	-0.009705	0.921690	0.372375	-1.000000	-1.000000	-1.000000	-1.000000	-1.000000	-1.000000	-1.000000	138.689655	0.000000	-1.000000	-1.000000	635171.000000	1772919300.888797
-4255.425000	20806.920000	-21633.840000	-14478.570000	0.000000	0.000000	0.000000	0.000000	79.966119	-45.249610	166.087025	139.641581	0.000000	-0.000000	-0.000000	-0.000000	5.508860	1.693860	0.198380	-0.008606	0.923704	0.373412	-1.000000	-1.000000	-1.000000	-1.000000	-1.000000	-1.000000	-1.000000	138.689655	0.000000	-1.000000	-1.000000	635172.000000	1772919300.888803
-4317.030000	20854.080000	-21776.670000	-14620.545000	0.000000	0.000000	0.000000	0.000000	19.902018	-29.380670	89.765238	63.336351	0.000000	-0.000000	-0.000000	-0.000000	5.508860	1.693860	0.198380	-0.008606	0.923704	0.373412	-1.000000	-1.000000	-1.000000	-1.000000	-1.000000	-1.000000	-1.000000	138.689655	0.000000	-1.000000	-1.000000	635173.000000	1772919300.888805
-4306.140000	20890.935000	-21856.005000	-14674.140000	0.000000	0.000000	0.000000	0.000000	-51.174022	-6.801476	-32.596854	-45.965344	0.000000	-0.000000	-0.000000	-0.000000	5.508860	1.693860	0.198380	-0.008606	0.923704	0.373412	-1.000000	-1.000000	-1.000000	-1.000000	-1.000000	-1.000000	-1.000000	138.689655	0.000000	-1.000000	-1.000000	635174.000000	1772919300.891888
-4285.980000	20973.870000	-21815.415000	-14631.795000	0.000000	0.000000	0.000000	0.000000	-87.288651	14.381077	-129.061023	-126.692091	0.000000	-0.000000	-0.000000	-0.000000	5.508860	1.693860	0.198380	-0.008606	0.923704	0.373412	-1.000000	-1.000000	-1.000000	-1.000000	-1.000000	-1.000000	-1.000000	138.689655	0.000000	-1.000000	-1.000000	635175.000000	1772919300.891891
-4208.625000	20992.995000	-21690.855000	-14541.570000	0.000000	0.000000	0.000000	0.000000	-68.319124	28.289413	-145.716446	-133.861433	0.000000	-0.000000	-0.000000	-0.000000	5.508860	1.693860	0.198380	-0.008606	0.923704	0.373412	-1.000000	-1.000000	-1.000000	-1.000000	-1.000000	-1.000000	-1.000000	138.689655	0.000000	-1.000000	-1.000000	635176.000000	1772919300.903305
-4083.705000	20900.970000	-21547.170000	-14371.470000	0.000000	0.000000	0.000000	0.000000	-7.749524	28.358564	-75.582458	-64.639492	0.000000	-0.000000	-0.000000	-0.000000	5.508860	1.693860	0.198380	-0.008606	0.923704	0.373412	-1.000000	-1.000000	-1.000000	-1.000000	-1.000000	-1.000000	-1.000000	138.689655	0.000000	-1.000000	-1.000000	635177.000000	1772919300.903308
-4075.740000	21012.165000	-21482.820000	-14241.375000	0.000000	0.000000	0.000000	0.000000	60.148917	11.445495	37.997883	42.635072	0.000000	-0.000000	-0.000000	-0.000000	5.508860	1.693860	0.198380	-0.008606	0.923704	0.373412	-1.000000	-1.000000	-1.000000	-1.000000	-1.000000	-1.000000	-1.000000	138.689655	0.000000	-1.000000	-1.000000	635178.000000	1772919300.903312
-4121.145000	21067.785000	-21453.570000	-14279.850000	0.000000	0.000000	0.000000	0.000000	96.416588	-9.903796	128.030269	129.120018	0.000000	-0.000000	-0.000000	-0.000000	5.508860	1.693860	0.198380	-0.008606	0.923704	0.373412	-1.000000	-1.000000	-1.000000	-1.000000	-1.000000	-1.000000	-1.000000	138.689655	0.000000	-1.000000	-1.000000	635179.000000	1772919300.903315
-4215.195000	21109.500000	-21485.205000	-14399.595000	0.000000	0.000000	0.000000	0.000000	77.348806	-17.346785	145.344340	143.327541	0.000000	-0.000000	-0.000000	-0.000000	5.508860	1.693860	0.198380	-0.008606	0.923704	0.373412	-1.000000	-1.000000	-1.000000	-1.000000	-1.000000	-1.000000	-1.000000	138.689655	0.000000	-1.000000	-1.000000	635180.000000	1772919300.903919
-4270.410000	21093.615000	-21636.585000	-14558.985000	0.000000	0.000000	0.000000	0.000000	11.842102	-9.458295	83.606920	71.767863	0.000000	-0.000000	-0.000000	-0.000000	5.508860	1.693860	0.198380	-0.008606	0.923704	0.373412	-1.000000	-1.000000	-1.000000	-1.000000	-1.000000	-1.000000	-1.000000	138.689655	0.000000	-1.000000	-1.000000	635181.000000	1772919300.903922
-4355.010000	20917.485000	-21802.005000	-14651.280000	0.000000	0.000000	0.000000	0.000000	-63.287340	-3.169832	-25.699934	-47.707486	0.000000	-0.000000	-0.000000	-0.000000	9.308600	0.656180	3.174080	-0.007874	0.928953	0.374572	-1.000000	-1.000000	-1.000000	-1.000000	-1.000000	-1.000000	-1.000000	138.689655	0.000000	-1.000000	-1.000000	635182.000000	1772919300.908676
-4307.670000	20766.375000	-21725.505000	-14557.365000	0.000000	0.000000	0.000000	0.000000	-106.948091	-16.658037	-127.968748	-144.964988	0.000000	-0.000000	-0.000000	-0.000000	9.308600	0.656180	3.174080	-0.007874	0.928953	0.374572	-1.000000	-1.000000	-1.000000	-1.000000	-1.000000	-1.000000	-1.000000	138.689655	0.000000	-1.000000	-1.000000	635183.000000	1772919300.908685
-4212.495000	20747.970000	-21628.215000	-14512.275000	0.000000	0.000000	0.000000	0.000000	-94.757641	-46.502185	-164.897614	-160.576913	0.000000	-0.000000	-0.000000	-0.000000	9.308600	0.656180	3.174080	-0.007874	0.928953	0.374572	-1.000000	-1.000000	-1.000000	-1.000000	-1.000000	-1.000000	-1.000000	138.689655	0.000000	-1.000000	-1.000000	635184.000000	1772919300.912081
-4164.795000	20705.895000	-21586.860000	-14415.795000	0.000000	0.000000	0.000000	0.000000	-31.458801	-64.021875	-112.519087	-87.083354	0.000000	-0.000000	-0.000000	-0.000000	9.308600	0.656180	3.174080	-0.007874	0.928953	0.374572	-1.000000	-1.000000	-1.000000	-1.000000	-1.000000	-1.000000	-1.000000	138.689655	0.000000	-1.000000	-1.000000	635185.000000	1772919300.912085
-4075.740000	20746.800000	-21439.125000	-14253.345000	0.000000	0.000000	0.000000	0.000000	49.092122	-43.776302	-3.060390	30.464938	0.000000	-0.000000	-0.000000	-0.000000	9.308600	0.656180	3.174080	-0.007874	0.928953	0.374572	-1.000000	-1.000000	-1.000000	-1.000000	-1.000000	-1.000000	-1.000000	138.689655	0.000000	-1.000000	-1.000000	635186.000000	1772919300.916049
-4081.815000	20782.710000	-21438.000000	-14292.675000	0.000000	0.000000	0.000000	0.000000	104.330105	12.046570	101.588522	129.266256	0.000000	-0.000000	-0.000000	-0.000000	9.308600	0.656180	3.174080	-0.007874	0.928953	0.374572	-1.000000	-1.000000	-1.000000	-1.000000	-1.000000	-1.000000	-1.000000	138.689655	0.000000	-1.000000	-1.000000	635187.000000	1772919300.916051
-4124.745000	20816.910000	-21478.050000	-14352.705000	0.000000	0.000000	0.000000	0.000000	106.934417	76.875486	148.427808	159.053369	0.000000	-0.000000	-0.000000	-0.000000	9.308600	0.656180	3.174080	-0.007874	0.928953	0.374572	-1.000000	-1.000000	-1.000000	-1.000000	-1.000000	-1.000000	-1.000000	138.689655	0.000000	-1.000000	-1.000000	635188.000000	1772919300.920029
-4193.145000	20872.575000	-21506.445000	-14401.035000	0.000000	0.000000	0.000000	0.000000	56.522342	118.460059	117.963842	106.055803	0.000000	-0.000000	-0.000000	-0.000000	9.308600	0.656180	3.174080	-0.007874	0.928953	0.374572	-1.000000	-1.000000	-1.000000	-1.000000	-1.000000	-1.000000	-1.000000	138.689655	0.000000	-1.000000	-1.000000	635189.000000	1772919300.920031
-4336.380000	20923.695000	-21661.470000	-14503.815000	0.000000	0.000000	0.000000	0.000000	-22.359400	118.589961	31.445997	2.770936	0.000000	-0.000000	-0.000000	-0.000000	9.308600	0.656180	3.174080	-0.007874	0.928953	0.374572	-1.000000	-1.000000	-1.000000	-1.000000	-1.000000	-1.000000	-1.000000	138.689655	0.000000	-1.000000	-1.000000	635190.000000	1772919300.924023
-4283.730000	20739.195000	-21590.550000	-14381.010000	0.000000	0.000000	0.000000	0.000000	-92.042444	76.461411	-64.072712	-92.420230	0.000000	-0.000000	-0.000000	-0.000000	9.308600	0.656180	3.174080	-0.007874	0.928953	0.374572	-1.000000	-1.000000	-1.000000	-1.000000	-1.000000	-1.000000	-1.000000	138.689655	0.000000	-1.000000	-1.000000	635191.000000	1772919300.924027
-4243.680000	20559.825000	-21559.770000	-14322.465000	0.000000	0.000000	0.000000	0.000000	-115.864172	-0.237229	-118.448246	-128.106234	0.000000	-0.000000	-0.000000	-0.000000	-3.921820	12.040140	6.592320	-0.000549	0.930906	0.348327	-1.000000	-1.000000	-1.000000	-1.000000	-1.000000	-1.000000	-1.000000	138.689655	0.000000	-1.000000	-1.000000	635192.000000	1772919300.928051
-4229.820000	20507.040000	-21564.135000	-14317.740000	0.000000	0.000000	0.000000	0.000000	-79.999183	-89.078868	-106.567403	-91.833781	0.000000	-0.000000	-0.000000	-0.000000	-3.921820	12.040140	6.592320	-0.000549	0.930906	0.348327	-1.000000	-1.000000	-1.000000	-1.000000	-1.000000	-1.000000	-1.000000	138.689655	0.000000	-1.000000	-1.000000	635193.000000	1772919300.928054
-4151.655000	20526.165000	-21474.540000	-14158.980000	0.000000	0.000000	0.000000	0.000000	-6.499927	-146.748062	-44.577401	-15.461991	0.000000	-0.000000	-0.000000	-0.000000	-3.921820	12.040140	6.592320	-0.000549	0.930906	0.348327	-1.000000	-1.000000	-1.000000	-1.000000	-1.000000	-1.000000	-1.000000	138.689655	0.000000	-1.000000	-1.000000	635194.000000	1772919300.931953
-4120.470000	20646.495000	-21421.890000	-14086.800000	0.000000	0.000000	0.000000	0.000000	64.811007	-134.461865	29.544241	57.487799	0.000000	-0.000000	-0.000000	-0.000000	-3.921820	12.040140	6.592320	-0.000549	0.930906	0.348327	-1.000000	-1.000000	-1.000000	-1.000000	-1.000000	-1.000000	-1.000000	138.689655	0.000000	-1.000000	-1.000000	635195.000000	1772919300.931956
-3923.280000	20692.980000	-21387.285000	-14183.190000	0.000000	0.000000	0.000000	0.000000	104.942877	-52.284769	81.853036	94.165929	0.000000	-0.000000	-0.000000	-0.000000	-3.921820	12.040140	6.592320	-0.000549	0.930906	0.348327	-1.000000	-1.000000	-1.000000	-1.000000	-1.000000	-1.000000	-1.000000	138.689655	0.000000	-1.000000	-1.000000	635196.000000	1772919300.936043
-3916.035000	20695.680000	-21546.900000	-14344.470000	0.000000	0.000000	0.000000	0.000000	106.713462	54.759657	90.128996	74.081332	0.000000	-0.000000	-0.000000	-0.000000	-3.921820	12.040140	6.592320	-0.000549	0.930906	0.348327	-1.000000	-1.000000	-1.000000	-1.000000	-1.000000	-1.000000	-1.000000	138.689655	0.000000	-1.000000	-1.000000	635197.000000	1772919300.936046
-4202.055000	20715.210000	-21842.775000	-14544.315000	0.000000	0.000000	0.000000	0.000000	68.727549	127.032796	44.665095	0.760697	0.000000	-0.000000	-0.000000	-0.000000	-3.921820	12.040140	6.592320	-0.000549	0.930906	0.348327	-1.000000	-1.000000	-1.000000	-1.000000	-1.000000	-1.000000	-1.000000	138.689655	0.000000	-1.000000	-1.000000	635198.000000	1772919300.940039
-4360.230000	20743.110000	-21746.070000	-14525.415000	0.000000	0.000000	0.000000	0.000000	-11.834126	132.488847	-37.128615	-87.121336	0.000000	-0.000000	-0.000000	-0.000000	-3.921820	12.040140	6.592320	-0.000549	0.930906	0.348327	-1.000000	-1.000000	-1.000000	-1.000000	-1.000000	-1.000000	-1.000000	138.689655	0.000000	-1.000000	-1.000000	635199.000000	1772919300.940041
-4134.690000	20790.450000	-21252.330000	-14371.695000	0.000000	0.000000	0.000000	0.000000	-105.402016	81.992168	-92.368382	-129.564125	0.000000	-0.000000	-0.000000	-0.000000	-3.921820	12.040140	6.592320	-0.000549	0.930906	0.348327	-1.000000	-1.000000	-1.000000	-1.000000	-1.000000	-1.000000	-1.000000	138.689655	0.000000	-1.000000	-1.000000	635200.000000	1772919300.944148
-4176.360000	20871.585000	-21077.010000	-14329.125000	0.000000	0.000000	0.000000	0.000000	-147.603883	12.146424	-55.588371	-88.815604	0.000000	-0.000000	-0.000000	-0.000000	-3.921820	12.040140	6.592320	-0.000549	0.930906	0.348327	-1.000000	-1.000000	-1.000000	-1.000000	-1.000000	-1.000000	-1.000000	138.689655	0.000000	-1.000000	-1.000000	635201.000000	1772919300.944151
-4367.430000	20952.720000	-21270.915000	-14289.075000	0.000000	0.000000	0.000000	0.000000	-110.618952	-41.195657	51.644057	12.398472	0.000000	-0.000000	-0.000000	-0.000000	-75.872720	19.258120	3.052000	0.005188	0.944272	0.283263	-1.000000	-1.000000	-1.000000	-1.000000	-1.000000	-1.000000	-1.000000	138.689655	0.000000	-1.000000	-1.000000	635202.000000	1772919300.947986
-4218.165000	21043.710000	-21463.920000	-14248.845000	0.000000	0.000000	0.000000	0.000000	-31.754352	-60.947001	123.069699	109.064957	0.000000	-0.000000	-0.000000	-0.000000	-75.872720	19.258120	3.052000	0.005188	0.944272	0.283263	-1.000000	-1.000000	-1.000000	-1.000000	-1.000000	-1.000000	-1.000000	138.689655	0.000000	-1.000000	-1.000000	635203.000000	1772919300.947989
-4106.475000	21128.085000	-21576.645000	-14381.370000	0.000000	0.000000	0.000000	0.000000	45.873774	-51.357030	83.583134	145.340239	0.000000	-0.000000	-0.000000	-0.000000	-75.872720	19.258120	3.052000	0.005188	0.944272	0.283263	-1.000000	-1.000000	-1.000000	-1.000000	-1.000000	-1.000000	-1.000000	138.689655	0.000000	-1.000000	-1.000000	635204.000000	1772919300.952143
-4208.805000	21067.965000	-21407.310000	-14392.620000	0.000000	0.000000	0.000000	0.000000	101.361726	-30.997616	-32.010829	105.315293	0.000000	-0.000000	-0.000000	-0.000000	-75.872720	19.258120	3.052000	0.005188	0.944272	0.283263	-1.000000	-1.000000	-1.000000	-1.000000	-1.000000	-1.000000	-1.000000	138.689655	0.000000	-1.000000	-1.000000	635205.000000	1772919300.952146
-4407.840000	21046.185000	-21351.780000	-14486.355000	0.000000	0.000000	0.000000	0.000000	112.315690	-21.502851	-123.080244	16.823789	0.000000	-0.000000	-0.000000	-0.000000	-75.872720	19.258120	3.052000	0.005188	0.944272	0.283263	-1.000000	-1.000000	-1.000000	-1.000000	-1.000000	-1.000000	-1.000000	138.689655	0.000000	-1.000000	-1.000000	635206.000000	1772919300.956076
-4310.730000	21028.365000	-21366.540000	-14539.320000	0.000000	0.000000	0.000000	0.000000	68.069930	-30.440686	-125.318785	-70.053903	0.000000	-0.000000	-0.000000	-0.000000	-75.872720	19.258120	3.052000	0.005188	0.944272	0.283263	-1.000000	-1.000000	-1.000000	-1.000000	-1.000000	-1.000000	-1.000000	138.689655	0.000000	-1.000000	-1.000000	635207.000000	1772919300.956080
-4105.170000	21005.100000	-21503.070000	-14476.455000	0.000000	0.000000	0.000000	0.000000	3.495231	-45.053280	-59.140463	-113.682442	0.000000	-0.000000	-0.000000	-0.000000	-75.872720	19.258120	3.052000	0.005188	0.944272	0.283263	-1.000000	-1.000000	-1.000000	-1.000000	-1.000000	-1.000000	-1.000000	138.689655	0.000000	-1.000000	-1.000000	635208.000000	1772919300.960144
-4103.865000	21066.795000	-21816.450000	-14559.615000	0.000000	0.000000	0.000000	0.000000	-28.769391	-46.013563	6.908695	-99.045712	0.000000	-0.000000	-0.000000	-0.000000	-75.872720	19.258120	3.052000	0.005188	0.944272	0.283263	-1.000000	-1.000000	-1.000000	-1.000000	-1.000000	-1.000000	-1.000000	138.689655	0.000000	-1.000000	-1.000000	635209.000000	1772919300.960146
-4311.225000	21138.120000	-22041.720000	-14703.165000	0.000000	0.000000	0.000000	0.000000	-22.373685	-22.280832	20.569698	-46.483675	0.000000	-0.000000	-0.000000	-0.000000	-75.872720	19.258120	3.052000	0.005188	0.944272	0.283263	-1.000000	-1.000000	-1.000000	-1.000000	-1.000000	-1.000000	-1.000000	138.689655	0.000000	-1.000000	-1.000000	635210.000000	1772919300.964167
-4381.695000	21133.800000	-21808.710000	-14627.250000	0.000000	0.000000	0.000000	0.000000	-16.836164	20.011699	-7.323257	6.799676	0.000000	-0.000000	-0.000000	-0.000000	-75.872720	19.258120	3.052000	0.005188	0.944272	0.283263	-1.000000	-1.000000	-1.000000	-1.000000	-1.000000	-1.000000	-1.000000	138.689655	0.000000	-1.000000	-1.000000	635211.000000	1772919300.964169
-4198.680000	21188.070000	-21368.250000	-14482.080000	0.000000	0.000000	0.000000	0.000000	-31.466193	58.916464	-7.784621	45.295076	0.000000	-0.000000	-0.000000	-0.000000	-193.725700	-0.427280	-3.204600	-0.001038	1.076413	0.265502	-1.000000	-1.000000	-1.000000	-1.000000	-1.000000	-1.000000	-1.000000	138.689655	0.000000	-1.000000	-1.000000	635212.000000	1772919300.968196
-4144.905000	21221.010000	-21280.230000	-14377.545000	0.000000	0.000000	0.000000	0.000000	-39.703232	74.442408	66.800856	76.473514	0.000000	-0.000000	-0.000000	-0.000000	-193.725700	-0.427280	-3.204600	-0.001038	1.076413	0.265502	-1.000000	-1.000000	-1.000000	-1.000000	-1.000000	-1.000000	-1.000000	138.689655	0.000000	-1.000000	-1.000000	635213.000000	1772919300.968199
-4201.245000	21235.500000	-21519.270000	-14476.005000	0.000000	0.000000	0.000000	0.000000	-19.391973	62.270833	166.143824	96.602984	0.000000	-0.000000	-0.000000	-0.000000	-193.725700	-0.427280	-3.204600	-0.001038	1.076413	0.265502	-1.000000	-1.000000	-1.000000	-1.000000	-1.000000	-1.000000	-1.000000	138.689655	0.000000	-1.000000	-1.000000	635214.000000	1772919300.972266
-4363.650000	21240.135000	-21710.160000	-14672.790000	0.000000	0.000000	0.000000	0.000000	9.652453	30.550801	183.746331	80.509962	0.000000	-0.000000	-0.000000	-0.000000	-193.725700	-0.427280	-3.204600	-0.001038	1.076413	0.265502	-1.000000	-1.000000	-1.000000	-1.000000	-1.000000	-1.000000	-1.000000	138.689655	0.000000	-1.000000	-1.000000	635215.000000	1772919300.972268
-4474.395000	21288.420000	-21856.365000	-14833.530000	0.000000	0.000000	0.000000	0.000000	13.661116	-6.433613	76.151967	13.167185	0.000000	-0.000000	-0.000000	-0.000000	-193.725700	-0.427280	-3.204600	-0.001038	1.076413	0.265502	-1.000000	-1.000000	-1.000000	-1.000000	-1.000000	-1.000000	-1.000000	138.689655	0.000000	-1.000000	-1.000000	635216.000000	1772919300.976317
-4466.385000	21297.285000	-21866.175000	-14829.480000	0.000000	0.000000	0.000000	0.000000	-11.013573	-33.588798	-91.013895	-77.706169	0.000000	-0.000000	-0.000000	-0.000000	-193.725700	-0.427280	-3.204600	-0.001038	1.076413	0.265502	-1.000000	-1.000000	-1.000000	-1.000000	-1.000000	-1.000000	-1.000000	138.689655	0.000000	-1.000000	-1.000000	635217.000000	1772919300.976319
-4266.765000	21346.830000	-21659.670000	-14598.855000	0.000000	0.000000	0.000000	0.000000	-30.859523	-42.449950	-204.265067	-130.006061	0.000000	-0.000000	-0.000000	-0.000000	-193.725700	-0.427280	-3.204600	-0.001038	1.076413	0.265502	-1.000000	-1.000000	-1.000000	-1.000000	-1.000000	-1.000000	-1.000000	138.689655	0.000000	-1.000000	-1.000000	635218.000000	1772919300.980091
-4014.000000	21422.295000	-21336.435000	-14279.535000	0.000000	0.000000	0.000000	0.000000	-7.795502	-33.252579	-187.179205	-93.502045	0.000000	-0.000000	-0.000000	-0.000000	-193.725700	-0.427280	-3.204600	-0.001038	1.076413	0.265502	-1.000000	-1.000000	-1.000000	-1.000000	-1.000000	-1.000000	-1.000000	138.689655	0.000000	-1.000000	-1.000000	635219.000000	1772919300.980094
-3973.005000	21522.780000	-21352.500000	-14219.280000	0.000000	0.000000	0.000000	0.000000	57.546730	-11.143445	-53.680503	20.593529	0.000000	-0.000000	-0.000000	-0.000000	-193.725700	-0.427280	-3.204600	-0.001038	1.076413	0.265502	-1.000000	-1.000000	-1.000000	-1.000000	-1.000000	-1.000000	-1.000000	138.689655	0.000000	-1.000000	-1.000000	635220.000000	1772919300.987161
-4210.335000	21564.180000	-21647.070000	-14444.190000	0.000000	0.000000	0.000000	0.000000	111.372567	14.535600	93.268098	130.258598	0.000000	-0.000000	-0.000000	-0.000000	-193.725700	-0.427280	-3.204600	-0.001038	1.076413	0.265502	-1.000000	-1.000000	-1.000000	-1.000000	-1.000000	-1.000000	-1.000000	138.689655	0.000000	-1.000000	-1.000000	635221.000000	1772919300.987165
-4410.720000	21630.915000	-21841.515000	-14672.340000	0.000000	0.000000	0.000000	0.000000	89.681409	31.043810	139.928060	142.285356	0.000000	-0.000000	-0.000000	-0.000000	-244.968780	-27.376440	51.044700	-0.031311	1.315915	0.367064	-1.000000	-1.000000	-1.000000	-1.000000	-1.000000	-1.000000	-1.000000	138.689655	0.000000	-1.000000	-1.000000	635222.000000	1772919301.004887
-4413.645000	21643.380000	-21933.360000	-14814.090000	0.000000	0.000000	0.000000	0.000000	-11.169508	29.352718	62.432817	37.728698	0.000000	-0.000000	-0.000000	-0.000000	-244.968780	-27.376440	51.044700	-0.031311	1.315915	0.367064	-1.000000	-1.000000	-1.000000	-1.000000	-1.000000	-1.000000	-1.000000	138.689655	0.000000	-1.000000	-1.000000	635223.000000	1772919301.004890
-4341.240000	21639.150000	-21864.645000	-14744.115000	0.000000	0.000000	0.000000	0.000000	-119.450175	9.647202	-59.413489	-106.753446	0.000000	-0.000000	-0.000000	-0.000000	-244.968780	-27.376440	51.044700	-0.031311	1.315915	0.367064	-1.000000	-1.000000	-1.000000	-1.000000	-1.000000	-1.000000	-1.000000	138.689655	0.000000	-1.000000	-1.000000	635224.000000	1772919301.004895
-4194.990000	21683.205000	-21630.420000	-14487.705000	0.000000	0.000000	0.000000	0.000000	-152.865895	-18.674333	-120.177909	-181.045970	0.000000	-0.000000	-0.000000	-0.000000	-244.968780	-27.376440	51.044700	-0.031311	1.315915	0.367064	-1.000000	-1.000000	-1.000000	-1.000000	-1.000000	-1.000000	-1.000000	138.689655	0.000000	-1.000000	-1.000000	635225.000000	1772919301.004897
-4214.835000	21663.855000	-21581.640000	-14425.875000	0.000000	0.000000	0.000000	0.000000	-90.565464	-41.071851	-73.734806	-129.361380	0.000000	-0.000000	-0.000000	-0.000000	-244.968780	-27.376440	51.044700	-0.031311	1.315915	0.367064	-1.000000	-1.000000	-1.000000	-1.000000	-1.000000	-1.000000	-1.000000	138.689655	0.000000	-1.000000	-1.000000	635226.000000	1772919301.005612
-4170.420000	21624.795000	-21564.990000	-14387.310000	0.000000	0.000000	0.000000	0.000000	17.097381	-48.346613	36.922975	6.228326	0.000000	-0.000000	-0.000000	-0.000000	-244.968780	-27.376440	51.044700	-0.031311	1.315915	0.367064	-1.000000	-1.000000	-1.000000	-1.000000	-1.000000	-1.000000	-1.000000	138.689655	0.000000	-1.000000	-1.000000	635227.000000	1772919301.005614
-4013.505000	21605.580000	-21610.215000	-14407.965000	0.000000	0.000000	0.000000	0.000000	102.241576	-41.785480	124.359504	127.523136	0.000000	-0.000000	-0.000000	-0.000000	-244.968780	-27.376440	51.044700	-0.031311	1.315915	0.367064	-1.000000	-1.000000	-1.000000	-1.000000	-1.000000	-1.000000	-1.000000	138.689655	0.000000	-1.000000	-1.000000	635228.000000	1772919301.005618
-4127.490000	21539.880000	-21640.635000	-14408.055000	0.000000	0.000000	0.000000	0.000000	128.765525	-27.166772	130.904814	162.619414	0.000000	-0.000000	-0.000000	-0.000000	-244.968780	-27.376440	51.044700	-0.031311	1.315915	0.367064	-1.000000	-1.000000	-1.000000	-1.000000	-1.000000	-1.000000	-1.000000	138.689655	0.000000	-1.000000	-1.000000	635229.000000	1772919301.005620
-4193.685000	21444.480000	-21708.585000	-14611.275000	0.000000	0.000000	0.000000	0.000000	92.072493	-11.075076	61.644028	104.151570	0.000000	-0.000000	-0.000000	-0.000000	-244.968780	-27.376440	51.044700	-0.031311	1.315915	0.367064	-1.000000	-1.000000	-1.000000	-1.000000	-1.000000	-1.000000	-1.000000	138.689655	0.000000	-1.000000	-1.000000	635230.000000	1772919301.005624
-4135.590000	21420.180000	-21689.640000	-14680.890000	0.000000	0.000000	0.000000	0.000000	13.278769	1.543280	-34.302933	-7.283287	0.000000	-0.000000	-0.000000	-0.000000	-244.968780	-27.376440	51.044700	-0.031311	1.315915	0.367064	-1.000000	-1.000000	-1.000000	-1.000000	-1.000000	-1.000000	-1.000000	138.689655	0.000000	-1.000000	-1.000000	635231.000000	1772919301.005626
-4079.160000	21344.940000	-21600.045000	-14631.120000	0.000000	0.000000	0.000000	0.000000	-61.397236	11.411533	-100.141728	-108.916145	0.000000	-0.000000	-0.000000	-0.000000	-125.696620	-39.447100	148.235640	-0.080871	1.335141	0.489440	-1.000000	-1.000000	-1.000000	-1.000000	-1.000000	-1.000000	-1.000000	138.689655	0.000000	-1.000000	-1.000000	635232.000000	1772919301.008251
-4079.970000	21227.715000	-21634.065000	-14662.125000	0.000000	0.000000	0.000000	0.000000	-91.430630	19.869445	-105.005453	-145.220761	0.000000	-0.000000	-0.000000	-0.000000	-125.696620	-39.447100	148.235640	-0.080871	1.335141	0.489440	-1.000000	-1.000000	-1.000000	-1.000000	-1.000000	-1.000000	-1.000000	138.689655	0.000000	-1.000000	-1.000000	635233.000000	1772919301.008254
-4220.280000	21246.930000	-21817.980000	-14736.015000	0.000000	0.000000	0.000000	0.000000	-75.620531	25.433488	-64.206248	-105.390581	0.000000	-0.000000	-0.000000	-0.000000	-125.696620	-39.447100	148.235640	-0.080871	1.335141	0.489440	-1.000000	-1.000000	-1.000000	-1.000000	-1.000000	-1.000000	-1.000000	138.689655	0.000000	-1.000000	-1.000000	635234.000000	1772919301.012282
-4212.720000	21325.455000	-21697.605000	-14651.640000	0.000000	0.000000	0.000000	0.000000	-42.836893	32.230793	-17.803923	-24.435996	0.000000	-0.000000	-0.000000	-0.000000	-125.696620	-39.447100	148.235640	-0.080871	1.335141	0.489440	-1.000000	-1.000000	-1.000000	-1.000000	-1.000000	-1.000000	-1.000000	138.689655	0.000000	-1.000000	-1.000000	635235.000000	1772919301.012285
-4093.245000	21420.360000	-21403.485000	-14471.865000	0.000000	0.000000	0.000000	0.000000	-12.618995	48.112987	20.073885	57.862679	0.000000	-0.000000	-0.000000	-0.000000	-125.696620	-39.447100	148.235640	-0.080871	1.335141	0.489440	-1.000000	-1.000000	-1.000000	-1.000000	-1.000000	-1.000000	-1.000000	138.689655	0.000000	-1.000000	-1.000000	635236.000000	1772919301.018718
-4101.165000	21361.365000	-21350.205000	-14485.590000	0.000000	0.000000	0.000000	0.000000	17.261865	67.333122	62.132275	117.439691	0.000000	-0.000000	-0.000000	-0.000000	-125.696620	-39.447100	148.235640	-0.080871	1.335141	0.489440	-1.000000	-1.000000	-1.000000	-1.000000	-1.000000	-1.000000	-1.000000	138.689655	0.000000	-1.000000	-1.000000	635237.000000	1772919301.018721
-4035.915000	21348.090000	-21252.330000	-14430.555000	0.000000	0.000000	0.000000	0.000000	46.602857	68.097030	101.032839	135.189314	0.000000	-0.000000	-0.000000	-0.000000	-125.696620	-39.447100	148.235640	-0.080871	1.335141	0.489440	-1.000000	-1.000000	-1.000000	-1.000000	-1.000000	-1.000000	-1.000000	138.689655	0.000000	-1.000000	-1.000000	635238.000000	1772919301.020343
-3929.040000	21449.970000	-21168.405000	-14337.720000	0.000000	0.000000	0.000000	0.000000	65.443458	38.726168	107.320227	103.429676	0.000000	-0.000000	-0.000000	-0.000000	-125.696620	-39.447100	148.235640	-0.080871	1.335141	0.489440	-1.000000	-1.000000	-1.000000	-1.000000	-1.000000	-1.000000	-1.000000	138.689655	0.000000	-1.000000	-1.000000	635239.000000	1772919301.020345
-4186.665000	21364.695000	-21472.830000	-14523.930000	0.000000	0.000000	0.000000	0.000000	61.969242	-6.849084	61.696787	35.593665	0.000000	-0.000000	-0.000000	-0.000000	-125.696620	-39.447100	148.235640	-0.080871	1.335141	0.489440	-1.000000	-1.000000	-1.000000	-1.000000	-1.000000	-1.000000	-1.000000	138.689655	0.000000	-1.000000	-1.000000	635240.000000	1772919301.024319
-4386.420000	21187.980000	-21922.065000	-14688.495000	0.000000	0.000000	0.000000	0.000000	22.216794	-51.673668	-38.728470	-49.157649	0.000000	-0.000000	-0.000000	-0.000000	-125.696620	-39.447100	148.235640	-0.080871	1.335141	0.489440	-1.000000	-1.000000	-1.000000	-1.000000	-1.000000	-1.000000	-1.000000	138.689655	0.000000	-1.000000	-1.000000	635241.000000	1772919301.024322
-4454.460000	21145.320000	-22215.870000	-14809.230000	0.000000	0.000000	0.000000	0.000000	-48.855494	-89.180136	-170.564920	-129.307595	0.000000	-0.000000	-0.000000	-0.000000	-130.396700	-58.888340	155.941940	-0.034973	1.084226	0.548399	-1.000000	-1.000000	-1.000000	-1.000000	-1.000000	-1.000000	-1.000000	138.689655	0.000000	-1.000000	-1.000000	635242.000000	1772919301.028346
-4233.870000	21019.635000	-21903.210000	-14575.275000	0.000000	0.000000	0.000000	0.000000	-104.674745	-108.896520	-260.301546	-167.459520	0.000000	-0.000000	-0.000000	-0.000000	-130.396700	-58.888340	155.941940	-0.034973	1.084226	0.548399	-1.000000	-1.000000	-1.000000	-1.000000	-1.000000	-1.000000	-1.000000	138.689655	0.000000	-1.000000	-1.000000	635243.000000	1772919301.028349
-4086.045000	20963.295000	-21686.670000	-14361.255000	0.000000	0.000000	0.000000	0.000000	-89.486924	-97.877323	-216.826866	-124.362717	0.000000	-0.000000	-0.000000	-0.000000	-130.396700	-58.888340	155.941940	-0.034973	1.084226	0.548399	-1.000000	-1.000000	-1.000000	-1.000000	-1.000000	-1.000000	-1.000000	138.689655	0.000000	-1.000000	-1.000000	635244.000000	1772919301.032276
-4059.585000	20804.580000	-21558.060000	-14285.655000	0.000000	0.000000	0.000000	0.000000	-0.730623	-57.116728	-27.996623	-5.138902	0.000000	-0.000000	-0.000000	-0.000000	-130.396700	-58.888340	155.941940	-0.034973	1.084226	0.548399	-1.000000	-1.000000	-1.000000	-1.000000	-1.000000	-1.000000	-1.000000	138.689655	0.000000	-1.000000	-1.000000	635245.000000	1772919301.032279
-4179.465000	20610.495000	-21531.330000	-14315.355000	0.000000	0.000000	0.000000	0.000000	97.211819	-5.620520	201.631979	122.127271	0.000000	-0.000000	-0.000000	-0.000000	-130.396700	-58.888340	155.941940	-0.034973	1.084226	0.548399	-1.000000	-1.000000	-1.000000	-1.000000	-1.000000	-1.000000	-1.000000	138.689655	0.000000	-1.000000	-1.000000	635246.000000	1772919301.036378
-4311.135000	20617.560000	-21694.995000	-14416.020000	0.000000	0.000000	0.000000	0.000000	129.089819	35.561717	331.505079	175.420554	0.000000	-0.000000	-0.000000	-0.000000	-130.396700	-58.888340	155.941940	-0.034973	1.084226	0.548399	-1.000000	-1.000000	-1.000000	-1.000000	-1.000000	-1.000000	-1.000000	138.689655	0.000000	-1.000000	-1.000000	635247.000000	1772919301.036381
-4409.955000	20630.295000	-21854.250000	-14605.830000	0.000000	0.000000	0.000000	0.000000	73.188667	64.063447	288.056585	122.288081	0.000000	-0.000000	-0.000000	-0.000000	-130.396700	-58.888340	155.941940	-0.034973	1.084226	0.548399	-1.000000	-1.000000	-1.000000	-1.000000	-1.000000	-1.000000	-1.000000	138.689655	0.000000	-1.000000	-1.000000	635248.000000	1772919301.041778
-4648.320000	20542.905000	-21779.055000	-14725.890000	0.000000	0.000000	0.000000	0.000000	-30.495817	86.727757	109.122208	-2.882409	0.000000	-0.000000	-0.000000	-0.000000	-130.396700	-58.888340	155.941940	-0.034973	1.084226	0.548399	-1.000000	-1.000000	-1.000000	-1.000000	-1.000000	-1.000000	-1.000000	138.689655	0.000000	-1.000000	-1.000000	635249.000000	1772919301.041780
-4566.375000	20518.155000	-21674.925000	-14587.920000	0.000000	0.000000	0.000000	0.000000	-117.865825	97.463947	-87.082663	-121.997326	0.000000	-0.000000	-0.000000	-0.000000	-130.396700	-58.888340	155.941940	-0.034973	1.084226	0.548399	-1.000000	-1.000000	-1.000000	-1.000000	-1.000000	-1.000000	-1.000000	138.689655	0.000000	-1.000000	-1.000000	635250.000000	1772919301.044442
-4457.430000	20511.855000	-21887.370000	-14522.130000	0.000000	0.000000	0.000000	0.000000	-134.726355	85.590340	-196.632894	-159.730709	0.000000	-0.000000	-0.000000	-0.000000	-130.396700	-58.888340	155.941940	-0.034973	1.084226	0.548399	-1.000000	-1.000000	-1.000000	-1.000000	-1.000000	-1.000000	-1.000000	138.689655	0.000000	-1.000000	-1.000000	635251.000000	1772919301.044444
-4361.580000	20475.855000	-21873.960000	-14430.645000	0.000000	0.000000	0.000000	0.000000	-65.519764	52.967159	-200.146784	-96.810521	0.000000	-0.000000	-0.000000	-0.000000	-196.686140	-81.228980	141.109220	0.070129	1.009641	0.616087	-1.000000	-1.000000	-1.000000	-1.000000	-1.000000	-1.000000	-1.000000	138.689655	0.000000	-1.000000	-1.000000	635252.000000	1772919301.048313
-4339.845000	20543.040000	-21738.915000	-14370.390000	0.000000	0.000000	0.000000	0.000000	48.870279	12.673377	-133.716455	18.811060	0.000000	-0.000000	-0.000000	-0.000000	-196.686140	-81.228980	141.109220	0.070129	1.009641	0.616087	-1.000000	-1.000000	-1.000000	-1.000000	-1.000000	-1.000000	-1.000000	138.689655	0.000000	-1.000000	-1.000000	635253.000000	1772919301.048317
-4346.280000	20572.110000	-21637.530000	-14418.765000	0.000000	0.000000	0.000000	0.000000	137.613402	-19.203900	-34.087243	113.674109	0.000000	-0.000000	-0.000000	-0.000000	-196.686140	-81.228980	141.109220	0.070129	1.009641	0.616087	-1.000000	-1.000000	-1.000000	-1.000000	-1.000000	-1.000000	-1.000000	138.689655	0.000000	-1.000000	-1.000000	635254.000000	1772919301.052313
-4370.220000	20566.935000	-21667.590000	-14492.565000	0.000000	0.000000	0.000000	0.000000	151.257398	-34.231975	63.102346	136.021857	0.000000	-0.000000	-0.000000	-0.000000	-196.686140	-81.228980	141.109220	0.070129	1.009641	0.616087	-1.000000	-1.000000	-1.000000	-1.000000	-1.000000	-1.000000	-1.000000	138.689655	0.000000	-1.000000	-1.000000	635255.000000	1772919301.052316
-4356.315000	20516.175000	-21810.015000	-14539.770000	0.000000	0.000000	0.000000	0.000000	90.779794	-38.306657	115.225578	81.572363	0.000000	-0.000000	-0.000000	-0.000000	-196.686140	-81.228980	141.109220	0.070129	1.009641	0.616087	-1.000000	-1.000000	-1.000000	-1.000000	-1.000000	-1.000000	-1.000000	138.689655	0.000000	-1.000000	-1.000000	635256.000000	1772919301.058618
-4347.315000	20553.930000	-21958.065000	-14582.025000	0.000000	0.000000	0.000000	0.000000	-1.947246	-41.281076	95.320071	-9.579638	0.000000	-0.000000	-0.000000	-0.000000	-196.686140	-81.228980	141.109220	0.070129	1.009641	0.616087	-1.000000	-1.000000	-1.000000	-1.000000	-1.000000	-1.000000	-1.000000	138.689655	0.000000	-1.000000	-1.000000	635257.000000	1772919301.058621
-4222.980000	20599.560000	-21864.600000	-14496.435000	0.000000	0.000000	0.000000	0.000000	-75.521057	-42.444919	21.694324	-81.932159	0.000000	-0.000000	-0.000000	-0.000000	-196.686140	-81.228980	141.109220	0.070129	1.009641	0.616087	-1.000000	-1.000000	-1.000000	-1.000000	-1.000000	-1.000000	-1.000000	138.689655	0.000000	-1.000000	-1.000000	635258.000000	1772919301.060364
-4330.890000	20582.505000	-22008.600000	-14641.515000	0.000000	0.000000	0.000000	0.000000	-100.680422	-34.954766	-50.879054	-100.961986	0.000000	-0.000000	-0.000000	-0.000000	-196.686140	-81.228980	141.109220	0.070129	1.009641	0.616087	-1.000000	-1.000000	-1.000000	-1.000000	-1.000000	-1.000000	-1.000000	138.689655	0.000000	-1.000000	-1.000000	635259.000000	1772919301.060366
-4337.190000	20556.945000	-21935.790000	-14569.830000	0.000000	0.000000	0.000000	0.000000	-85.256497	-20.475491	-79.034788	-71.556845	0.000000	-0.000000	-0.000000	-0.000000	-196.686140	-81.228980	141.109220	0.070129	1.009641	0.616087	-1.000000	-1.000000	-1.000000	-1.000000	-1.000000	-1.000000	-1.000000	138.689655	0.000000	-1.000000	-1.000000	635260.000000	1772919301.064615
-4313.925000	20479.680000	-21712.455000	-14517.900000	0.000000	0.000000	0.000000	0.000000	-54.326569	-9.273288	-52.218652	-18.983794	0.000000	-0.000000	-0.000000	-0.000000	-196.686140	-81.228980	141.109220	0.070129	1.009641	0.616087	-1.000000	-1.000000	-1.000000	-1.000000	-1.000000	-1.000000	-1.000000	138.689655	0.000000	-1.000000	-1.000000	635261.000000	1772919301.064618
-4238.640000	20459.160000	-21565.170000	-14417.370000	0.000000	0.000000	0.000000	0.000000	-21.070661	-7.943810	17.745000	36.003061	0.000000	-0.000000	-0.000000	-0.000000	-184.386580	-47.412820	214.998140	0.088012	1.012510	0.533385	-1.000000	-1.000000	-1.000000	-1.000000	-1.000000	-1.000000	-1.000000	138.689655	0.000000	-1.000000	-1.000000	635262.000000	1772919301.069767
-4211.190000	20512.035000	-21684.690000	-14458.140000	0.000000	0.000000	0.000000	0.000000	12.428660	-10.560072	91.919464	75.736150	0.000000	-0.000000	-0.000000	-0.000000	-184.386580	-47.412820	214.998140	0.088012	1.012510	0.533385	-1.000000	-1.000000	-1.000000	-1.000000	-1.000000	-1.000000	-1.000000	138.689655	0.000000	-1.000000	-1.000000	635263.000000	1772919301.069770
-4235.445000	20577.645000	-21729.105000	-14527.665000	0.000000	0.000000	0.000000	0.000000	39.476256	-3.297587	114.714515	81.376773	0.000000	-0.000000	-0.000000	-0.000000	-184.386580	-47.412820	214.998140	0.088012	1.012510	0.533385	-1.000000	-1.000000	-1.000000	-1.000000	-1.000000	-1.000000	-1.000000	138.689655	0.000000	-1.000000	-1.000000	635264.000000	1772919301.072459
-4320.900000	20558.745000	-21761.820000	-14693.310000	0.000000	0.000000	0.000000	0.000000	46.676669	17.994406	63.269922	43.770320	0.000000	-0.000000	-0.000000	-0.000000	-184.386580	-47.412820	214.998140	0.088012	1.012510	0.533385	-1.000000	-1.000000	-1.000000	-1.000000	-1.000000	-1.000000	-1.000000	138.689655	0.000000	-1.000000	-1.000000	635265.000000	1772919301.072462
-4459.455000	20523.240000	-21827.340000	-14662.845000	0.000000	0.000000	0.000000	0.000000	25.536389	38.613273	-29.210659	-21.459548	0.000000	-0.000000	-0.000000	-0.000000	-184.386580	-47.412820	214.998140	0.088012	1.012510	0.533385	-1.000000	-1.000000	-1.000000	-1.000000	-1.000000	-1.000000	-1.000000	138.689655	0.000000	-1.000000	-1.000000	635266.000000	1772919301.076413
-4352.985000	20534.085000	-21589.920000	-14541.120000	0.000000	0.000000	0.000000	0.000000	-12.810200	40.481305	-102.333003	-72.811750	0.000000	-0.000000	-0.000000	-0.000000	-184.386580	-47.412820	214.998140	0.088012	1.012510	0.533385	-1.000000	-1.000000	-1.000000	-1.000000	-1.000000	-1.000000	-1.000000	138.689655	0.000000	-1.000000	-1.000000	635267.000000	1772919301.076417
-4129.695000	20560.410000	-21299.895000	-14393.115000	0.000000	0.000000	0.000000	0.000000	-33.945677	22.630111	-105.376286	-70.403898	0.000000	-0.000000	-0.000000	-0.000000	-184.386580	-47.412820	214.998140	0.088012	1.012510	0.533385	-1.000000	-1.000000	-1.000000	-1.000000	-1.000000	-1.000000	-1.000000	138.689655	0.000000	-1.000000	-1.000000	635268.000000	1772919301.080460
-4141.665000	20515.680000	-21440.745000	-14343.120000	0.000000	0.000000	0.000000	0.000000	-11.114414	-1.482893	-36.503095	-13.600813	0.000000	-0.000000	-0.000000	-0.000000	-184.386580	-47.412820	214.998140	0.088012	1.012510	0.533385	-1.000000	-1.000000	-1.000000	-1.000000	-1.000000	-1.000000	-1.000000	138.689655	0.000000	-1.000000	-1.000000	635269.000000	1772919301.080462
-4074.840000	20543.670000	-21513.780000	-14406.975000	0.000000	0.000000	0.000000	0.000000	37.900968	-19.910662	41.291715	53.433474	0.000000	-0.000000	-0.000000	-0.000000	-184.386580	-47.412820	214.998140	0.088012	1.012510	0.533385	-1.000000	-1.000000	-1.000000	-1.000000	-1.000000	-1.000000	-1.000000	138.689655	0.000000	-1.000000	-1.000000	635270.000000	1772919301.084530
-4165.155000	20568.330000	-21435.255000	-14478.525000	0.000000	0.000000	0.000000	0.000000	67.557651	-26.553904	62.611401	77.883881	0.000000	-0.000000	-0.000000	-0.000000	-184.386580	-47.412820	214.998140	0.088012	1.012510	0.533385	-1.000000	-1.000000	-1.000000	-1.000000	-1.000000	-1.000000	-1.000000	138.689655	0.000000	-1.000000	-1.000000	635271.000000	1772919301.084533
-4229.730000	20622.195000	-21334.770000	-14459.130000	0.000000	0.000000	0.000000	0.000000	49.121404	-19.243359	28.442512	43.385670	0.000000	-0.000000	-0.000000	-0.000000	-250.157180	-43.536780	189.208740	0.118835	0.875974	0.486693	-1.000000	-1.000000	-1.000000	-1.000000	-1.000000	-1.000000	-1.000000	138.689655	0.000000	-1.000000	-1.000000	635272.000000	1772919301.089324
-4301.190000	20619.045000	-21817.800000	-14615.055000	0.000000	0.000000	0.000000	0.000000	-9.438688	-2.508894	-23.769754	-22.127776	0.000000	-0.000000	-0.000000	-0.000000	-250.157180	-43.536780	189.208740	0.118835	0.875974	0.486693	-1.000000	-1.000000	-1.000000	-1.000000	-1.000000	-1.000000	-1.000000	138.689655	0.000000	-1.000000	-1.000000	635273.000000	1772919301.089327
-4187.295000	20579.850000	-21986.370000	-14640.570000	0.000000	0.000000	0.000000	0.000000	-69.654915	11.630160	-79.205204	-78.655215	0.000000	-0.000000	-0.000000	-0.000000	-250.157180	-43.536780	189.208740	0.118835	0.875974	0.486693	-1.000000	-1.000000	-1.000000	-1.000000	-1.000000	-1.000000	-1.000000	138.689655	0.000000	-1.000000	-1.000000	635274.000000	1772919301.092486
-4050.540000	20594.160000	-21693.150000	-14503.995000	0.000000	0.000000	0.000000	0.000000	-87.159416	12.397831	-119.365923	-95.922503	0.000000	-0.000000	-0.000000	-0.000000	-250.157180	-43.536780	189.208740	0.118835	0.875974	0.486693	-1.000000	-1.000000	-1.000000	-1.000000	-1.000000	-1.000000	-1.000000	138.689655	0.000000	-1.000000	-1.000000	635275.000000	1772919301.092489
-4067.100000	20549.295000	-21605.985000	-14420.250000	0.000000	0.000000	0.000000	0.000000	-47.873725	0.449499	-95.134150	-58.996798	0.000000	-0.000000	-0.000000	-0.000000	-250.157180	-43.536780	189.208740	0.118835	0.875974	0.486693	-1.000000	-1.000000	-1.000000	-1.000000	-1.000000	-1.000000	-1.000000	138.689655	0.000000	-1.000000	-1.000000	635276.000000	1772919301.098561
-4094.010000	20461.230000	-21520.710000	-14337.540000	0.000000	0.000000	0.000000	0.000000	15.760298	-16.137821	7.993541	17.226312	0.000000	-0.000000	-0.000000	-0.000000	-250.157180	-43.536780	189.208740	0.118835	0.875974	0.486693	-1.000000	-1.000000	-1.000000	-1.000000	-1.000000	-1.000000	-1.000000	138.689655	0.000000	-1.000000	-1.000000	635277.000000	1772919301.098564
-4244.805000	20436.795000	-21752.370000	-14522.805000	0.000000	0.000000	0.000000	0.000000	53.483869	-30.148636	126.133602	85.940378	0.000000	-0.000000	-0.000000	-0.000000	-250.157180	-43.536780	189.208740	0.118835	0.875974	0.486693	-1.000000	-1.000000	-1.000000	-1.000000	-1.000000	-1.000000	-1.000000	138.689655	0.000000	-1.000000	-1.000000	635278.000000	1772919301.101982
-4271.625000	20371.140000	-21907.890000	-14498.640000	0.000000	0.000000	0.000000	0.000000	40.949966	-34.889474	171.404798	100.165233	0.000000	-0.000000	-0.000000	-0.000000	-250.157180	-43.536780	189.208740	0.118835	0.875974	0.486693	-1.000000	-1.000000	-1.000000	-1.000000	-1.000000	-1.000000	-1.000000	138.689655	0.000000	-1.000000	-1.000000	635279.000000	1772919301.101985
-4119.615000	20324.880000	-21869.280000	-14431.590000	0.000000	0.000000	0.000000	0.000000	-0.396135	-26.409417	115.117558	56.570331	0.000000	-0.000000	-0.000000	-0.000000	-250.157180	-43.536780	189.208740	0.118835	0.875974	0.486693	-1.000000	-1.000000	-1.000000	-1.000000	-1.000000	-1.000000	-1.000000	138.689655	0.000000	-1.000000	-1.000000	635280.000000	1772919301.108963
-4229.145000	20309.535000	-21622.770000	-14414.625000	0.000000	0.000000	0.000000	0.000000	-27.548146	-7.082138	15.166558	-3.576871	0.000000	-0.000000	-0.000000	-0.000000	-250.157180	-43.536780	189.208740	0.118835	0.875974	0.486693	-1.000000	-1.000000	-1.000000	-1.000000	-1.000000	-1.000000	-1.000000	138.689655	0.000000	-1.000000	-1.000000	635281.000000	1772919301.108966
-4207.770000	20207.610000	-21583.080000	-14552.100000	0.000000	0.000000	0.000000	0.000000	-23.475260	15.538189	-45.257580	-43.615329	0.000000	-0.000000	-0.000000	-0.000000	-201.309920	-43.536780	106.881040	0.134643	0.682554	0.481322	-1.000000	-1.000000	-1.000000	-1.000000	-1.000000	-1.000000	-1.000000	138.689655	0.000000	-1.000000	-1.000000	635282.000000	1772919301.109460
-4263.345000	20231.145000	-21642.840000	-14516.370000	0.000000	0.000000	0.000000	0.000000	-3.734434	32.249399	-41.405224	-58.339807	0.000000	-0.000000	-0.000000	-0.000000	-201.309920	-43.536780	106.881040	0.134643	0.682554	0.481322	-1.000000	-1.000000	-1.000000	-1.000000	-1.000000	-1.000000	-1.000000	138.689655	0.000000	-1.000000	-1.000000	635283.000000	1772919301.109463
-4216.455000	20239.920000	-21587.535000	-14447.025000	0.000000	0.000000	0.000000	0.000000	13.401740	40.035392	-12.054213	-52.308577	0.000000	-0.000000	-0.000000	-0.000000	-201.309920	-43.536780	106.881040	0.134643	0.682554	0.481322	-1.000000	-1.000000	-1.000000	-1.000000	-1.000000	-1.000000	-1.000000	138.689655	0.000000	-1.000000	-1.000000	635284.000000	1772919301.112478
-4103.415000	20136.960000	-21324.915000	-14328.900000	0.000000	0.000000	0.000000	0.000000	24.148142	40.420828	6.724249	-24.306798	0.000000	-0.000000	-0.000000	-0.000000	-201.309920	-43.536780	106.881040	0.134643	0.682554	0.481322	-1.000000	-1.000000	-1.000000	-1.000000	-1.000000	-1.000000	-1.000000	138.689655	0.000000	-1.000000	-1.000000	635285.000000	1772919301.112481
-4155.615000	19996.695000	-21482.415000	-14374.665000	0.000000	0.000000	0.000000	0.000000	32.190080	28.644690	11.050330	17.939535	0.000000	-0.000000	-0.000000	-0.000000	-201.309920	-43.536780	106.881040	0.134643	0.682554	0.481322	-1.000000	-1.000000	-1.000000	-1.000000	-1.000000	-1.000000	-1.000000	138.689655	0.000000	-1.000000	-1.000000	635286.000000	1772919301.116563
-4156.065000	19934.415000	-21542.715000	-14382.945000	0.000000	0.000000	0.000000	0.000000	32.900224	0.858866	-1.736217	49.490843	0.000000	-0.000000	-0.000000	-0.000000	-201.309920	-43.536780	106.881040	0.134643	0.682554	0.481322	-1.000000	-1.000000	-1.000000	-1.000000	-1.000000	-1.000000	-1.000000	138.689655	0.000000	-1.000000	-1.000000	635287.000000	1772919301.116566
-4009.905000	19942.875000	-21345.525000	-14258.880000	0.000000	0.000000	0.000000	0.000000	21.011695	-29.662149	-32.223771	51.380270	0.000000	-0.000000	-0.000000	-0.000000	-201.309920	-43.536780	106.881040	0.134643	0.682554	0.481322	-1.000000	-1.000000	-1.000000	-1.000000	-1.000000	-1.000000	-1.000000	138.689655	0.000000	-1.000000	-1.000000	635288.000000	1772919301.120548
-4141.575000	19995.120000	-21554.820000	-14439.780000	0.000000	0.000000	0.000000	0.000000	2.779946	-38.863723	-59.455653	27.491686	0.000000	-0.000000	-0.000000	-0.000000	-201.309920	-43.536780	106.881040	0.134643	0.682554	0.481322	-1.000000	-1.000000	-1.000000	-1.000000	-1.000000	-1.000000	-1.000000	138.689655	0.000000	-1.000000	-1.000000	635289.000000	1772919301.120551
-4178.430000	20017.710000	-21616.155000	-14514.795000	0.000000	0.000000	0.000000	0.000000	-17.999846	-15.995839	-68.943650	-11.713130	0.000000	-0.000000	-0.000000	-0.000000	-201.309920	-43.536780	106.881040	0.134643	0.682554	0.481322	-1.000000	-1.000000	-1.000000	-1.000000	-1.000000	-1.000000	-1.000000	138.689655	0.000000	-1.000000	-1.000000	635290.000000	1772919301.124898
-4154.715000	20000.790000	-21661.470000	-14590.080000	0.000000	0.000000	0.000000	0.000000	-40.381274	23.634996	-64.801426	-54.873235	0.000000	-0.000000	-0.000000	-0.000000	-201.309920	-43.536780	106.881040	0.134643	0.682554	0.481322	-1.000000	-1.000000	-1.000000	-1.000000	-1.000000	-1.000000	-1.000000	138.689655	0.000000	-1.000000	-1.000000	635291.000000	1772919301.124901
-4307.580000	19988.640000	-21734.145000	-14655.555000	0.000000	0.000000	0.000000	0.000000	-55.281721	51.209371	-47.916685	-81.805643	0.000000	-0.000000	-0.000000	-0.000000	-105.553420	-26.842340	89.408340	0.132019	0.549559	0.509215	-1.000000	-1.000000	-1.000000	-1.000000	-1.000000	-1.000000	-1.000000	138.689655	0.000000	-1.000000	-1.000000	635292.000000	1772919301.128638
-4197.420000	19868.580000	-21528.450000	-14441.355000	0.000000	0.000000	0.000000	0.000000	-53.694502	46.704201	-12.988079	-71.169387	0.000000	-0.000000	-0.000000	-0.000000	-105.553420	-26.842340	89.408340	0.132019	0.549559	0.509215	-1.000000	-1.000000	-1.000000	-1.000000	-1.000000	-1.000000	-1.000000	138.689655	0.000000	-1.000000	-1.000000	635293.000000	1772919301.128640
-4081.545000	19811.475000	-21584.745000	-14389.830000	0.000000	0.000000	0.000000	0.000000	-28.945771	10.327692	39.983505	-15.073049	0.000000	-0.000000	-0.000000	-0.000000	-105.553420	-26.842340	89.408340	0.132019	0.549559	0.509215	-1.000000	-1.000000	-1.000000	-1.000000	-1.000000	-1.000000	-1.000000	138.689655	0.000000	-1.000000	-1.000000	635294.000000	1772919301.132608
-4101.255000	19931.850000	-21624.210000	-14401.755000	0.000000	0.000000	0.000000	0.000000	17.702518	-34.679542	90.424039	63.034109	0.000000	-0.000000	-0.000000	-0.000000	-105.553420	-26.842340	89.408340	0.132019	0.549559	0.509215	-1.000000	-1.000000	-1.000000	-1.000000	-1.000000	-1.000000	-1.000000	138.689655	0.000000	-1.000000	-1.000000	635295.000000	1772919301.132610
-4125.420000	20005.380000	-21612.240000	-14474.745000	0.000000	0.000000	0.000000	0.000000	62.221602	-53.328959	106.437304	113.330192	0.000000	-0.000000	-0.000000	-0.000000	-105.553420	-26.842340	89.408340	0.132019	0.549559	0.509215	-1.000000	-1.000000	-1.000000	-1.000000	-1.000000	-1.000000	-1.000000	138.689655	0.000000	-1.000000	-1.000000	635296.000000	1772919301.136637
-4159.845000	19936.665000	-21606.930000	-14558.625000	0.000000	0.000000	0.000000	0.000000	73.963739	-32.705004	79.186133	100.491252	0.000000	-0.000000	-0.000000	-0.000000	-105.553420	-26.842340	89.408340	0.132019	0.549559	0.509215	-1.000000	-1.000000	-1.000000	-1.000000	-1.000000	-1.000000	-1.000000	138.689655	0.000000	-1.000000	-1.000000	635297.000000	1772919301.136640
-4174.785000	19940.760000	-21479.445000	-14498.865000	0.000000	0.000000	0.000000	0.000000	46.134477	2.951384	30.730929	34.986371	0.000000	-0.000000	-0.000000	-0.000000	-105.553420	-26.842340	89.408340	0.132019	0.549559	0.509215	-1.000000	-1.000000	-1.000000	-1.000000	-1.000000	-1.000000	-1.000000	138.689655	0.000000	-1.000000	-1.000000	635298.000000	1772919301.140638
-4144.140000	19961.280000	-21570.525000	-14502.780000	0.000000	0.000000	0.000000	0.000000	-0.282212	23.375706	-10.877390	-37.011657	0.000000	-0.000000	-0.000000	-0.000000	-105.553420	-26.842340	89.408340	0.132019	0.549559	0.509215	-1.000000	-1.000000	-1.000000	-1.000000	-1.000000	-1.000000	-1.000000	138.689655	0.000000	-1.000000	-1.000000	635299.000000	1772919301.140641
-4221.315000	19890.855000	-21716.910000	-14502.105000	0.000000	0.000000	0.000000	0.000000	-37.363756	20.094273	-38.785844	-74.057720	0.000000	-0.000000	-0.000000	-0.000000	-105.553420	-26.842340	89.408340	0.132019	0.549559	0.509215	-1.000000	-1.000000	-1.000000	-1.000000	-1.000000	-1.000000	-1.000000	138.689655	0.000000	-1.000000	-1.000000	635300.000000	1772919301.144756
-4068.855000	19855.710000	-21578.670000	-14381.415000	0.000000	0.000000	0.000000	0.000000	-48.883579	0.373818	-59.279811	-65.590002	0.000000	-0.000000	-0.000000	-0.000000	-105.553420	-26.842340	89.408340	0.132019	0.549559	0.509215	-1.000000	-1.000000	-1.000000	-1.000000	-1.000000	-1.000000	-1.000000	138.689655	0.000000	-1.000000	-1.000000	635301.000000	1772919301.144759
-3856.995000	19828.080000	-21374.415000	-14250.105000	0.000000	0.000000	0.000000	0.000000	-28.174087	-23.051266	-60.534029	-23.255240	0.000000	-0.000000	-0.000000	-0.000000	-30.230060	-23.988720	71.172640	0.072021	0.460753	0.536376	-1.000000	-1.000000	-1.000000	-1.000000	-1.000000	-1.000000	-1.000000	138.689655	0.000000	-1.000000	-1.000000	635302.000000	1772919301.151606
-4137.885000	19834.245000	-21473.370000	-14407.290000	0.000000	0.000000	0.000000	0.000000	13.518012	-35.716653	-28.202392	26.526769	0.000000	-0.000000	-0.000000	-0.000000	-30.230060	-23.988720	71.172640	0.072021	0.460753	0.536376	-1.000000	-1.000000	-1.000000	-1.000000	-1.000000	-1.000000	-1.000000	138.689655	0.000000	-1.000000	-1.000000	635303.000000	1772919301.151609
-4229.775000	19753.245000	-21463.155000	-14493.105000	0.000000	0.000000	0.000000	0.000000	35.193375	-30.402855	16.534096	46.389192	0.000000	-0.000000	-0.000000	-0.000000	-30.230060	-23.988720	71.172640	0.072021	0.460753	0.536376	-1.000000	-1.000000	-1.000000	-1.000000	-1.000000	-1.000000	-1.000000	138.689655	0.000000	-1.000000	-1.000000	635304.000000	1772919301.152674
-4223.295000	19674.270000	-21493.170000	-14510.070000	0.000000	0.000000	0.000000	0.000000	9.646300	-14.145095	37.052147	19.217775	0.000000	-0.000000	-0.000000	-0.000000	-30.230060	-23.988720	71.172640	0.072021	0.460753	0.536376	-1.000000	-1.000000	-1.000000	-1.000000	-1.000000	-1.000000	-1.000000	138.689655	0.000000	-1.000000	-1.000000	635305.000000	1772919301.152676
-4291.830000	19660.725000	-21726.765000	-14603.940000	0.000000	0.000000	0.000000	0.000000	-37.638681	0.817661	19.229316	-31.118314	0.000000	-0.000000	-0.000000	-0.000000	-30.230060	-23.988720	71.172640	0.072021	0.460753	0.536376	-1.000000	-1.000000	-1.000000	-1.000000	-1.000000	-1.000000	-1.000000	138.689655	0.000000	-1.000000	-1.000000	635306.000000	1772919301.156790
-4141.395000	19633.410000	-21643.785000	-14523.120000	0.000000	0.000000	0.000000	0.000000	-60.897393	10.996413	-24.125921	-64.744502	0.000000	-0.000000	-0.000000	-0.000000	-30.230060	-23.988720	71.172640	0.072021	0.460753	0.536376	-1.000000	-1.000000	-1.000000	-1.000000	-1.000000	-1.000000	-1.000000	138.689655	0.000000	-1.000000	-1.000000	635307.000000	1772919301.156793
-4063.365000	19621.215000	-21540.060000	-14447.340000	0.000000	0.000000	0.000000	0.000000	-36.028771	19.721459	-56.839414	-55.671622	0.000000	-0.000000	-0.000000	-0.000000	-30.230060	-23.988720	71.172640	0.072021	0.460753	0.536376	-1.000000	-1.000000	-1.000000	-1.000000	-1.000000	-1.000000	-1.000000	138.689655	0.000000	-1.000000	-1.000000	635308.000000	1772919301.162485
-4352.940000	19588.185000	-21847.995000	-14580.045000	0.000000	0.000000	0.000000	0.000000	18.628824	27.479790	-50.417358	-8.947331	0.000000	-0.000000	-0.000000	-0.000000	-30.230060	-23.988720	71.172640	0.072021	0.460753	0.536376	-1.000000	-1.000000	-1.000000	-1.000000	-1.000000	-1.000000	-1.000000	138.689655	0.000000	-1.000000	-1.000000	635309.000000	1772919301.162488
-4361.265000	19581.210000	-21709.800000	-14371.830000	0.000000	0.000000	0.000000	0.000000	52.703921	30.745609	-17.864418	43.429335	0.000000	-0.000000	-0.000000	-0.000000	-30.230060	-23.988720	71.172640	0.072021	0.460753	0.536376	-1.000000	-1.000000	-1.000000	-1.000000	-1.000000	-1.000000	-1.000000	138.689655	0.000000	-1.000000	-1.000000	635310.000000	1772919301.164657
-4135.140000	19571.310000	-21520.890000	-14268.285000	0.000000	0.000000	0.000000	0.000000	44.867317	27.067325	20.457849	77.699520	0.000000	-0.000000	-0.000000	-0.000000	-30.230060	-23.988720	71.172640	0.072021	0.460753	0.536376	-1.000000	-1.000000	-1.000000	-1.000000	-1.000000	-1.000000	-1.000000	138.689655	0.000000	-1.000000	-1.000000	635311.000000	1772919301.164661
-4117.410000	19558.395000	-21683.070000	-14413.455000	0.000000	0.000000	0.000000	0.000000	26.650864	17.621913	59.863533	86.125102	0.000000	-0.000000	-0.000000	-0.000000	0.549360	-21.348740	46.527740	0.065124	0.482665	0.584349	-1.000000	-1.000000	-1.000000	-1.000000	-1.000000	-1.000000	-1.000000	138.689655	0.000000	-1.000000	-1.000000	635312.000000	1772919301.168706
-4029.390000	19643.985000	-21742.875000	-14501.700000	0.000000	0.000000	0.000000	0.000000	26.099779	7.152997	80.652211	57.200276	0.000000	-0.000000	-0.000000	-0.000000	0.549360	-21.348740	46.527740	0.065124	0.482665	0.584349	-1.000000	-1.000000	-1.000000	-1.000000	-1.000000	-1.000000	-1.000000	138.689655	0.000000	-1.000000	-1.000000	635313.000000	1772919301.168709
-4147.605000	19778.985000	-21712.815000	-14618.745000	0.000000	0.000000	0.000000	0.000000	32.214670	4.121176	61.182812	-9.196003	0.000000	-0.000000	-0.000000	-0.000000	0.549360	-21.348740	46.527740	0.065124	0.482665	0.584349	-1.000000	-1.000000	-1.000000	-1.000000	-1.000000	-1.000000	-1.000000	138.689655	0.000000	-1.000000	-1.000000	635314.000000	1772919301.172721
-4297.410000	19793.160000	-21757.590000	-14634.225000	0.000000	0.000000	0.000000	0.000000	17.005250	12.254824	13.851825	-82.227550	0.000000	-0.000000	-0.000000	-0.000000	0.549360	-21.348740	46.527740	0.065124	0.482665	0.584349	-1.000000	-1.000000	-1.000000	-1.000000	-1.000000	-1.000000	-1.000000	138.689655	0.000000	-1.000000	-1.000000	635315.000000	1772919301.172723
-4189.770000	19781.595000	-21474.135000	-14401.305000	0.000000	0.000000	0.000000	0.000000	-26.394234	19.553709	-25.352058	-114.692796	0.000000	-0.000000	-0.000000	-0.000000	0.549360	-21.348740	46.527740	0.065124	0.482665	0.584349	-1.000000	-1.000000	-1.000000	-1.000000	-1.000000	-1.000000	-1.000000	138.689655	0.000000	-1.000000	-1.000000	635316.000000	1772919301.179730
-4309.830000	19758.555000	-21644.595000	-14553.045000	0.000000	0.000000	0.000000	0.000000	-69.735770	8.535602	-31.105459	-80.554412	0.000000	-0.000000	-0.000000	-0.000000	0.549360	-21.348740	46.527740	0.065124	0.482665	0.584349	-1.000000	-1.000000	-1.000000	-1.000000	-1.000000	-1.000000	-1.000000	138.689655	0.000000	-1.000000	-1.000000	635317.000000	1772919301.179733
-4343.940000	19756.125000	-21718.395000	-14607.540000	0.000000	0.000000	0.000000	0.000000	-83.142911	-22.227300	-16.434172	-7.516025	0.000000	-0.000000	-0.000000	-0.000000	0.549360	-21.348740	46.527740	0.065124	0.482665	0.584349	-1.000000	-1.000000	-1.000000	-1.000000	-1.000000	-1.000000	-1.000000	138.689655	0.000000	-1.000000	-1.000000	635318.000000	1772919301.180718
-4071.330000	19837.980000	-21437.595000	-14345.955000	0.000000	0.000000	0.000000	0.000000	-57.846569	-53.728849	-8.305291	54.312615	0.000000	-0.000000	-0.000000	-0.000000	0.549360	-21.348740	46.527740	0.065124	0.482665	0.584349	-1.000000	-1.000000	-1.000000	-1.000000	-1.000000	-1.000000	-1.000000	138.689655	0.000000	-1.000000	-1.000000	635319.000000	1772919301.180721
-4105.395000	19912.140000	-21439.755000	-14374.440000	0.000000	0.000000	0.000000	0.000000	1.458447	-61.870162	-3.763509	86.508213	0.000000	-0.000000	-0.000000	-0.000000	0.549360	-21.348740	46.527740	0.065124	0.482665	0.584349	-1.000000	-1.000000	-1.000000	-1.000000	-1.000000	-1.000000	-1.000000	138.689655	0.000000	-1.000000	-1.000000	635320.000000	1772919301.184809
-4273.380000	19876.050000	-21578.040000	-14536.395000	0.000000	0.000000	0.000000	0.000000	64.010693	-40.112757	4.499452	86.876421	0.000000	-0.000000	-0.000000	-0.000000	0.549360	-21.348740	46.527740	0.065124	0.482665	0.584349	-1.000000	-1.000000	-1.000000	-1.000000	-1.000000	-1.000000	-1.000000	138.689655	0.000000	-1.000000	-1.000000	635321.000000	1772919301.184812
-4206.690000	19885.500000	-21443.445000	-14511.870000	0.000000	0.000000	0.000000	0.000000	84.270094	-6.680392	3.010031	48.424785	0.000000	-0.000000	-0.000000	-0.000000	30.611560	-13.764520	27.086500	0.104797	0.541747	0.604613	-1.000000	-1.000000	-1.000000	-1.000000	-1.000000	-1.000000	-1.000000	138.689655	0.000000	-1.000000	-1.000000	635322.000000	1772919301.188909
-4282.470000	19929.330000	-21482.640000	-14569.650000	0.000000	0.000000	0.000000	0.000000	52.462514	16.535302	-11.256701	-14.978257	0.000000	-0.000000	-0.000000	-0.000000	30.611560	-13.764520	27.086500	0.104797	0.541747	0.604613	-1.000000	-1.000000	-1.000000	-1.000000	-1.000000	-1.000000	-1.000000	138.689655	0.000000	-1.000000	-1.000000	635323.000000	1772919301.188912
-4331.790000	19992.690000	-21461.400000	-14541.255000	0.000000	0.000000	0.000000	0.000000	-1.869950	24.670675	-24.458391	-67.262575	0.000000	-0.000000	-0.000000	-0.000000	30.611560	-13.764520	27.086500	0.104797	0.541747	0.604613	-1.000000	-1.000000	-1.000000	-1.000000	-1.000000	-1.000000	-1.000000	138.689655	0.000000	-1.000000	-1.000000	635324.000000	1772919301.194888
-4291.245000	20010.060000	-21632.670000	-14533.020000	0.000000	0.000000	0.000000	0.000000	-44.920218	24.619788	-30.841223	-80.978907	0.000000	-0.000000	-0.000000	-0.000000	30.611560	-13.764520	27.086500	0.104797	0.541747	0.604613	-1.000000	-1.000000	-1.000000	-1.000000	-1.000000	-1.000000	-1.000000	138.689655	0.000000	-1.000000	-1.000000	635325.000000	1772919301.194891
-4237.155000	19984.815000	-21650.355000	-14502.240000	0.000000	0.000000	0.000000	0.000000	-54.771574	19.832932	-35.345084	-53.949452	0.000000	-0.000000	-0.000000	-0.000000	30.611560	-13.764520	27.086500	0.104797	0.541747	0.604613	-1.000000	-1.000000	-1.000000	-1.000000	-1.000000	-1.000000	-1.000000	138.689655	0.000000	-1.000000	-1.000000	635326.000000	1772919301.210170
-4030.200000	19954.215000	-21611.295000	-14419.035000	0.000000	0.000000	0.000000	0.000000	-25.736680	7.813554	-35.768437	-4.445425	0.000000	-0.000000	-0.000000	-0.000000	30.611560	-13.764520	27.086500	0.104797	0.541747	0.604613	-1.000000	-1.000000	-1.000000	-1.000000	-1.000000	-1.000000	-1.000000	138.689655	0.000000	-1.000000	-1.000000	635327.000000	1772919301.210173
-3984.615000	20004.975000	-21516.930000	-14355.540000	0.000000	0.000000	0.000000	0.000000	28.026642	-9.601009	-18.452870	43.776466	0.000000	-0.000000	-0.000000	-0.000000	30.611560	-13.764520	27.086500	0.104797	0.541747	0.604613	-1.000000	-1.000000	-1.000000	-1.000000	-1.000000	-1.000000	-1.000000	138.689655	0.000000	-1.000000	-1.000000	635328.000000	1772919301.210179
-4240.485000	20115.000000	-21706.875000	-14538.375000	0.000000	0.000000	0.000000	0.000000	68.840327	-19.929129	17.266194	67.759906	0.000000	-0.000000	-0.000000	-0.000000	30.611560	-13.764520	27.086500	0.104797	0.541747	0.604613	-1.000000	-1.000000	-1.000000	-1.000000	-1.000000	-1.000000	-1.000000	138.689655	0.000000	-1.000000	-1.000000	635329.000000	1772919301.210181
-4201.605000	20220.120000	-21597.255000	-14500.665000	0.000000	0.000000	0.000000	0.000000	56.500390	-10.261625	48.328165	51.224502	0.000000	-0.000000	-0.000000	-0.000000	30.611560	-13.764520	27.086500	0.104797	0.541747	0.604613	-1.000000	-1.000000	-1.000000	-1.000000	-1.000000	-1.000000	-1.000000	138.689655	0.000000	-1.000000	-1.000000	635330.000000	1772919301.210185
-4259.205000	20365.110000	-21613.725000	-14562.225000	0.000000	0.000000	0.000000	0.000000	-5.002459	17.774781	57.401693	3.591535	0.000000	-0.000000	-0.000000	-0.000000	30.611560	-13.764520	27.086500	0.104797	0.541747	0.604613	-1.000000	-1.000000	-1.000000	-1.000000	-1.000000	-1.000000	-1.000000	138.689655	0.000000	-1.000000	-1.000000	635331.000000	1772919301.210187
-4381.875000	20428.020000	-21742.695000	-14640.255000	0.000000	0.000000	0.000000	0.000000	-70.332729	46.950744	45.694870	-44.294969	0.000000	-0.000000	-0.000000	-0.000000	22.218560	-16.236640	22.096480	0.124084	0.607237	0.632872	-1.000000	-1.000000	-1.000000	-1.000000	-1.000000	-1.000000	-1.000000	138.689655	0.000000	-1.000000	-1.000000	635332.000000	1772919301.213040
-4398.210000	20368.035000	-21874.815000	-14646.645000	0.000000	0.000000	0.000000	0.000000	-101.375271	53.800154	15.707990	-67.972258	0.000000	-0.000000	-0.000000	-0.000000	22.218560	-16.236640	22.096480	0.124084	0.607237	0.632872	-1.000000	-1.000000	-1.000000	-1.000000	-1.000000	-1.000000	-1.000000	138.689655	0.000000	-1.000000	-1.000000	635333.000000	1772919301.213043
-4272.480000	20240.505000	-21803.940000	-14593.185000	0.000000	0.000000	0.000000	0.000000	-83.559092	21.618112	-23.527242	-58.036849	0.000000	-0.000000	-0.000000	-0.000000	22.218560	-16.236640	22.096480	0.124084	0.607237	0.632872	-1.000000	-1.000000	-1.000000	-1.000000	-1.000000	-1.000000	-1.000000	138.689655	0.000000	-1.000000	-1.000000	635334.000000	1772919301.213047
-4209.390000	20222.865000	-21634.110000	-14481.270000	0.000000	0.000000	0.000000	0.000000	-20.645910	-42.069891	-43.645754	-16.594634	0.000000	-0.000000	-0.000000	-0.000000	22.218560	-16.236640	22.096480	0.124084	0.607237	0.632872	-1.000000	-1.000000	-1.000000	-1.000000	-1.000000	-1.000000	-1.000000	138.689655	0.000000	-1.000000	-1.000000	635335.000000	1772919301.213050
-4181.580000	20241.270000	-21562.965000	-14454.315000	0.000000	0.000000	0.000000	0.000000	59.792305	-100.508892	-20.694347	40.093209	0.000000	-0.000000	-0.000000	-0.000000	22.218560	-16.236640	22.096480	0.124084	0.607237	0.632872	-1.000000	-1.000000	-1.000000	-1.000000	-1.000000	-1.000000	-1.000000	138.689655	0.000000	-1.000000	-1.000000	635336.000000	1772919301.217492
-4145.580000	20260.800000	-21576.105000	-14471.955000	0.000000	0.000000	0.000000	0.000000	115.420869	-113.464214	30.643421	82.575789	0.000000	-0.000000	-0.000000	-0.000000	22.218560	-16.236640	22.096480	0.124084	0.607237	0.632872	-1.000000	-1.000000	-1.000000	-1.000000	-1.000000	-1.000000	-1.000000	138.689655	0.000000	-1.000000	-1.000000	635337.000000	1772919301.217494
-4208.040000	20413.080000	-21666.555000	-14527.395000	0.000000	0.000000	0.000000	0.000000	117.186336	-68.513059	64.877143	84.018226	0.000000	-0.000000	-0.000000	-0.000000	22.218560	-16.236640	22.096480	0.124084	0.607237	0.632872	-1.000000	-1.000000	-1.000000	-1.000000	-1.000000	-1.000000	-1.000000	138.689655	0.000000	-1.000000	-1.000000	635338.000000	1772919301.222293
-4247.100000	20390.400000	-21753.855000	-14580.045000	0.000000	0.000000	0.000000	0.000000	65.454570	12.353486	48.556807	40.824913	0.000000	-0.000000	-0.000000	-0.000000	22.218560	-16.236640	22.096480	0.124084	0.607237	0.632872	-1.000000	-1.000000	-1.000000	-1.000000	-1.000000	-1.000000	-1.000000	138.689655	0.000000	-1.000000	-1.000000	635339.000000	1772919301.222296
-4268.115000	20282.760000	-21809.970000	-14645.160000	0.000000	0.000000	0.000000	0.000000	-12.582826	83.067272	-10.751413	-23.986514	0.000000	-0.000000	-0.000000	-0.000000	22.218560	-16.236640	22.096480	0.124084	0.607237	0.632872	-1.000000	-1.000000	-1.000000	-1.000000	-1.000000	-1.000000	-1.000000	138.689655	0.000000	-1.000000	-1.000000	635340.000000	1772919301.224869
-4282.695000	20193.030000	-21776.445000	-14662.800000	0.000000	0.000000	0.000000	0.000000	-77.909748	100.465674	-72.136250	-76.601350	0.000000	-0.000000	-0.000000	-0.000000	22.218560	-16.236640	22.096480	0.124084	0.607237	0.632872	-1.000000	-1.000000	-1.000000	-1.000000	-1.000000	-1.000000	-1.000000	138.689655	0.000000	-1.000000	-1.000000	635341.000000	1772919301.224872
-4313.115000	20172.330000	-21757.005000	-14643.675000	0.000000	0.000000	0.000000	0.000000	-102.749709	59.662369	-93.655713	-91.351199	0.000000	-0.000000	-0.000000	-0.000000	-10.575180	-18.662980	16.114560	0.156555	0.677611	0.638609	-1.000000	-1.000000	-1.000000	-1.000000	-1.000000	-1.000000	-1.000000	138.689655	0.000000	-1.000000	-1.000000	635342.000000	1772919301.228863
-4169.295000	20135.160000	-21598.965000	-14459.040000	0.000000	0.000000	0.000000	0.000000	-81.517945	-3.360427	-60.639830	-59.814129	0.000000	-0.000000	-0.000000	-0.000000	-10.575180	-18.662980	16.114560	0.156555	0.677611	0.638609	-1.000000	-1.000000	-1.000000	-1.000000	-1.000000	-1.000000	-1.000000	138.689655	0.000000	-1.000000	-1.000000	635343.000000	1772919301.228866
-4072.995000	20064.690000	-21547.620000	-14351.580000	0.000000	0.000000	0.000000	0.000000	-24.734943	-47.188556	9.120559	7.452910	0.000000	-0.000000	-0.000000	-0.000000	-10.575180	-18.662980	16.114560	0.156555	0.677611	0.638609	-1.000000	-1.000000	-1.000000	-1.000000	-1.000000	-1.000000	-1.000000	138.689655	0.000000	-1.000000	-1.000000	635344.000000	1772919301.232775
-4124.070000	20058.570000	-21582.135000	-14415.750000	0.000000	0.000000	0.000000	0.000000	41.556634	-54.364096	75.273518	77.060856	0.000000	-0.000000	-0.000000	-0.000000	-10.575180	-18.662980	16.114560	0.156555	0.677611	0.638609	-1.000000	-1.000000	-1.000000	-1.000000	-1.000000	-1.000000	-1.000000	138.689655	0.000000	-1.000000	-1.000000	635345.000000	1772919301.232778
-4044.015000	20040.705000	-21467.880000	-14382.135000	0.000000	0.000000	0.000000	0.000000	81.535753	-30.736771	99.407702	105.295086	0.000000	-0.000000	-0.000000	-0.000000	-10.575180	-18.662980	16.114560	0.156555	0.677611	0.638609	-1.000000	-1.000000	-1.000000	-1.000000	-1.000000	-1.000000	-1.000000	138.689655	0.000000	-1.000000	-1.000000	635346.000000	1772919301.248675
-4299.615000	19990.800000	-21707.640000	-14571.000000	0.000000	0.000000	0.000000	0.000000	72.192369	5.971237	70.036872	71.513500	0.000000	-0.000000	-0.000000	-0.000000	-10.575180	-18.662980	16.114560	0.156555	0.677611	0.638609	-1.000000	-1.000000	-1.000000	-1.000000	-1.000000	-1.000000	-1.000000	138.689655	0.000000	-1.000000	-1.000000	635347.000000	1772919301.248678
-4198.680000	19929.060000	-21643.785000	-14499.540000	0.000000	0.000000	0.000000	0.000000	18.522053	34.744741	2.541948	-5.260702	0.000000	-0.000000	-0.000000	-0.000000	-10.575180	-18.662980	16.114560	0.156555	0.677611	0.638609	-1.000000	-1.000000	-1.000000	-1.000000	-1.000000	-1.000000	-1.000000	138.689655	0.000000	-1.000000	-1.000000	635348.000000	1772919301.249032
-4126.005000	19794.735000	-21591.045000	-14455.890000	0.000000	0.000000	0.000000	0.000000	-42.652761	40.517261	-65.838185	-76.897481	0.000000	-0.000000	-0.000000	-0.000000	-10.575180	-18.662980	16.114560	0.156555	0.677611	0.638609	-1.000000	-1.000000	-1.000000	-1.000000	-1.000000	-1.000000	-1.000000	138.689655	0.000000	-1.000000	-1.000000	635349.000000	1772919301.249035
-4188.780000	19722.465000	-21619.305000	-14514.615000	0.000000	0.000000	0.000000	0.000000	-68.196795	21.771867	-94.007741	-100.631020	0.000000	-0.000000	-0.000000	-0.000000	-10.575180	-18.662980	16.114560	0.156555	0.677611	0.638609	-1.000000	-1.000000	-1.000000	-1.000000	-1.000000	-1.000000	-1.000000	138.689655	0.000000	-1.000000	-1.000000	635350.000000	1772919301.249039
-4137.615000	19677.960000	-21545.370000	-14479.155000	0.000000	0.000000	0.000000	0.000000	-50.055066	-7.125979	-71.288913	-72.936186	0.000000	-0.000000	-0.000000	-0.000000	-10.575180	-18.662980	16.114560	0.156555	0.677611	0.638609	-1.000000	-1.000000	-1.000000	-1.000000	-1.000000	-1.000000	-1.000000	138.689655	0.000000	-1.000000	-1.000000	635351.000000	1772919301.249042
-4058.415000	19701.540000	-21453.615000	-14367.960000	0.000000	0.000000	0.000000	0.000000	-9.629899	-23.800641	-17.517730	-18.320320	0.000000	-0.000000	-0.000000	-0.000000	-47.931660	-13.718740	-1.587040	0.213867	0.714598	0.621153	-1.000000	-1.000000	-1.000000	-1.000000	-1.000000	-1.000000	-1.000000	138.689655	0.000000	-1.000000	-1.000000	635352.000000	1772919301.249045
-4119.435000	19727.730000	-21517.920000	-14361.885000	0.000000	0.000000	0.000000	0.000000	29.249271	-14.240380	37.519735	37.727257	0.000000	-0.000000	-0.000000	-0.000000	-47.931660	-13.718740	-1.587040	0.213867	0.714598	0.621153	-1.000000	-1.000000	-1.000000	-1.000000	-1.000000	-1.000000	-1.000000	138.689655	0.000000	-1.000000	-1.000000	635353.000000	1772919301.249048
-4120.200000	19643.445000	-21485.565000	-14385.870000	0.000000	0.000000	0.000000	0.000000	46.855243	14.365871	65.439833	72.408344	0.000000	-0.000000	-0.000000	-0.000000	-47.931660	-13.718740	-1.587040	0.213867	0.714598	0.621153	-1.000000	-1.000000	-1.000000	-1.000000	-1.000000	-1.000000	-1.000000	138.689655	0.000000	-1.000000	-1.000000	635354.000000	1772919301.253062
-4280.760000	19544.220000	-21673.305000	-14509.305000	0.000000	0.000000	0.000000	0.000000	33.231708	36.557903	52.291626	67.983735	0.000000	-0.000000	-0.000000	-0.000000	-47.931660	-13.718740	-1.587040	0.213867	0.714598	0.621153	-1.000000	-1.000000	-1.000000	-1.000000	-1.000000	-1.000000	-1.000000	138.689655	0.000000	-1.000000	-1.000000	635355.000000	1772919301.253065
-4269.015000	19438.695000	-21684.105000	-14570.415000	0.000000	0.000000	0.000000	0.000000	-3.952026	30.748241	6.248599	24.711276	0.000000	-0.000000	-0.000000	-0.000000	-47.931660	-13.718740	-1.587040	0.213867	0.714598	0.621153	-1.000000	-1.000000	-1.000000	-1.000000	-1.000000	-1.000000	-1.000000	138.689655	0.000000	-1.000000	-1.000000	635356.000000	1772919301.257084
-4140.495000	19387.260000	-21545.145000	-14488.470000	0.000000	0.000000	0.000000	0.000000	-37.491425	-0.223369	-41.493082	-30.883874	0.000000	-0.000000	-0.000000	-0.000000	-47.931660	-13.718740	-1.587040	0.213867	0.714598	0.621153	-1.000000	-1.000000	-1.000000	-1.000000	-1.000000	-1.000000	-1.000000	138.689655	0.000000	-1.000000	-1.000000	635357.000000	1772919301.257086
-4159.080000	19413.810000	-21660.705000	-14519.565000	0.000000	0.000000	0.000000	0.000000	-38.192936	-31.499581	-55.407961	-60.920665	0.000000	-0.000000	-0.000000	-0.000000	-47.931660	-13.718740	-1.587040	0.213867	0.714598	0.621153	-1.000000	-1.000000	-1.000000	-1.000000	-1.000000	-1.000000	-1.000000	138.689655	0.000000	-1.000000	-1.000000	635358.000000	1772919301.261041
-4095.945000	19466.370000	-21629.205000	-14478.390000	0.000000	0.000000	0.000000	0.000000	-5.553312	-36.726807	-31.517027	-48.770025	0.000000	-0.000000	-0.000000	-0.000000	-47.931660	-13.718740	-1.587040	0.213867	0.714598	0.621153	-1.000000	-1.000000	-1.000000	-1.000000	-1.000000	-1.000000	-1.000000	138.689655	0.000000	-1.000000	-1.000000	635359.000000	1772919301.261044
-4077.495000	19507.365000	-21459.420000	-14448.870000	0.000000	0.000000	0.000000	0.000000	33.828318	-9.502823	8.653071	-8.631913	0.000000	-0.000000	-0.000000	-0.000000	-47.931660	-13.718740	-1.587040	0.213867	0.714598	0.621153	-1.000000	-1.000000	-1.000000	-1.000000	-1.000000	-1.000000	-1.000000	138.689655	0.000000	-1.000000	-1.000000	635360.000000	1772919301.264999
-4158.225000	19508.805000	-21317.130000	-14353.560000	0.000000	0.000000	0.000000	0.000000	52.373422	31.168410	50.318446	34.607216	0.000000	-0.000000	-0.000000	-0.000000	-47.931660	-13.718740	-1.587040	0.213867	0.714598	0.621153	-1.000000	-1.000000	-1.000000	-1.000000	-1.000000	-1.000000	-1.000000	138.689655	0.000000	-1.000000	-1.000000	635361.000000	1772919301.265001
-4108.905000	19519.245000	-21377.925000	-14285.070000	0.000000	0.000000	0.000000	0.000000	38.448350	56.533727	80.544354	62.826283	0.000000	-0.000000	-0.000000	-0.000000	-42.361760	-8.484560	-13.810300	0.251769	0.693785	0.617857	-1.000000	-1.000000	-1.000000	-1.000000	-1.000000	-1.000000	-1.000000	138.689655	0.000000	-1.000000	-1.000000	635362.000000	1772919301.268969
-4245.885000	19533.555000	-21678.840000	-14485.680000	0.000000	0.000000	0.000000	0.000000	1.481604	50.607636	71.837373	63.214121	0.000000	-0.000000	-0.000000	-0.000000	-42.361760	-8.484560	-13.810300	0.251769	0.693785	0.617857	-1.000000	-1.000000	-1.000000	-1.000000	-1.000000	-1.000000	-1.000000	138.689655	0.000000	-1.000000	-1.000000	635363.000000	1772919301.268972
-4263.030000	19554.885000	-21604.140000	-14513.445000	0.000000	0.000000	0.000000	0.000000	-38.651369	19.367174	8.682416	26.808294	0.000000	-0.000000	-0.000000	-0.000000	-42.361760	-8.484560	-13.810300	0.251769	0.693785	0.617857	-1.000000	-1.000000	-1.000000	-1.000000	-1.000000	-1.000000	-1.000000	138.689655	0.000000	-1.000000	-1.000000	635364.000000	1772919301.273054
-4196.340000	19551.600000	-21598.290000	-14538.375000	0.000000	0.000000	0.000000	0.000000	-61.590672	-18.491345	-73.344104	-33.133680	0.000000	-0.000000	-0.000000	-0.000000	-42.361760	-8.484560	-13.810300	0.251769	0.693785	0.617857	-1.000000	-1.000000	-1.000000	-1.000000	-1.000000	-1.000000	-1.000000	138.689655	0.000000	-1.000000	-1.000000	635365.000000	1772919301.273057
-4175.775000	19555.245000	-21622.230000	-14492.970000	0.000000	0.000000	0.000000	0.000000	-51.646982	-46.220548	-114.579832	-78.631665	0.000000	-0.000000	-0.000000	-0.000000	-42.361760	-8.484560	-13.810300	0.251769	0.693785	0.617857	-1.000000	-1.000000	-1.000000	-1.000000	-1.000000	-1.000000	-1.000000	138.689655	0.000000	-1.000000	-1.000000	635366.000000	1772919301.277043
-4145.940000	19611.720000	-21611.250000	-14448.780000	0.000000	0.000000	0.000000	0.000000	-12.129251	-55.090044	-92.190178	-78.829508	0.000000	-0.000000	-0.000000	-0.000000	-42.361760	-8.484560	-13.810300	0.251769	0.693785	0.617857	-1.000000	-1.000000	-1.000000	-1.000000	-1.000000	-1.000000	-1.000000	138.827586	0.000000	-1.000000	-1.000000	635367.000000	1772919301.277046
-4003.020000	19500.480000	-21448.350000	-14283.945000	0.000000	0.000000	0.000000	0.000000	35.520126	-46.138105	-25.833428	-32.548319	0.000000	-0.000000	-0.000000	-0.000000	-42.361760	-8.484560	-13.810300	0.251769	0.693785	0.617857	-1.000000	-1.000000	-1.000000	-1.000000	-1.000000	-1.000000	-1.000000	138.827586	0.000000	-1.000000	-1.000000	635368.000000	1772919301.283100
-3924.900000	19499.985000	-21453.030000	-14300.730000	0.000000	0.000000	0.000000	0.000000	71.040323	-30.565425	50.689419	34.480500	0.000000	-0.000000	-0.000000	-0.000000	-42.361760	-8.484560	-13.810300	0.251769	0.693785	0.617857	-1.000000	-1.000000	-1.000000	-1.000000	-1.000000	-1.000000	-1.000000	138.827586	0.000000	-1.000000	-1.000000	635369.000000	1772919301.283103
-4200.705000	19575.810000	-21675.195000	-14514.165000	0.000000	0.000000	0.000000	0.000000	76.156293	-16.204159	97.800015	78.778584	0.000000	-0.000000	-0.000000	-0.000000	-42.361760	-8.484560	-13.810300	0.251769	0.693785	0.617857	-1.000000	-1.000000	-1.000000	-1.000000	-1.000000	-1.000000	-1.000000	138.827586	0.000000	-1.000000	-1.000000	635370.000000	1772919301.284955
-4236.795000	19601.955000	-21671.730000	-14520.960000	0.000000	0.000000	0.000000	0.000000	34.357871	1.357717	84.645593	65.360880	0.000000	-0.000000	-0.000000	-0.000000	-42.361760	-8.484560	-13.810300	0.251769	0.693785	0.617857	-1.000000	-1.000000	-1.000000	-1.000000	-1.000000	-1.000000	-1.000000	138.827586	0.000000	-1.000000	-1.000000	635371.000000	1772919301.284957
-4296.870000	19640.295000	-21761.865000	-14602.635000	0.000000	0.000000	0.000000	0.000000	-40.523388	24.106968	21.700086	4.201262	0.000000	-0.000000	-0.000000	-0.000000	-7.187460	-10.697260	-16.541840	0.245544	0.656920	0.633482	-1.000000	-1.000000	-1.000000	-1.000000	-1.000000	-1.000000	-1.000000	138.827586	0.000000	-1.000000	-1.000000	635372.000000	1772919301.289135
-4252.905000	19701.315000	-21703.815000	-14564.295000	0.000000	0.000000	0.000000	0.000000	-99.844430	43.395712	-43.803023	-56.894674	0.000000	-0.000000	-0.000000	-0.000000	-7.187460	-10.697260	-16.541840	0.245544	0.656920	0.633482	-1.000000	-1.000000	-1.000000	-1.000000	-1.000000	-1.000000	-1.000000	138.827586	0.000000	-1.000000	-1.000000	635373.000000	1772919301.289137
-4201.065000	19721.880000	-21639.465000	-14523.255000	0.000000	0.000000	0.000000	0.000000	-102.128510	49.477409	-68.356573	-75.536460	0.000000	-0.000000	-0.000000	-0.000000	-7.187460	-10.697260	-16.541840	0.245544	0.656920	0.633482	-1.000000	-1.000000	-1.000000	-1.000000	-1.000000	-1.000000	-1.000000	138.827586	0.000000	-1.000000	-1.000000	635374.000000	1772919301.297483
-4175.460000	19727.235000	-21607.875000	-14512.140000	0.000000	0.000000	0.000000	0.000000	-46.156198	38.091965	-41.051454	-43.259286	0.000000	-0.000000	-0.000000	-0.000000	-7.187460	-10.697260	-16.541840	0.245544	0.656920	0.633482	-1.000000	-1.000000	-1.000000	-1.000000	-1.000000	-1.000000	-1.000000	138.827586	0.000000	-1.000000	-1.000000	635375.000000	1772919301.297485
-4169.880000	19738.485000	-21572.100000	-14479.020000	0.000000	0.000000	0.000000	0.000000	31.955231	11.975768	13.461637	14.591838	0.000000	-0.000000	-0.000000	-0.000000	-7.187460	-10.697260	-16.541840	0.245544	0.656920	0.633482	-1.000000	-1.000000	-1.000000	-1.000000	-1.000000	-1.000000	-1.000000	138.827586	0.000000	-1.000000	-1.000000	635376.000000	1772919301.300384
-4074.435000	19661.085000	-21493.215000	-14391.765000	0.000000	0.000000	0.000000	0.000000	88.885859	-20.196325	58.375541	63.196664	0.000000	-0.000000	-0.000000	-0.000000	-7.187460	-10.697260	-16.541840	0.245544	0.656920	0.633482	-1.000000	-1.000000	-1.000000	-1.000000	-1.000000	-1.000000	-1.000000	138.827586	0.000000	-1.000000	-1.000000	635377.000000	1772919301.300387
-4055.400000	19696.680000	-21505.905000	-14356.980000	0.000000	0.000000	0.000000	0.000000	103.358168	-47.504820	71.077750	82.408235	0.000000	-0.000000	-0.000000	-0.000000	-7.187460	-10.697260	-16.541840	0.245544	0.656920	0.633482	-1.000000	-1.000000	-1.000000	-1.000000	-1.000000	-1.000000	-1.000000	138.827586	0.000000	-1.000000	-1.000000	635378.000000	1772919301.303646
-4106.745000	19718.145000	-21551.355000	-14317.065000	0.000000	0.000000	0.000000	0.000000	76.945767	-57.844073	47.734102	69.518808	0.000000	-0.000000	-0.000000	-0.000000	-7.187460	-10.697260	-16.541840	0.245544	0.656920	0.633482	-1.000000	-1.000000	-1.000000	-1.000000	-1.000000	-1.000000	-1.000000	138.827586	0.000000	-1.000000	-1.000000	635379.000000	1772919301.303649
-4212.360000	19707.480000	-21667.770000	-14429.115000	0.000000	0.000000	0.000000	0.000000	20.915616	-44.397842	-2.545557	30.571450	0.000000	-0.000000	-0.000000	-0.000000	-7.187460	-10.697260	-16.541840	0.245544	0.656920	0.633482	-1.000000	-1.000000	-1.000000	-1.000000	-1.000000	-1.000000	-1.000000	138.827586	0.000000	-1.000000	-1.000000	635380.000000	1772919301.306632
-4265.640000	19598.760000	-21707.820000	-14557.095000	0.000000	0.000000	0.000000	0.000000	-45.935250	-16.734776	-59.846569	-25.613876	0.000000	-0.000000	-0.000000	-0.000000	-7.187460	-10.697260	-16.541840	0.245544	0.656920	0.633482	-1.000000	-1.000000	-1.000000	-1.000000	-1.000000	-1.000000	-1.000000	138.827586	0.000000	-1.000000	-1.000000	635381.000000	1772919301.306634
-4238.955000	19537.605000	-21696.615000	-14628.150000	0.000000	0.000000	0.000000	0.000000	-95.293444	4.822341	-96.444459	-83.546988	0.000000	-0.000000	-0.000000	-0.000000	11.414480	-8.866060	-15.076880	0.237365	0.660032	0.634154	-1.000000	-1.000000	-1.000000	-1.000000	-1.000000	-1.000000	-1.000000	138.827586	0.000000	-1.000000	-1.000000	635382.000000	1772919301.309730
-4221.990000	19627.515000	-21674.655000	-14586.615000	0.000000	0.000000	0.000000	0.000000	-101.134811	12.219932	-90.154211	-116.186466	0.000000	-0.000000	-0.000000	-0.000000	11.414480	-8.866060	-15.076880	0.237365	0.660032	0.634154	-1.000000	-1.000000	-1.000000	-1.000000	-1.000000	-1.000000	-1.000000	138.827586	0.000000	-1.000000	-1.000000	635383.000000	1772919301.309732
-4161.870000	19633.680000	-21587.265000	-14472.810000	0.000000	0.000000	0.000000	0.000000	-59.428032	17.355123	-40.613198	-97.426264	0.000000	-0.000000	-0.000000	-0.000000	11.414480	-8.866060	-15.076880	0.237365	0.660032	0.634154	-1.000000	-1.000000	-1.000000	-1.000000	-1.000000	-1.000000	-1.000000	138.827586	0.000000	-1.000000	-1.000000	635384.000000	1772919301.313326
-4131.945000	19602.855000	-21533.355000	-14405.850000	0.000000	0.000000	0.000000	0.000000	7.522489	29.182314	29.582830	-26.436129	0.000000	-0.000000	-0.000000	-0.000000	11.414480	-8.866060	-15.076880	0.237365	0.660032	0.634154	-1.000000	-1.000000	-1.000000	-1.000000	-1.000000	-1.000000	-1.000000	138.827586	0.000000	-1.000000	-1.000000	635385.000000	1772919301.313328
-4106.880000	19625.355000	-21523.320000	-14406.030000	0.000000	0.000000	0.000000	0.000000	65.885937	39.518021	87.037363	61.991679	0.000000	-0.000000	-0.000000	-0.000000	11.414480	-8.866060	-15.076880	0.237365	0.660032	0.634154	-1.000000	-1.000000	-1.000000	-1.000000	-1.000000	-1.000000	-1.000000	138.827586	0.000000	-1.000000	-1.000000	635386.000000	1772919301.317167
-4111.605000	19642.500000	-21566.655000	-14426.190000	0.000000	0.000000	0.000000	0.000000	89.423546	38.370044	103.319575	117.890196	0.000000	-0.000000	-0.000000	-0.000000	11.414480	-8.866060	-15.076880	0.237365	0.660032	0.634154	-1.000000	-1.000000	-1.000000	-1.000000	-1.000000	-1.000000	-1.000000	138.827586	0.000000	-1.000000	-1.000000	635387.000000	1772919301.317170
-4122.945000	19748.880000	-21593.295000	-14441.760000	0.000000	0.000000	0.000000	0.000000	71.598584	27.611637	70.737696	112.468973	0.000000	-0.000000	-0.000000	-0.000000	11.414480	-8.866060	-15.076880	0.237365	0.660032	0.634154	-1.000000	-1.000000	-1.000000	-1.000000	-1.000000	-1.000000	-1.000000	138.827586	0.000000	-1.000000	-1.000000	635388.000000	1772919301.321159
-4222.980000	19857.375000	-21675.600000	-14579.100000	0.000000	0.000000	0.000000	0.000000	24.321406	17.498505	7.139771	53.729386	0.000000	-0.000000	-0.000000	-0.000000	11.414480	-8.866060	-15.076880	0.237365	0.660032	0.634154	-1.000000	-1.000000	-1.000000	-1.000000	-1.000000	-1.000000	-1.000000	138.827586	0.000000	-1.000000	-1.000000	635389.000000	1772919301.321162
-4194.540000	19786.095000	-21628.170000	-14526.765000	0.000000	0.000000	0.000000	0.000000	-30.260424	11.930099	-54.683856	-24.745627	0.000000	-0.000000	-0.000000	-0.000000	11.414480	-8.866060	-15.076880	0.237365	0.660032	0.634154	-1.000000	-1.000000	-1.000000	-1.000000	-1.000000	-1.000000	-1.000000	138.827586	0.000000	-1.000000	-1.000000	635390.000000	1772919301.325212
-4209.930000	19718.595000	-21661.425000	-14555.655000	0.000000	0.000000	0.000000	0.000000	-66.708199	-0.565764	-84.533744	-81.631749	0.000000	-0.000000	-0.000000	-0.000000	11.414480	-8.866060	-15.076880	0.237365	0.660032	0.634154	-1.000000	-1.000000	-1.000000	-1.000000	-1.000000	-1.000000	-1.000000	138.827586	0.000000	-1.000000	-1.000000	635391.000000	1772919301.325215
-4216.095000	19705.905000	-21637.980000	-14548.500000	0.000000	0.000000	0.000000	0.000000	-69.041806	-29.255210	-72.120661	-90.951899	0.000000	-0.000000	-0.000000	-0.000000	3.265640	0.885080	-11.887540	0.238464	0.688841	0.625426	-1.000000	-1.000000	-1.000000	-1.000000	-1.000000	-1.000000	-1.000000	138.827586	0.000000	-1.000000	-1.000000	635392.000000	1772919301.329254
-4161.150000	19739.520000	-21513.465000	-14451.480000	0.000000	0.000000	0.000000	0.000000	-40.597743	-60.683666	-28.600517	-55.640594	0.000000	-0.000000	-0.000000	-0.000000	3.265640	0.885080	-11.887540	0.238464	0.688841	0.625426	-1.000000	-1.000000	-1.000000	-1.000000	-1.000000	-1.000000	-1.000000	138.827586	0.000000	-1.000000	-1.000000	635393.000000	1772919301.329257
-4089.870000	19738.935000	-21413.340000	-14395.365000	0.000000	0.000000	0.000000	0.000000	3.301829	-70.394439	27.132501	2.829062	0.000000	-0.000000	-0.000000	-0.000000	3.265640	0.885080	-11.887540	0.238464	0.688841	0.625426	-1.000000	-1.000000	-1.000000	-1.000000	-1.000000	-1.000000	-1.000000	138.827586	0.000000	-1.000000	-1.000000	635394.000000	1772919301.333188
