Channel1	Channel2	Channel3	Channel4	Channel5	Channel6	Channel7	Channel8	FilteredChannel1	FilteredChannel2	FilteredChannel3	FilteredChannel4	FilteredChannel5	FilteredChannel6	FilteredChannel7	FilteredChannel8	GyroX	GyroY	GyroZ	AccX	AccY	AccZ	PPG1	PPG2	rawPPG1	rawPPG2	rawPPG3	Hr	Hrv	Battery	Trigger	PhysicalTrigger	AutoTrigger	NumMeasurements	Timestamp
-4188.780000	21332.475000	-21921.075000	-14767.830000	0.000000	0.000000	0.000000	0.000000	-26.809583	143.321609	-31.292439	-28.488456	0.000000	-0.000000	-0.000000	-0.000000	3.952340	0.320460	-0.274680	-0.019287	0.889768	0.442138	-1.000000	-1.000000	-1.000000	-1.000000	-1.000000	-1.000000	-1.000000	138.689655	0.000000	-1.000000	-1.000000	644934.000000	1772919320.470003
-4182.975000	21389.670000	-21907.575000	-14758.920000	0.000000	0.000000	0.000000	0.000000	-64.223887	83.512113	-96.089270	-91.114114	0.000000	-0.000000	-0.000000	-0.000000	3.952340	0.320460	-0.274680	-0.019287	0.889768	0.442138	-1.000000	-1.000000	-1.000000	-1.000000	-1.000000	-1.000000	-1.000000	138.689655	0.000000	-1.000000	-1.000000	644935.000000	1772919320.470007
-4166.280000	21489.120000	-21865.230000	-14719.230000	0.000000	0.000000	0.000000	0.000000	-70.547868	8.306445	-112.495170	-108.288932	0.000000	-0.000000	-0.000000	-0.000000	3.952340	0.320460	-0.274680	-0.019287	0.889768	0.442138	-1.000000	-1.000000	-1.000000	-1.000000	-1.000000	-1.000000	-1.000000	138.689655	0.000000	-1.000000	-1.000000	644936.000000	1772919320.473859
-4124.790000	21551.670000	-21790.890000	-14649.615000	0.000000	0.000000	0.000000	0.000000	-41.250780	-45.322600	-69.726621	-68.749920	0.000000	-0.000000	-0.000000	-0.000000	3.952340	0.320460	-0.274680	-0.019287	0.889768	0.442138	-1.000000	-1.000000	-1.000000	-1.000000	-1.000000	-1.000000	-1.000000	138.689655	0.000000	-1.000000	-1.000000	644937.000000	1772919320.473862
-4038.030000	21564.270000	-21668.040000	-14530.770000	0.000000	0.000000	0.000000	0.000000	10.020013	-63.961556	11.123141	8.306368	0.000000	-0.000000	-0.000000	-0.000000	3.952340	0.320460	-0.274680	-0.019287	0.889768	0.442138	-1.000000	-1.000000	-1.000000	-1.000000	-1.000000	-1.000000	-1.000000	138.689655	0.000000	-1.000000	-1.000000	644938.000000	1772919320.478009
-4040.055000	21593.835000	-21673.530000	-14531.850000	0.000000	0.000000	0.000000	0.000000	59.001644	-59.102008	89.017812	83.962116	0.000000	-0.000000	-0.000000	-0.000000	3.952340	0.320460	-0.274680	-0.019287	0.889768	0.442138	-1.000000	-1.000000	-1.000000	-1.000000	-1.000000	-1.000000	-1.000000	138.689655	0.000000	-1.000000	-1.000000	644939.000000	1772919320.478011
-4068.045000	21588.570000	-21718.620000	-14574.690000	0.000000	0.000000	0.000000	0.000000	80.918025	-48.202740	122.858513	118.424042	0.000000	-0.000000	-0.000000	-0.000000	3.952340	0.320460	-0.274680	-0.019287	0.889768	0.442138	-1.000000	-1.000000	-1.000000	-1.000000	-1.000000	-1.000000	-1.000000	138.689655	0.000000	-1.000000	-1.000000	644940.000000	1772919320.481975
-4109.625000	21557.700000	-21786.165000	-14638.545000	0.000000	0.000000	0.000000	0.000000	62.953112	-40.901602	93.423525	92.164057	0.000000	-0.000000	-0.000000	-0.000000	3.952340	0.320460	-0.274680	-0.019287	0.889768	0.442138	-1.000000	-1.000000	-1.000000	-1.000000	-1.000000	-1.000000	-1.000000	138.689655	0.000000	-1.000000	-1.000000	644941.000000	1772919320.481977
-4199.400000	21558.780000	-21919.815000	-14765.895000	0.000000	0.000000	0.000000	0.000000	13.463091	-37.661853	15.948517	18.659090	0.000000	-0.000000	-0.000000	-0.000000	4.578000	0.274680	-0.625660	-0.018127	0.889341	0.442687	-1.000000	-1.000000	-1.000000	-1.000000	-1.000000	-1.000000	-1.000000	138.689655	0.000000	-1.000000	-1.000000	644942.000000	1772919320.485990
-4214.520000	21607.245000	-21938.265000	-14789.790000	0.000000	0.000000	0.000000	0.000000	-42.708296	-31.585004	-69.463877	-64.094887	0.000000	-0.000000	-0.000000	-0.000000	4.578000	0.274680	-0.625660	-0.018127	0.889341	0.442687	-1.000000	-1.000000	-1.000000	-1.000000	-1.000000	-1.000000	-1.000000	138.689655	0.000000	-1.000000	-1.000000	644943.000000	1772919320.485993
-4182.615000	21643.560000	-21888.540000	-14741.820000	0.000000	0.000000	0.000000	0.000000	-76.414767	-14.558329	-117.917189	-112.709638	0.000000	-0.000000	-0.000000	-0.000000	4.578000	0.274680	-0.625660	-0.018127	0.889341	0.442687	-1.000000	-1.000000	-1.000000	-1.000000	-1.000000	-1.000000	-1.000000	138.689655	0.000000	-1.000000	-1.000000	644944.000000	1772919320.489975
-4139.190000	21649.500000	-21823.830000	-14680.125000	0.000000	0.000000	0.000000	0.000000	-69.058170	12.170867	-102.713676	-100.474045	0.000000	-0.000000	-0.000000	-0.000000	4.578000	0.274680	-0.625660	-0.018127	0.889341	0.442687	-1.000000	-1.000000	-1.000000	-1.000000	-1.000000	-1.000000	-1.000000	138.689655	0.000000	-1.000000	-1.000000	644945.000000	1772919320.489978
-4039.920000	21574.440000	-21680.865000	-14543.010000	0.000000	0.000000	0.000000	0.000000	-24.385247	34.684709	-32.116228	-33.980348	0.000000	-0.000000	-0.000000	-0.000000	4.578000	0.274680	-0.625660	-0.018127	0.889341	0.442687	-1.000000	-1.000000	-1.000000	-1.000000	-1.000000	-1.000000	-1.000000	138.689655	0.000000	-1.000000	-1.000000	644946.000000	1772919320.493945
-4009.770000	21500.145000	-21637.170000	-14495.175000	0.000000	0.000000	0.000000	0.000000	33.778334	36.734205	56.058482	51.141328	0.000000	-0.000000	-0.000000	-0.000000	4.578000	0.274680	-0.625660	-0.018127	0.889341	0.442687	-1.000000	-1.000000	-1.000000	-1.000000	-1.000000	-1.000000	-1.000000	138.689655	0.000000	-1.000000	-1.000000	644947.000000	1772919320.493947
-4052.385000	21527.460000	-21699.990000	-14555.430000	0.000000	0.000000	0.000000	0.000000	73.422042	17.029760	113.804949	108.506390	0.000000	-0.000000	-0.000000	-0.000000	4.578000	0.274680	-0.625660	-0.018127	0.889341	0.442687	-1.000000	-1.000000	-1.000000	-1.000000	-1.000000	-1.000000	-1.000000	138.689655	0.000000	-1.000000	-1.000000	644948.000000	1772919320.497972
-4095.765000	21569.130000	-21765.645000	-14617.665000	0.000000	0.000000	0.000000	0.000000	70.961994	-5.424754	107.486992	104.675622	0.000000	-0.000000	-0.000000	-0.000000	4.578000	0.274680	-0.625660	-0.018127	0.889341	0.442687	-1.000000	-1.000000	-1.000000	-1.000000	-1.000000	-1.000000	-1.000000	138.689655	0.000000	-1.000000	-1.000000	644949.000000	1772919320.497975
-4183.650000	21622.905000	-21899.430000	-14742.765000	0.000000	0.000000	0.000000	0.000000	27.092910	-9.393531	39.798978	40.952585	0.000000	-0.000000	-0.000000	-0.000000	4.578000	0.274680	-0.625660	-0.018127	0.889341	0.442687	-1.000000	-1.000000	-1.000000	-1.000000	-1.000000	-1.000000	-1.000000	138.689655	0.000000	-1.000000	-1.000000	644950.000000	1772919320.502013
-4214.520000	21632.400000	-21949.830000	-14796.090000	0.000000	0.000000	0.000000	0.000000	-33.194367	7.450115	-51.356206	-46.820250	0.000000	-0.000000	-0.000000	-0.000000	4.578000	0.274680	-0.625660	-0.018127	0.889341	0.442687	-1.000000	-1.000000	-1.000000	-1.000000	-1.000000	-1.000000	-1.000000	138.689655	0.000000	-1.000000	-1.000000	644951.000000	1772919320.502016
-4185.720000	21635.550000	-21901.545000	-14753.610000	0.000000	0.000000	0.000000	0.000000	-75.565921	28.334796	-114.799926	-109.373527	0.000000	-0.000000	-0.000000	-0.000000	5.188400	0.335720	-0.900340	-0.018799	0.888425	0.443419	-1.000000	-1.000000	-1.000000	-1.000000	-1.000000	-1.000000	-1.000000	138.689655	0.000000	-1.000000	-1.000000	644952.000000	1772919320.506016
-4155.705000	21665.205000	-21848.445000	-14705.910000	0.000000	0.000000	0.000000	0.000000	-75.807169	35.088623	-114.260271	-111.232649	0.000000	-0.000000	-0.000000	-0.000000	5.188400	0.335720	-0.900340	-0.018799	0.888425	0.443419	-1.000000	-1.000000	-1.000000	-1.000000	-1.000000	-1.000000	-1.000000	138.689655	0.000000	-1.000000	-1.000000	644953.000000	1772919320.506019
-4077.405000	21691.440000	-21738.870000	-14601.960000	0.000000	0.000000	0.000000	0.000000	-34.400822	23.620009	-50.635161	-52.068302	0.000000	-0.000000	-0.000000	-0.000000	5.188400	0.335720	-0.900340	-0.018799	0.888425	0.443419	-1.000000	-1.000000	-1.000000	-1.000000	-1.000000	-1.000000	-1.000000	138.689655	0.000000	-1.000000	-1.000000	644954.000000	1772919320.510097
-4025.295000	21726.495000	-21659.715000	-14521.545000	0.000000	0.000000	0.000000	0.000000	25.467397	3.070110	40.136810	34.821710	0.000000	-0.000000	-0.000000	-0.000000	5.188400	0.335720	-0.900340	-0.018799	0.888425	0.443419	-1.000000	-1.000000	-1.000000	-1.000000	-1.000000	-1.000000	-1.000000	138.689655	0.000000	-1.000000	-1.000000	644955.000000	1772919320.510099
-4062.735000	21750.975000	-21698.190000	-14555.970000	0.000000	0.000000	0.000000	0.000000	71.591976	-14.944541	109.100363	102.870111	0.000000	-0.000000	-0.000000	-0.000000	5.188400	0.335720	-0.900340	-0.018799	0.888425	0.443419	-1.000000	-1.000000	-1.000000	-1.000000	-1.000000	-1.000000	-1.000000	138.689655	0.000000	-1.000000	-1.000000	644956.000000	1772919320.514027
-4104.945000	21772.485000	-21752.640000	-14608.215000	0.000000	0.000000	0.000000	0.000000	78.383619	-24.157532	119.031486	115.469084	0.000000	-0.000000	-0.000000	-0.000000	5.188400	0.335720	-0.900340	-0.018799	0.888425	0.443419	-1.000000	-1.000000	-1.000000	-1.000000	-1.000000	-1.000000	-1.000000	138.689655	0.000000	-1.000000	-1.000000	644957.000000	1772919320.514030
-4166.460000	21789.765000	-21855.645000	-14704.695000	0.000000	0.000000	0.000000	0.000000	42.163840	-24.729159	64.984025	66.124551	0.000000	-0.000000	-0.000000	-0.000000	5.188400	0.335720	-0.900340	-0.018799	0.888425	0.443419	-1.000000	-1.000000	-1.000000	-1.000000	-1.000000	-1.000000	-1.000000	138.689655	0.000000	-1.000000	-1.000000	644958.000000	1772919320.518027
-4226.085000	21772.530000	-21956.535000	-14805.180000	0.000000	0.000000	0.000000	0.000000	-16.000353	-20.650758	-23.193022	-17.873776	0.000000	-0.000000	-0.000000	-0.000000	5.188400	0.335720	-0.900340	-0.018799	0.888425	0.443419	-1.000000	-1.000000	-1.000000	-1.000000	-1.000000	-1.000000	-1.000000	138.689655	0.000000	-1.000000	-1.000000	644959.000000	1772919320.518030
-4198.365000	21726.855000	-21918.105000	-14771.655000	0.000000	0.000000	0.000000	0.000000	-63.732336	-17.280639	-98.220974	-91.424948	0.000000	-0.000000	-0.000000	-0.000000	5.188400	0.335720	-0.900340	-0.018799	0.888425	0.443419	-1.000000	-1.000000	-1.000000	-1.000000	-1.000000	-1.000000	-1.000000	138.689655	0.000000	-1.000000	-1.000000	644960.000000	1772919320.522037
-4157.640000	21665.115000	-21858.705000	-14713.065000	0.000000	0.000000	0.000000	0.000000	-74.832696	-18.427895	-118.958892	-114.175429	0.000000	-0.000000	-0.000000	-0.000000	5.188400	0.335720	-0.900340	-0.018799	0.888425	0.443419	-1.000000	-1.000000	-1.000000	-1.000000	-1.000000	-1.000000	-1.000000	138.689655	0.000000	-1.000000	-1.000000	644961.000000	1772919320.522040
-4109.850000	21706.605000	-21780.720000	-14640.390000	0.000000	0.000000	0.000000	0.000000	-44.021877	-21.252463	-74.128261	-73.678979	0.000000	-0.000000	-0.000000	-0.000000	6.195560	-0.045780	0.091560	-0.020325	0.887510	0.443724	-1.000000	-1.000000	-1.000000	-1.000000	-1.000000	-1.000000	-1.000000	138.689655	0.000000	-1.000000	-1.000000	644962.000000	1772919320.526214
-4048.155000	21788.910000	-21679.155000	-14539.635000	0.000000	0.000000	0.000000	0.000000	9.941963	-14.723747	9.898524	6.048703	0.000000	-0.000000	-0.000000	-0.000000	6.195560	-0.045780	0.091560	-0.020325	0.887510	0.443724	-1.000000	-1.000000	-1.000000	-1.000000	-1.000000	-1.000000	-1.000000	138.689655	0.000000	-1.000000	-1.000000	644963.000000	1772919320.526217
-4035.915000	21737.745000	-21670.965000	-14527.035000	0.000000	0.000000	0.000000	0.000000	57.264618	7.270721	86.958173	81.002864	0.000000	-0.000000	-0.000000	-0.000000	6.195560	-0.045780	0.091560	-0.020325	0.887510	0.443724	-1.000000	-1.000000	-1.000000	-1.000000	-1.000000	-1.000000	-1.000000	138.689655	0.000000	-1.000000	-1.000000	644964.000000	1772919320.530163
-4041.270000	21560.580000	-21696.120000	-14550.210000	0.000000	0.000000	0.000000	0.000000	73.979925	29.303973	116.882226	111.990836	0.000000	-0.000000	-0.000000	-0.000000	6.195560	-0.045780	0.091560	-0.020325	0.887510	0.443724	-1.000000	-1.000000	-1.000000	-1.000000	-1.000000	-1.000000	-1.000000	138.689655	0.000000	-1.000000	-1.000000	644965.000000	1772919320.530166
-4095.900000	21532.320000	-21778.380000	-14627.700000	0.000000	0.000000	0.000000	0.000000	52.705053	27.742594	85.180192	83.762734	0.000000	-0.000000	-0.000000	-0.000000	6.195560	-0.045780	0.091560	-0.020325	0.887510	0.443724	-1.000000	-1.000000	-1.000000	-1.000000	-1.000000	-1.000000	-1.000000	138.689655	0.000000	-1.000000	-1.000000	644966.000000	1772919320.537729
-4193.280000	21570.885000	-21920.220000	-14764.590000	0.000000	0.000000	0.000000	0.000000	3.886693	4.562448	8.536835	11.055254	0.000000	-0.000000	-0.000000	-0.000000	6.195560	-0.045780	0.091560	-0.020325	0.887510	0.443724	-1.000000	-1.000000	-1.000000	-1.000000	-1.000000	-1.000000	-1.000000	138.689655	0.000000	-1.000000	-1.000000	644967.000000	1772919320.537732
-4191.255000	21562.695000	-21917.205000	-14765.670000	0.000000	0.000000	0.000000	0.000000	-49.425572	-13.123824	-74.548786	-69.612572	0.000000	-0.000000	-0.000000	-0.000000	6.195560	-0.045780	0.091560	-0.020325	0.887510	0.443724	-1.000000	-1.000000	-1.000000	-1.000000	-1.000000	-1.000000	-1.000000	138.689655	0.000000	-1.000000	-1.000000	644968.000000	1772919320.538160
-4148.640000	21508.875000	-21855.690000	-14706.765000	0.000000	0.000000	0.000000	0.000000	-78.921780	-8.785054	-119.311250	-114.728997	0.000000	-0.000000	-0.000000	-0.000000	6.195560	-0.045780	0.091560	-0.020325	0.887510	0.443724	-1.000000	-1.000000	-1.000000	-1.000000	-1.000000	-1.000000	-1.000000	138.689655	0.000000	-1.000000	-1.000000	644969.000000	1772919320.538163
-4097.250000	21428.370000	-21784.095000	-14638.275000	0.000000	0.000000	0.000000	0.000000	-66.126626	7.275863	-98.880369	-97.240674	0.000000	-0.000000	-0.000000	-0.000000	6.195560	-0.045780	0.091560	-0.020325	0.887510	0.443724	-1.000000	-1.000000	-1.000000	-1.000000	-1.000000	-1.000000	-1.000000	138.689655	0.000000	-1.000000	-1.000000	644970.000000	1772919320.542158
-4009.590000	21405.240000	-21653.460000	-14513.760000	0.000000	0.000000	0.000000	0.000000	-16.905068	16.568847	-24.029115	-26.272937	0.000000	-0.000000	-0.000000	-0.000000	6.195560	-0.045780	0.091560	-0.020325	0.887510	0.443724	-1.000000	-1.000000	-1.000000	-1.000000	-1.000000	-1.000000	-1.000000	138.689655	0.000000	-1.000000	-1.000000	644971.000000	1772919320.542161
-3982.950000	21352.320000	-21618.630000	-14474.745000	0.000000	0.000000	0.000000	0.000000	41.843046	13.227972	63.908978	58.923370	0.000000	-0.000000	-0.000000	-0.000000	7.095900	-0.061040	-0.396760	-0.020264	0.887022	0.444091	-1.000000	-1.000000	-1.000000	-1.000000	-1.000000	-1.000000	-1.000000	138.689655	0.000000	-1.000000	-1.000000	644972.000000	1772919320.552771
-4017.510000	21321.045000	-21668.715000	-14522.265000	0.000000	0.000000	0.000000	0.000000	77.715858	3.869785	116.696984	111.642127	0.000000	-0.000000	-0.000000	-0.000000	7.095900	-0.061040	-0.396760	-0.020264	0.887022	0.444091	-1.000000	-1.000000	-1.000000	-1.000000	-1.000000	-1.000000	-1.000000	138.689655	0.000000	-1.000000	-1.000000	644973.000000	1772919320.552774
-4059.450000	21307.545000	-21732.120000	-14583.240000	0.000000	0.000000	0.000000	0.000000	70.342626	-2.839447	104.763273	102.416259	0.000000	-0.000000	-0.000000	-0.000000	7.095900	-0.061040	-0.396760	-0.020264	0.887022	0.444091	-1.000000	-1.000000	-1.000000	-1.000000	-1.000000	-1.000000	-1.000000	138.689655	0.000000	-1.000000	-1.000000	644974.000000	1772919320.552779
-4163.760000	21398.760000	-21881.655000	-14726.565000	0.000000	0.000000	0.000000	0.000000	23.460217	-0.262782	34.512792	36.131978	0.000000	-0.000000	-0.000000	-0.000000	7.095900	-0.061040	-0.396760	-0.020264	0.887022	0.444091	-1.000000	-1.000000	-1.000000	-1.000000	-1.000000	-1.000000	-1.000000	138.689655	0.000000	-1.000000	-1.000000	644975.000000	1772919320.552781
-4213.980000	21515.085000	-21945.645000	-14794.515000	0.000000	0.000000	0.000000	0.000000	-38.099101	15.644312	-56.557121	-51.844819	0.000000	-0.000000	-0.000000	-0.000000	7.095900	-0.061040	-0.396760	-0.020264	0.887022	0.444091	-1.000000	-1.000000	-1.000000	-1.000000	-1.000000	-1.000000	-1.000000	138.689655	0.000000	-1.000000	-1.000000	644976.000000	1772919320.560231
-4194.990000	21605.265000	-21903.615000	-14756.625000	0.000000	0.000000	0.000000	0.000000	-81.399151	40.805454	-119.354547	-114.120039	0.000000	-0.000000	-0.000000	-0.000000	7.095900	-0.061040	-0.396760	-0.020264	0.887022	0.444091	-1.000000	-1.000000	-1.000000	-1.000000	-1.000000	-1.000000	-1.000000	138.689655	0.000000	-1.000000	-1.000000	644977.000000	1772919320.560234
-4165.785000	21676.635000	-21857.490000	-14712.615000	0.000000	0.000000	0.000000	0.000000	-81.743011	59.642904	-117.958183	-115.105486	0.000000	-0.000000	-0.000000	-0.000000	7.095900	-0.061040	-0.396760	-0.020264	0.887022	0.444091	-1.000000	-1.000000	-1.000000	-1.000000	-1.000000	-1.000000	-1.000000	138.689655	0.000000	-1.000000	-1.000000	644978.000000	1772919320.560242
-4077.540000	21654.810000	-21728.430000	-14589.495000	0.000000	0.000000	0.000000	0.000000	-37.628529	53.710666	-51.965628	-52.974861	0.000000	-0.000000	-0.000000	-0.000000	7.095900	-0.061040	-0.396760	-0.020264	0.887022	0.444091	-1.000000	-1.000000	-1.000000	-1.000000	-1.000000	-1.000000	-1.000000	138.689655	0.000000	-1.000000	-1.000000	644979.000000	1772919320.560245
-4026.600000	21655.215000	-21653.325000	-14512.905000	0.000000	0.000000	0.000000	0.000000	28.279426	15.932355	43.527357	39.356149	0.000000	-0.000000	-0.000000	-0.000000	7.095900	-0.061040	-0.396760	-0.020264	0.887022	0.444091	-1.000000	-1.000000	-1.000000	-1.000000	-1.000000	-1.000000	-1.000000	138.689655	0.000000	-1.000000	-1.000000	644980.000000	1772919320.562299
-4040.820000	21617.775000	-21685.905000	-14542.470000	0.000000	0.000000	0.000000	0.000000	81.522978	-41.215552	117.877817	112.936806	0.000000	-0.000000	-0.000000	-0.000000	7.095900	-0.061040	-0.396760	-0.020264	0.887022	0.444091	-1.000000	-1.000000	-1.000000	-1.000000	-1.000000	-1.000000	-1.000000	138.689655	0.000000	-1.000000	-1.000000	644981.000000	1772919320.562301
-4067.505000	21562.830000	-21731.220000	-14584.815000	0.000000	0.000000	0.000000	0.000000	93.497636	-92.406286	130.709081	127.792278	0.000000	-0.000000	-0.000000	-0.000000	7.034860	0.656180	-0.366240	-0.018372	0.888425	0.443969	-1.000000	-1.000000	-1.000000	-1.000000	-1.000000	-1.000000	-1.000000	138.689655	0.000000	-1.000000	-1.000000	644982.000000	1772919320.566131
-4145.445000	21557.430000	-21846.510000	-14692.995000	0.000000	0.000000	0.000000	0.000000	57.953506	-115.063514	75.268518	76.048167	0.000000	-0.000000	-0.000000	-0.000000	7.034860	0.656180	-0.366240	-0.018372	0.888425	0.443969	-1.000000	-1.000000	-1.000000	-1.000000	-1.000000	-1.000000	-1.000000	138.689655	0.000000	-1.000000	-1.000000	644983.000000	1772919320.566134
-4205.520000	21536.505000	-21940.290000	-14786.190000	0.000000	0.000000	0.000000	0.000000	-6.027343	-99.327125	-18.337987	-14.124425	0.000000	-0.000000	-0.000000	-0.000000	7.034860	0.656180	-0.366240	-0.018372	0.888425	0.443969	-1.000000	-1.000000	-1.000000	-1.000000	-1.000000	-1.000000	-1.000000	138.689655	0.000000	-1.000000	-1.000000	644984.000000	1772919320.570342
-4170.690000	21466.170000	-21893.355000	-14742.360000	0.000000	0.000000	0.000000	0.000000	-64.614624	-52.825365	-100.320125	-94.770517	0.000000	-0.000000	-0.000000	-0.000000	7.034860	0.656180	-0.366240	-0.018372	0.888425	0.443969	-1.000000	-1.000000	-1.000000	-1.000000	-1.000000	-1.000000	-1.000000	138.689655	0.000000	-1.000000	-1.000000	644985.000000	1772919320.570345
-4132.935000	21433.815000	-21838.320000	-14688.945000	0.000000	0.000000	0.000000	0.000000	-86.087550	2.437700	-126.025714	-122.088835	0.000000	-0.000000	-0.000000	-0.000000	7.034860	0.656180	-0.366240	-0.018372	0.888425	0.443969	-1.000000	-1.000000	-1.000000	-1.000000	-1.000000	-1.000000	-1.000000	138.689655	0.000000	-1.000000	-1.000000	644986.000000	1772919320.574257
-4073.895000	21436.110000	-21746.790000	-14602.995000	0.000000	0.000000	0.000000	0.000000	-60.095390	45.826862	-82.486078	-82.311744	0.000000	-0.000000	-0.000000	-0.000000	7.034860	0.656180	-0.366240	-0.018372	0.888425	0.443969	-1.000000	-1.000000	-1.000000	-1.000000	-1.000000	-1.000000	-1.000000	138.689655	0.000000	-1.000000	-1.000000	644987.000000	1772919320.574259
-4000.185000	21440.610000	-21631.995000	-14490.450000	0.000000	0.000000	0.000000	0.000000	-3.865739	69.761497	3.681131	-0.107474	0.000000	-0.000000	-0.000000	-0.000000	7.034860	0.656180	-0.366240	-0.018372	0.888425	0.443969	-1.000000	-1.000000	-1.000000	-1.000000	-1.000000	-1.000000	-1.000000	138.689655	0.000000	-1.000000	-1.000000	644988.000000	1772919320.578250
-4003.155000	21392.505000	-21643.245000	-14496.840000	0.000000	0.000000	0.000000	0.000000	50.517059	74.815095	84.610935	78.697965	0.000000	-0.000000	-0.000000	-0.000000	7.034860	0.656180	-0.366240	-0.018372	0.888425	0.443969	-1.000000	-1.000000	-1.000000	-1.000000	-1.000000	-1.000000	-1.000000	138.689655	0.000000	-1.000000	-1.000000	644989.000000	1772919320.578253
-4028.580000	21315.780000	-21687.795000	-14539.905000	0.000000	0.000000	0.000000	0.000000	73.807094	61.224171	116.621851	111.611805	0.000000	-0.000000	-0.000000	-0.000000	7.034860	0.656180	-0.366240	-0.018372	0.888425	0.443969	-1.000000	-1.000000	-1.000000	-1.000000	-1.000000	-1.000000	-1.000000	138.689655	0.000000	-1.000000	-1.000000	644990.000000	1772919320.582208
-4092.975000	21295.485000	-21778.245000	-14625.585000	0.000000	0.000000	0.000000	0.000000	54.336656	31.653483	82.941366	81.371894	0.000000	-0.000000	-0.000000	-0.000000	7.034860	0.656180	-0.366240	-0.018372	0.888425	0.443969	-1.000000	-1.000000	-1.000000	-1.000000	-1.000000	-1.000000	-1.000000	138.689655	0.000000	-1.000000	-1.000000	644991.000000	1772919320.582211
-4176.720000	21267.810000	-21904.740000	-14747.805000	0.000000	0.000000	0.000000	0.000000	3.621337	-2.230471	2.848851	5.377442	0.000000	-0.000000	-0.000000	-0.000000	7.126420	0.167860	-0.717220	-0.018311	0.889158	0.443114	-1.000000	-1.000000	-1.000000	-1.000000	-1.000000	-1.000000	-1.000000	138.689655	0.000000	-1.000000	-1.000000	644992.000000	1772919320.586194
-4155.030000	21179.160000	-21882.195000	-14730.345000	0.000000	0.000000	0.000000	0.000000	-50.124394	-26.434591	-79.764249	-74.596304	0.000000	-0.000000	-0.000000	-0.000000	7.126420	0.167860	-0.717220	-0.018311	0.889158	0.443114	-1.000000	-1.000000	-1.000000	-1.000000	-1.000000	-1.000000	-1.000000	138.689655	0.000000	-1.000000	-1.000000	644993.000000	1772919320.586197
-4130.595000	21202.965000	-21840.255000	-14690.115000	0.000000	0.000000	0.000000	0.000000	-75.825593	-34.846623	-118.461390	-113.512982	0.000000	-0.000000	-0.000000	-0.000000	7.126420	0.167860	-0.717220	-0.018311	0.889158	0.443114	-1.000000	-1.000000	-1.000000	-1.000000	-1.000000	-1.000000	-1.000000	138.689655	0.000000	-1.000000	-1.000000	644994.000000	1772919320.590305
-4095.270000	21249.585000	-21781.620000	-14635.890000	0.000000	0.000000	0.000000	0.000000	-58.568529	-26.121822	-91.345729	-89.309647	0.000000	-0.000000	-0.000000	-0.000000	7.126420	0.167860	-0.717220	-0.018311	0.889158	0.443114	-1.000000	-1.000000	-1.000000	-1.000000	-1.000000	-1.000000	-1.000000	138.689655	0.000000	-1.000000	-1.000000	644995.000000	1772919320.590308
-4019.220000	21323.295000	-21660.930000	-14519.745000	0.000000	0.000000	0.000000	0.000000	-9.483128	-1.229247	-15.176956	-17.047402	0.000000	-0.000000	-0.000000	-0.000000	7.126420	0.167860	-0.717220	-0.018311	0.889158	0.443114	-1.000000	-1.000000	-1.000000	-1.000000	-1.000000	-1.000000	-1.000000	138.689655	0.000000	-1.000000	-1.000000	644996.000000	1772919320.594308
-4032.090000	21489.255000	-21665.475000	-14519.295000	0.000000	0.000000	0.000000	0.000000	43.548699	32.664252	67.668185	63.052537	0.000000	-0.000000	-0.000000	-0.000000	7.126420	0.167860	-0.717220	-0.018311	0.889158	0.443114	-1.000000	-1.000000	-1.000000	-1.000000	-1.000000	-1.000000	-1.000000	138.689655	0.000000	-1.000000	-1.000000	644997.000000	1772919320.594310
-4062.690000	21521.835000	-21712.455000	-14565.060000	0.000000	0.000000	0.000000	0.000000	71.569746	61.912583	112.437949	107.776108	0.000000	-0.000000	-0.000000	-0.000000	7.126420	0.167860	-0.717220	-0.018311	0.889158	0.443114	-1.000000	-1.000000	-1.000000	-1.000000	-1.000000	-1.000000	-1.000000	138.689655	0.000000	-1.000000	-1.000000	644998.000000	1772919320.598352
-4101.480000	21522.420000	-21771.225000	-14624.055000	0.000000	0.000000	0.000000	0.000000	59.941678	67.937096	95.423405	93.315806	0.000000	-0.000000	-0.000000	-0.000000	7.126420	0.167860	-0.717220	-0.018311	0.889158	0.443114	-1.000000	-1.000000	-1.000000	-1.000000	-1.000000	-1.000000	-1.000000	138.689655	0.000000	-1.000000	-1.000000	644999.000000	1772919320.598354
-4175.325000	21461.715000	-21895.920000	-14741.505000	0.000000	0.000000	0.000000	0.000000	16.991807	37.061272	27.954743	29.344645	0.000000	-0.000000	-0.000000	-0.000000	7.126420	0.167860	-0.717220	-0.018311	0.889158	0.443114	-1.000000	-1.000000	-1.000000	-1.000000	-1.000000	-1.000000	-1.000000	138.689655	0.000000	-1.000000	-1.000000	645000.000000	1772919320.602377
-4187.610000	21423.105000	-21926.250000	-14773.680000	0.000000	0.000000	0.000000	0.000000	-32.740373	-23.829253	-52.502102	-48.472041	0.000000	-0.000000	-0.000000	-0.000000	7.126420	0.167860	-0.717220	-0.018311	0.889158	0.443114	-1.000000	-1.000000	-1.000000	-1.000000	-1.000000	-1.000000	-1.000000	138.689655	0.000000	-1.000000	-1.000000	645001.000000	1772919320.602381
-4145.040000	21359.250000	-21866.940000	-14716.350000	0.000000	0.000000	0.000000	0.000000	-61.961007	-87.033149	-102.312918	-97.673946	0.000000	-0.000000	-0.000000	-0.000000	6.409200	0.427280	-0.701960	-0.019043	0.889768	0.442077	-1.000000	-1.000000	-1.000000	-1.000000	-1.000000	-1.000000	-1.000000	138.689655	0.000000	-1.000000	-1.000000	645002.000000	1772919320.606394
-4124.835000	21365.010000	-21813.030000	-14664.825000	0.000000	0.000000	0.000000	0.000000	-54.744920	-120.933330	-93.588183	-90.669467	0.000000	-0.000000	-0.000000	-0.000000	6.409200	0.427280	-0.701960	-0.019043	0.889768	0.442077	-1.000000	-1.000000	-1.000000	-1.000000	-1.000000	-1.000000	-1.000000	138.689655	0.000000	-1.000000	-1.000000	645003.000000	1772919320.606397
-4033.845000	21320.955000	-21675.690000	-14534.865000	0.000000	0.000000	0.000000	0.000000	-16.334843	-108.731819	-31.483884	-31.783807	0.000000	-0.000000	-0.000000	-0.000000	6.409200	0.427280	-0.701960	-0.019043	0.889768	0.442077	-1.000000	-1.000000	-1.000000	-1.000000	-1.000000	-1.000000	-1.000000	138.689655	0.000000	-1.000000	-1.000000	645004.000000	1772919320.610383
-3996.090000	21326.355000	-21620.340000	-14477.265000	0.000000	0.000000	0.000000	0.000000	31.743048	-57.418698	49.608775	46.174224	0.000000	-0.000000	-0.000000	-0.000000	6.409200	0.427280	-0.701960	-0.019043	0.889768	0.442077	-1.000000	-1.000000	-1.000000	-1.000000	-1.000000	-1.000000	-1.000000	138.689655	0.000000	-1.000000	-1.000000	645005.000000	1772919320.610386
-4038.480000	21391.020000	-21680.595000	-14534.595000	0.000000	0.000000	0.000000	0.000000	63.338622	10.138914	104.637650	99.863108	0.000000	-0.000000	-0.000000	-0.000000	6.409200	0.427280	-0.701960	-0.019043	0.889768	0.442077	-1.000000	-1.000000	-1.000000	-1.000000	-1.000000	-1.000000	-1.000000	138.689655	0.000000	-1.000000	-1.000000	645006.000000	1772919320.614372
-4086.855000	21471.255000	-21748.905000	-14600.520000	0.000000	0.000000	0.000000	0.000000	59.121484	71.193567	100.495091	97.055764	0.000000	-0.000000	-0.000000	-0.000000	6.409200	0.427280	-0.701960	-0.019043	0.889768	0.442077	-1.000000	-1.000000	-1.000000	-1.000000	-1.000000	-1.000000	-1.000000	138.689655	0.000000	-1.000000	-1.000000	645007.000000	1772919320.614374
-4173.930000	21556.080000	-21875.445000	-14720.535000	0.000000	0.000000	0.000000	0.000000	19.087294	109.830737	37.370372	37.212411	0.000000	-0.000000	-0.000000	-0.000000	6.409200	0.427280	-0.701960	-0.019043	0.889768	0.442077	-1.000000	-1.000000	-1.000000	-1.000000	-1.000000	-1.000000	-1.000000	138.689655	0.000000	-1.000000	-1.000000	645008.000000	1772919320.618063
-4221.090000	21570.345000	-21950.595000	-14797.305000	0.000000	0.000000	0.000000	0.000000	-35.475354	115.691296	-50.192360	-46.974161	0.000000	-0.000000	-0.000000	-0.000000	6.409200	0.427280	-0.701960	-0.019043	0.889768	0.442077	-1.000000	-1.000000	-1.000000	-1.000000	-1.000000	-1.000000	-1.000000	138.689655	0.000000	-1.000000	-1.000000	645009.000000	1772919320.618065
-4174.155000	21479.895000	-21890.070000	-14738.490000	0.000000	0.000000	0.000000	0.000000	-73.417747	83.407894	-113.058881	-108.288314	0.000000	-0.000000	-0.000000	-0.000000	6.409200	0.427280	-0.701960	-0.019043	0.889768	0.442077	-1.000000	-1.000000	-1.000000	-1.000000	-1.000000	-1.000000	-1.000000	138.689655	0.000000	-1.000000	-1.000000	645010.000000	1772919320.622463
-4144.275000	21490.245000	-21841.020000	-14691.510000	0.000000	0.000000	0.000000	0.000000	-71.057333	18.998360	-114.070853	-110.461207	0.000000	-0.000000	-0.000000	-0.000000	6.409200	0.427280	-0.701960	-0.019043	0.889768	0.442077	-1.000000	-1.000000	-1.000000	-1.000000	-1.000000	-1.000000	-1.000000	138.689655	0.000000	-1.000000	-1.000000	645011.000000	1772919320.622465
-4091.895000	21567.645000	-21754.080000	-14611.275000	0.000000	0.000000	0.000000	0.000000	-28.686045	-50.680554	-51.973606	-51.531534	0.000000	-0.000000	-0.000000	-0.000000	7.034860	0.518840	-0.213640	-0.018249	0.889951	0.441649	-1.000000	-1.000000	-1.000000	-1.000000	-1.000000	-1.000000	-1.000000	138.689655	0.000000	-1.000000	-1.000000	645012.000000	1772919320.626382
-4033.395000	21614.310000	-21658.590000	-14516.370000	0.000000	0.000000	0.000000	0.000000	29.541312	-89.389507	38.078076	35.057314	0.000000	-0.000000	-0.000000	-0.000000	7.034860	0.518840	-0.213640	-0.018249	0.889951	0.441649	-1.000000	-1.000000	-1.000000	-1.000000	-1.000000	-1.000000	-1.000000	138.689655	0.000000	-1.000000	-1.000000	645013.000000	1772919320.626384
-4079.295000	21749.805000	-21712.275000	-14567.490000	0.000000	0.000000	0.000000	0.000000	71.961836	-79.607696	107.549880	102.625357	0.000000	-0.000000	-0.000000	-0.000000	7.034860	0.518840	-0.213640	-0.018249	0.889951	0.441649	-1.000000	-1.000000	-1.000000	-1.000000	-1.000000	-1.000000	-1.000000	138.689655	0.000000	-1.000000	-1.000000	645014.000000	1772919320.630321
-4115.025000	21844.980000	-21769.155000	-14621.940000	0.000000	0.000000	0.000000	0.000000	75.751748	-32.440626	119.208965	115.065072	0.000000	-0.000000	-0.000000	-0.000000	7.034860	0.518840	-0.213640	-0.018249	0.889951	0.441649	-1.000000	-1.000000	-1.000000	-1.000000	-1.000000	-1.000000	-1.000000	138.689655	0.000000	-1.000000	-1.000000	645015.000000	1772919320.630324
-4168.215000	21897.945000	-21851.595000	-14699.655000	0.000000	0.000000	0.000000	0.000000	39.433621	22.676012	67.347745	66.268943	0.000000	-0.000000	-0.000000	-0.000000	7.034860	0.518840	-0.213640	-0.018249	0.889951	0.441649	-1.000000	-1.000000	-1.000000	-1.000000	-1.000000	-1.000000	-1.000000	138.689655	0.000000	-1.000000	-1.000000	645016.000000	1772919320.636287
-4242.465000	21865.095000	-21971.385000	-14816.520000	0.000000	0.000000	0.000000	0.000000	-16.203089	53.231701	-18.645204	-16.046983	0.000000	-0.000000	-0.000000	-0.000000	7.034860	0.518840	-0.213640	-0.018249	0.889951	0.441649	-1.000000	-1.000000	-1.000000	-1.000000	-1.000000	-1.000000	-1.000000	138.689655	0.000000	-1.000000	-1.000000	645017.000000	1772919320.636290
-4210.020000	21762.090000	-21933.495000	-14781.510000	0.000000	0.000000	0.000000	0.000000	-61.391881	40.156118	-92.791837	-87.863285	0.000000	-0.000000	-0.000000	-0.000000	7.034860	0.518840	-0.213640	-0.018249	0.889951	0.441649	-1.000000	-1.000000	-1.000000	-1.000000	-1.000000	-1.000000	-1.000000	138.689655	0.000000	-1.000000	-1.000000	645018.000000	1772919320.638434
-4170.240000	21696.300000	-21869.820000	-14718.960000	0.000000	0.000000	0.000000	0.000000	-71.990579	-10.332805	-115.197518	-110.553603	0.000000	-0.000000	-0.000000	-0.000000	7.034860	0.518840	-0.213640	-0.018249	0.889951	0.441649	-1.000000	-1.000000	-1.000000	-1.000000	-1.000000	-1.000000	-1.000000	138.689655	0.000000	-1.000000	-1.000000	645019.000000	1772919320.638436
-4109.805000	21619.485000	-21789.270000	-14639.490000	0.000000	0.000000	0.000000	0.000000	-42.173237	-68.271756	-73.357074	-71.371848	0.000000	-0.000000	-0.000000	-0.000000	7.034860	0.518840	-0.213640	-0.018249	0.889951	0.441649	-1.000000	-1.000000	-1.000000	-1.000000	-1.000000	-1.000000	-1.000000	138.689655	0.000000	-1.000000	-1.000000	645020.000000	1772919320.642429
-4025.970000	21607.875000	-21667.545000	-14521.590000	0.000000	0.000000	0.000000	0.000000	11.301965	-98.102893	8.807386	7.331018	0.000000	-0.000000	-0.000000	-0.000000	7.034860	0.518840	-0.213640	-0.018249	0.889951	0.441649	-1.000000	-1.000000	-1.000000	-1.000000	-1.000000	-1.000000	-1.000000	138.689655	0.000000	-1.000000	-1.000000	645021.000000	1772919320.642432
-4038.795000	21692.520000	-21671.505000	-14524.740000	0.000000	0.000000	0.000000	0.000000	59.248910	-79.063106	86.125308	82.123049	0.000000	-0.000000	-0.000000	-0.000000	7.645260	1.587040	0.518840	-0.016663	0.889524	0.441649	-1.000000	-1.000000	-1.000000	-1.000000	-1.000000	-1.000000	-1.000000	138.689655	0.000000	-1.000000	-1.000000	645022.000000	1772919320.647938
-4060.215000	21655.935000	-21709.620000	-14563.170000	0.000000	0.000000	0.000000	0.000000	75.091821	-16.692130	116.583583	112.041375	0.000000	-0.000000	-0.000000	-0.000000	7.645260	1.587040	0.518840	-0.016663	0.889524	0.441649	-1.000000	-1.000000	-1.000000	-1.000000	-1.000000	-1.000000	-1.000000	138.689655	0.000000	-1.000000	-1.000000	645023.000000	1772919320.647941
-4093.515000	21573.000000	-21769.065000	-14616.945000	0.000000	0.000000	0.000000	0.000000	49.761111	55.124831	83.668619	80.691789	0.000000	-0.000000	-0.000000	-0.000000	7.645260	1.587040	0.518840	-0.016663	0.889524	0.441649	-1.000000	-1.000000	-1.000000	-1.000000	-1.000000	-1.000000	-1.000000	138.689655	0.000000	-1.000000	-1.000000	645024.000000	1772919320.661235
-4185.855000	21559.320000	-21908.475000	-14750.370000	0.000000	0.000000	0.000000	0.000000	-2.814984	95.571923	5.489267	5.497210	0.000000	-0.000000	-0.000000	-0.000000	7.645260	1.587040	0.518840	-0.016663	0.889524	0.441649	-1.000000	-1.000000	-1.000000	-1.000000	-1.000000	-1.000000	-1.000000	138.689655	0.000000	-1.000000	-1.000000	645025.000000	1772919320.661238
-4175.775000	21416.940000	-21906.855000	-14750.955000	0.000000	0.000000	0.000000	0.000000	-55.436876	87.710129	-77.260942	-74.194676	0.000000	-0.000000	-0.000000	-0.000000	7.645260	1.587040	0.518840	-0.016663	0.889524	0.441649	-1.000000	-1.000000	-1.000000	-1.000000	-1.000000	-1.000000	-1.000000	138.689655	0.000000	-1.000000	-1.000000	645026.000000	1772919320.661243
-4147.020000	21420.045000	-21856.545000	-14703.120000	0.000000	0.000000	0.000000	0.000000	-80.593485	44.346945	-120.674399	-116.198078	0.000000	-0.000000	-0.000000	-0.000000	7.645260	1.587040	0.518840	-0.016663	0.889524	0.441649	-1.000000	-1.000000	-1.000000	-1.000000	-1.000000	-1.000000	-1.000000	138.689655	0.000000	-1.000000	-1.000000	645027.000000	1772919320.661245
-4125.510000	21491.505000	-21814.065000	-14664.735000	0.000000	0.000000	0.000000	0.000000	-64.546581	-2.893424	-100.492750	-97.237161	0.000000	-0.000000	-0.000000	-0.000000	7.645260	1.587040	0.518840	-0.016663	0.889524	0.441649	-1.000000	-1.000000	-1.000000	-1.000000	-1.000000	-1.000000	-1.000000	138.689655	0.000000	-1.000000	-1.000000	645028.000000	1772919320.661248
-4057.065000	21549.645000	-21700.890000	-14558.670000	0.000000	0.000000	0.000000	0.000000	-16.940624	-22.450506	-28.733711	-28.704342	0.000000	-0.000000	-0.000000	-0.000000	7.645260	1.587040	0.518840	-0.016663	0.889524	0.441649	-1.000000	-1.000000	-1.000000	-1.000000	-1.000000	-1.000000	-1.000000	138.689655	0.000000	-1.000000	-1.000000	645029.000000	1772919320.661250
-4021.605000	21590.730000	-21648.420000	-14502.870000	0.000000	0.000000	0.000000	0.000000	36.965585	-7.445698	55.801329	52.456451	0.000000	-0.000000	-0.000000	-0.000000	7.645260	1.587040	0.518840	-0.016663	0.889524	0.441649	-1.000000	-1.000000	-1.000000	-1.000000	-1.000000	-1.000000	-1.000000	138.689655	0.000000	-1.000000	-1.000000	645030.000000	1772919320.664585
-4035.150000	21514.680000	-21677.490000	-14529.915000	0.000000	0.000000	0.000000	0.000000	71.079002	19.335408	110.193189	105.431212	0.000000	-0.000000	-0.000000	-0.000000	7.645260	1.587040	0.518840	-0.016663	0.889524	0.441649	-1.000000	-1.000000	-1.000000	-1.000000	-1.000000	-1.000000	-1.000000	138.689655	0.000000	-1.000000	-1.000000	645031.000000	1772919320.664588
-4060.035000	21404.070000	-21724.830000	-14573.160000	0.000000	0.000000	0.000000	0.000000	69.476948	25.829101	107.161203	103.923130	0.000000	-0.000000	-0.000000	-0.000000	6.607580	0.961380	-0.976640	-0.016907	0.890928	0.441344	-1.000000	-1.000000	-1.000000	-1.000000	-1.000000	-1.000000	-1.000000	138.689655	0.000000	-1.000000	-1.000000	645032.000000	1772919320.666455
-4146.255000	21396.555000	-21852.630000	-14694.435000	0.000000	0.000000	0.000000	0.000000	33.525072	-0.546907	48.827223	49.171141	0.000000	-0.000000	-0.000000	-0.000000	6.607580	0.961380	-0.976640	-0.016907	0.890928	0.441344	-1.000000	-1.000000	-1.000000	-1.000000	-1.000000	-1.000000	-1.000000	138.689655	0.000000	-1.000000	-1.000000	645033.000000	1772919320.666458
-4193.640000	21358.170000	-21928.095000	-14771.025000	0.000000	0.000000	0.000000	0.000000	-19.175849	-40.540953	-34.989183	-31.066493	0.000000	-0.000000	-0.000000	-0.000000	6.607580	0.961380	-0.976640	-0.016907	0.890928	0.441344	-1.000000	-1.000000	-1.000000	-1.000000	-1.000000	-1.000000	-1.000000	138.689655	0.000000	-1.000000	-1.000000	645034.000000	1772919320.670564
-4168.170000	21389.985000	-21887.010000	-14733.540000	0.000000	0.000000	0.000000	0.000000	-61.957505	-62.675303	-100.794839	-95.414089	0.000000	-0.000000	-0.000000	-0.000000	6.607580	0.961380	-0.976640	-0.016907	0.890928	0.441344	-1.000000	-1.000000	-1.000000	-1.000000	-1.000000	-1.000000	-1.000000	138.689655	0.000000	-1.000000	-1.000000	645035.000000	1772919320.670566
-4145.805000	21492.405000	-21843.045000	-14692.500000	0.000000	0.000000	0.000000	0.000000	-71.186516	-48.961519	-112.012428	-108.267764	0.000000	-0.000000	-0.000000	-0.000000	6.607580	0.961380	-0.976640	-0.016907	0.890928	0.441344	-1.000000	-1.000000	-1.000000	-1.000000	-1.000000	-1.000000	-1.000000	138.689655	0.000000	-1.000000	-1.000000	645036.000000	1772919320.674551
-4077.810000	21558.420000	-21737.250000	-14593.140000	0.000000	0.000000	0.000000	0.000000	-41.479544	-3.654512	-61.836945	-61.921584	0.000000	-0.000000	-0.000000	-0.000000	6.607580	0.961380	-0.976640	-0.016907	0.890928	0.441344	-1.000000	-1.000000	-1.000000	-1.000000	-1.000000	-1.000000	-1.000000	138.689655	0.000000	-1.000000	-1.000000	645037.000000	1772919320.674554
-4008.015000	21558.735000	-21635.640000	-14491.440000	0.000000	0.000000	0.000000	0.000000	10.902670	48.215348	22.287589	18.325194	0.000000	-0.000000	-0.000000	-0.000000	6.607580	0.961380	-0.976640	-0.016907	0.890928	0.441344	-1.000000	-1.000000	-1.000000	-1.000000	-1.000000	-1.000000	-1.000000	138.689655	0.000000	-1.000000	-1.000000	645038.000000	1772919320.678764
-4026.015000	21522.960000	-21667.455000	-14519.655000	0.000000	0.000000	0.000000	0.000000	58.096785	73.847462	95.238726	89.523487	0.000000	-0.000000	-0.000000	-0.000000	6.607580	0.961380	-0.976640	-0.016907	0.890928	0.441344	-1.000000	-1.000000	-1.000000	-1.000000	-1.000000	-1.000000	-1.000000	138.689655	0.000000	-1.000000	-1.000000	645039.000000	1772919320.678766
-4072.680000	21544.290000	-21729.915000	-14579.595000	0.000000	0.000000	0.000000	0.000000	73.732234	56.995995	116.453816	112.146716	0.000000	-0.000000	-0.000000	-0.000000	6.607580	0.961380	-0.976640	-0.016907	0.890928	0.441344	-1.000000	-1.000000	-1.000000	-1.000000	-1.000000	-1.000000	-1.000000	138.689655	0.000000	-1.000000	-1.000000	645040.000000	1772919320.682534
-4142.475000	21554.595000	-21831.165000	-14675.670000	0.000000	0.000000	0.000000	0.000000	47.671299	11.128901	72.932504	72.377978	0.000000	-0.000000	-0.000000	-0.000000	6.607580	0.961380	-0.976640	-0.016907	0.890928	0.441344	-1.000000	-1.000000	-1.000000	-1.000000	-1.000000	-1.000000	-1.000000	138.689655	0.000000	-1.000000	-1.000000	645041.000000	1772919320.682537
-4209.480000	21530.475000	-21942.090000	-14784.480000	0.000000	0.000000	0.000000	0.000000	-6.103509	-34.887525	-11.518531	-8.068712	0.000000	-0.000000	-0.000000	-0.000000	5.249440	0.564620	-0.488320	-0.018188	0.893064	0.440306	-1.000000	-1.000000	-1.000000	-1.000000	-1.000000	-1.000000	-1.000000	138.689655	0.000000	-1.000000	-1.000000	645042.000000	1772919320.686684
-4174.065000	21475.305000	-21901.140000	-14745.780000	0.000000	0.000000	0.000000	0.000000	-56.776029	-61.192536	-89.955096	-84.353650	0.000000	-0.000000	-0.000000	-0.000000	5.249440	0.564620	-0.488320	-0.018188	0.893064	0.440306	-1.000000	-1.000000	-1.000000	-1.000000	-1.000000	-1.000000	-1.000000	138.689655	0.000000	-1.000000	-1.000000	645043.000000	1772919320.686686
-4136.850000	21444.975000	-21845.745000	-14690.655000	0.000000	0.000000	0.000000	0.000000	-74.069268	-64.561994	-117.392177	-112.553771	0.000000	-0.000000	-0.000000	-0.000000	5.249440	0.564620	-0.488320	-0.018188	0.893064	0.440306	-1.000000	-1.000000	-1.000000	-1.000000	-1.000000	-1.000000	-1.000000	138.689655	0.000000	-1.000000	-1.000000	645044.000000	1772919320.690650
-4094.415000	21464.325000	-21775.725000	-14622.345000	0.000000	0.000000	0.000000	0.000000	-48.038387	-49.260131	-78.221310	-76.475229	0.000000	-0.000000	-0.000000	-0.000000	5.249440	0.564620	-0.488320	-0.018188	0.893064	0.440306	-1.000000	-1.000000	-1.000000	-1.000000	-1.000000	-1.000000	-1.000000	138.689655	0.000000	-1.000000	-1.000000	645045.000000	1772919320.690653
-4001.940000	21458.025000	-21638.745000	-14489.055000	0.000000	0.000000	0.000000	0.000000	4.882185	-20.321560	3.974986	2.035629	0.000000	-0.000000	-0.000000	-0.000000	5.249440	0.564620	-0.488320	-0.018188	0.893064	0.440306	-1.000000	-1.000000	-1.000000	-1.000000	-1.000000	-1.000000	-1.000000	138.689655	0.000000	-1.000000	-1.000000	645046.000000	1772919320.694652
-3998.880000	21448.710000	-21633.570000	-14484.015000	0.000000	0.000000	0.000000	0.000000	55.199953	13.531252	84.128570	79.608431	0.000000	-0.000000	-0.000000	-0.000000	5.249440	0.564620	-0.488320	-0.018188	0.893064	0.440306	-1.000000	-1.000000	-1.000000	-1.000000	-1.000000	-1.000000	-1.000000	138.689655	0.000000	-1.000000	-1.000000	645047.000000	1772919320.694654
-4024.170000	21389.040000	-21675.645000	-14524.065000	0.000000	0.000000	0.000000	0.000000	76.078009	38.775724	119.454308	114.470428	0.000000	-0.000000	-0.000000	-0.000000	5.249440	0.564620	-0.488320	-0.018188	0.893064	0.440306	-1.000000	-1.000000	-1.000000	-1.000000	-1.000000	-1.000000	-1.000000	138.689655	0.000000	-1.000000	-1.000000	645048.000000	1772919320.698548
-4090.905000	21423.330000	-21768.615000	-14612.940000	0.000000	0.000000	0.000000	0.000000	55.421926	45.671319	89.899079	86.708622	0.000000	-0.000000	-0.000000	-0.000000	5.249440	0.564620	-0.488320	-0.018188	0.893064	0.440306	-1.000000	-1.000000	-1.000000	-1.000000	-1.000000	-1.000000	-1.000000	138.689655	0.000000	-1.000000	-1.000000	645049.000000	1772919320.698551
-4225.590000	21594.105000	-21948.885000	-14791.365000	0.000000	0.000000	0.000000	0.000000	2.105621	40.002833	9.222220	9.220479	0.000000	-0.000000	-0.000000	-0.000000	5.249440	0.564620	-0.488320	-0.018188	0.893064	0.440306	-1.000000	-1.000000	-1.000000	-1.000000	-1.000000	-1.000000	-1.000000	138.689655	0.000000	-1.000000	-1.000000	645050.000000	1772919320.702666
-4252.095000	21759.750000	-21978.630000	-14825.565000	0.000000	0.000000	0.000000	0.000000	-58.275300	39.574382	-82.236779	-79.341653	0.000000	-0.000000	-0.000000	-0.000000	5.249440	0.564620	-0.488320	-0.018188	0.893064	0.440306	-1.000000	-1.000000	-1.000000	-1.000000	-1.000000	-1.000000	-1.000000	138.689655	0.000000	-1.000000	-1.000000	645051.000000	1772919320.702669
-4209.165000	21820.410000	-21918.690000	-14768.055000	0.000000	0.000000	0.000000	0.000000	-92.646826	50.363030	-134.477793	-130.633455	0.000000	-0.000000	-0.000000	-0.000000	4.150720	0.625660	-0.701960	-0.017212	0.891843	0.440734	-1.000000	-1.000000	-1.000000	-1.000000	-1.000000	-1.000000	-1.000000	138.689655	0.000000	-1.000000	-1.000000	645052.000000	1772919320.706665
-4165.065000	21859.110000	-21851.865000	-14704.380000	0.000000	0.000000	0.000000	0.000000	-77.715060	54.458100	-114.337218	-111.882884	0.000000	-0.000000	-0.000000	-0.000000	4.150720	0.625660	-0.701960	-0.017212	0.891843	0.440734	-1.000000	-1.000000	-1.000000	-1.000000	-1.000000	-1.000000	-1.000000	138.689655	0.000000	-1.000000	-1.000000	645053.000000	1772919320.706667
-4072.815000	21877.515000	-21715.290000	-14569.785000	0.000000	0.000000	0.000000	0.000000	-18.469820	30.914192	-30.119434	-30.245044	0.000000	-0.000000	-0.000000	-0.000000	4.150720	0.625660	-0.701960	-0.017212	0.891843	0.440734	-1.000000	-1.000000	-1.000000	-1.000000	-1.000000	-1.000000	-1.000000	138.689655	0.000000	-1.000000	-1.000000	645054.000000	1772919320.710688
-4034.430000	21846.645000	-21666.780000	-14516.370000	0.000000	0.000000	0.000000	0.000000	53.830170	-20.149581	72.957555	70.845771	0.000000	-0.000000	-0.000000	-0.000000	4.150720	0.625660	-0.701960	-0.017212	0.891843	0.440734	-1.000000	-1.000000	-1.000000	-1.000000	-1.000000	-1.000000	-1.000000	138.689655	0.000000	-1.000000	-1.000000	645055.000000	1772919320.710690
-4049.460000	21732.120000	-21699.945000	-14548.455000	0.000000	0.000000	0.000000	0.000000	100.743497	-79.581672	139.572516	137.347947	0.000000	-0.000000	-0.000000	-0.000000	4.150720	0.625660	-0.701960	-0.017212	0.891843	0.440734	-1.000000	-1.000000	-1.000000	-1.000000	-1.000000	-1.000000	-1.000000	138.689655	0.000000	-1.000000	-1.000000	645056.000000	1772919320.714737
-4097.295000	21725.145000	-21760.695000	-14608.260000	0.000000	0.000000	0.000000	0.000000	97.247489	-123.183434	133.958314	133.369795	0.000000	-0.000000	-0.000000	-0.000000	4.150720	0.625660	-0.701960	-0.017212	0.891843	0.440734	-1.000000	-1.000000	-1.000000	-1.000000	-1.000000	-1.000000	-1.000000	138.620690	0.000000	-1.000000	-1.000000	645057.000000	1772919320.714740
-4196.070000	21739.410000	-21900.015000	-14743.980000	0.000000	0.000000	0.000000	0.000000	44.897845	-129.066055	59.627768	61.107701	0.000000	-0.000000	-0.000000	-0.000000	4.150720	0.625660	-0.701960	-0.017212	0.891843	0.440734	-1.000000	-1.000000	-1.000000	-1.000000	-1.000000	-1.000000	-1.000000	138.620690	0.000000	-1.000000	-1.000000	645058.000000	1772919320.718701
-4253.355000	21691.035000	-21977.820000	-14824.440000	0.000000	0.000000	0.000000	0.000000	-29.869049	-88.958282	-44.463556	-41.815508	0.000000	-0.000000	-0.000000	-0.000000	4.150720	0.625660	-0.701960	-0.017212	0.891843	0.440734	-1.000000	-1.000000	-1.000000	-1.000000	-1.000000	-1.000000	-1.000000	138.620690	0.000000	-1.000000	-1.000000	645059.000000	1772919320.718703
-4224.780000	21683.385000	-21933.945000	-14780.655000	0.000000	0.000000	0.000000	0.000000	-88.690753	-19.488933	-124.297103	-122.026545	0.000000	-0.000000	-0.000000	-0.000000	4.150720	0.625660	-0.701960	-0.017212	0.891843	0.440734	-1.000000	-1.000000	-1.000000	-1.000000	-1.000000	-1.000000	-1.000000	138.620690	0.000000	-1.000000	-1.000000	645060.000000	1772919320.722653
-4183.605000	21740.400000	-21883.005000	-14731.515000	0.000000	0.000000	0.000000	0.000000	-100.196592	49.846658	-137.346607	-136.763693	0.000000	-0.000000	-0.000000	-0.000000	4.150720	0.625660	-0.701960	-0.017212	0.891843	0.440734	-1.000000	-1.000000	-1.000000	-1.000000	-1.000000	-1.000000	-1.000000	138.620690	0.000000	-1.000000	-1.000000	645061.000000	1772919320.722656
-4083.435000	21715.290000	-21751.110000	-14604.390000	0.000000	0.000000	0.000000	0.000000	-58.587514	96.667054	-77.568352	-79.088916	0.000000	-0.000000	-0.000000	-0.000000	4.227020	0.595140	-0.442540	-0.018311	0.891050	0.440368	-1.000000	-1.000000	-1.000000	-1.000000	-1.000000	-1.000000	-1.000000	138.620690	0.000000	-1.000000	-1.000000	645062.000000	1772919320.726749
-3993.840000	21598.425000	-21626.640000	-14475.510000	0.000000	0.000000	0.000000	0.000000	13.452806	107.478183	22.180198	19.169336	0.000000	-0.000000	-0.000000	-0.000000	4.227020	0.595140	-0.442540	-0.018311	0.891050	0.440368	-1.000000	-1.000000	-1.000000	-1.000000	-1.000000	-1.000000	-1.000000	138.620690	0.000000	-1.000000	-1.000000	645063.000000	1772919320.726752
-4013.100000	21558.465000	-21654.360000	-14499.810000	0.000000	0.000000	0.000000	0.000000	77.595153	78.092186	109.349584	106.366177	0.000000	-0.000000	-0.000000	-0.000000	4.227020	0.595140	-0.442540	-0.018311	0.891050	0.440368	-1.000000	-1.000000	-1.000000	-1.000000	-1.000000	-1.000000	-1.000000	138.620690	0.000000	-1.000000	-1.000000	645064.000000	1772919320.730647
-4047.750000	21549.780000	-21705.525000	-14550.165000	0.000000	0.000000	0.000000	0.000000	98.526030	24.233432	136.632266	135.376152	0.000000	-0.000000	-0.000000	-0.000000	4.227020	0.595140	-0.442540	-0.018311	0.891050	0.440368	-1.000000	-1.000000	-1.000000	-1.000000	-1.000000	-1.000000	-1.000000	138.620690	0.000000	-1.000000	-1.000000	645065.000000	1772919320.730651
-4118.670000	21516.480000	-21811.365000	-14654.070000	0.000000	0.000000	0.000000	0.000000	64.516916	-23.785109	88.600675	89.739301	0.000000	-0.000000	-0.000000	-0.000000	4.227020	0.595140	-0.442540	-0.018311	0.891050	0.440368	-1.000000	-1.000000	-1.000000	-1.000000	-1.000000	-1.000000	-1.000000	138.620690	0.000000	-1.000000	-1.000000	645066.000000	1772919320.734751
-4173.030000	21332.745000	-21908.340000	-14751.855000	0.000000	0.000000	0.000000	0.000000	-4.454774	-47.592982	-7.622418	-4.889625	0.000000	-0.000000	-0.000000	-0.000000	4.227020	0.595140	-0.442540	-0.018311	0.891050	0.440368	-1.000000	-1.000000	-1.000000	-1.000000	-1.000000	-1.000000	-1.000000	138.620690	0.000000	-1.000000	-1.000000	645067.000000	1772919320.734754
-4144.410000	21196.035000	-21882.060000	-14723.820000	0.000000	0.000000	0.000000	0.000000	-69.193103	-53.086132	-98.696216	-95.945710	0.000000	-0.000000	-0.000000	-0.000000	4.227020	0.595140	-0.442540	-0.018311	0.891050	0.440368	-1.000000	-1.000000	-1.000000	-1.000000	-1.000000	-1.000000	-1.000000	138.620690	0.000000	-1.000000	-1.000000	645068.000000	1772919320.738770
-4112.010000	21160.575000	-21837.915000	-14675.625000	0.000000	0.000000	0.000000	0.000000	-94.023426	-50.458920	-134.664589	-133.129037	0.000000	-0.000000	-0.000000	-0.000000	4.227020	0.595140	-0.442540	-0.018311	0.891050	0.440368	-1.000000	-1.000000	-1.000000	-1.000000	-1.000000	-1.000000	-1.000000	138.620690	0.000000	-1.000000	-1.000000	645069.000000	1772919320.738773
-4053.240000	21127.365000	-21760.020000	-14589.045000	0.000000	0.000000	0.000000	0.000000	-67.776450	-35.960762	-97.903363	-97.672881	0.000000	-0.000000	-0.000000	-0.000000	4.227020	0.595140	-0.442540	-0.018311	0.891050	0.440368	-1.000000	-1.000000	-1.000000	-1.000000	-1.000000	-1.000000	-1.000000	138.620690	0.000000	-1.000000	-1.000000	645070.000000	1772919320.742791
-3968.595000	21112.065000	-21630.420000	-14452.065000	0.000000	0.000000	0.000000	0.000000	-8.174811	-3.616533	-11.618572	-11.756064	0.000000	-0.000000	-0.000000	-0.000000	4.227020	0.595140	-0.442540	-0.018311	0.891050	0.440368	-1.000000	-1.000000	-1.000000	-1.000000	-1.000000	-1.000000	-1.000000	138.620690	0.000000	-1.000000	-1.000000	645071.000000	1772919320.742794
-3977.145000	21180.960000	-21635.145000	-14464.440000	0.000000	0.000000	0.000000	0.000000	51.616781	39.993024	77.269346	77.497659	0.000000	-0.000000	-0.000000	-0.000000	5.234180	0.885080	-0.473060	-0.018982	0.890501	0.442504	-1.000000	-1.000000	-1.000000	-1.000000	-1.000000	-1.000000	-1.000000	138.620690	0.000000	-1.000000	-1.000000	645072.000000	1772919320.746905
-4019.940000	21251.880000	-21687.165000	-14521.815000	0.000000	0.000000	0.000000	0.000000	79.736970	80.165530	121.786648	121.639261	0.000000	-0.000000	-0.000000	-0.000000	5.234180	0.885080	-0.473060	-0.018982	0.890501	0.442504	-1.000000	-1.000000	-1.000000	-1.000000	-1.000000	-1.000000	-1.000000	138.620690	0.000000	-1.000000	-1.000000	645073.000000	1772919320.746908
-4069.440000	21213.675000	-21759.120000	-14588.640000	0.000000	0.000000	0.000000	0.000000	61.850953	100.315097	98.780973	96.804606	0.000000	-0.000000	-0.000000	-0.000000	5.234180	0.885080	-0.473060	-0.018982	0.890501	0.442504	-1.000000	-1.000000	-1.000000	-1.000000	-1.000000	-1.000000	-1.000000	138.620690	0.000000	-1.000000	-1.000000	645074.000000	1772919320.760834
-4169.205000	21135.780000	-21901.860000	-14730.840000	0.000000	0.000000	0.000000	0.000000	9.633587	84.621312	22.637011	18.809270	0.000000	-0.000000	-0.000000	-0.000000	5.234180	0.885080	-0.473060	-0.018982	0.890501	0.442504	-1.000000	-1.000000	-1.000000	-1.000000	-1.000000	-1.000000	-1.000000	138.620690	0.000000	-1.000000	-1.000000	645075.000000	1772919320.760836
-4169.745000	21023.460000	-21896.685000	-14735.520000	0.000000	0.000000	0.000000	0.000000	-47.285911	29.428764	-64.269114	-68.371751	0.000000	-0.000000	-0.000000	-0.000000	5.234180	0.885080	-0.473060	-0.018982	0.890501	0.442504	-1.000000	-1.000000	-1.000000	-1.000000	-1.000000	-1.000000	-1.000000	138.620690	0.000000	-1.000000	-1.000000	645076.000000	1772919320.760840
-4119.165000	20914.515000	-21821.670000	-14670.540000	0.000000	0.000000	0.000000	0.000000	-76.580968	-46.612375	-113.018570	-116.160182	0.000000	-0.000000	-0.000000	-0.000000	5.234180	0.885080	-0.473060	-0.018982	0.890501	0.442504	-1.000000	-1.000000	-1.000000	-1.000000	-1.000000	-1.000000	-1.000000	138.620690	0.000000	-1.000000	-1.000000	645077.000000	1772919320.760842
-4057.110000	20756.790000	-21744.585000	-14591.520000	0.000000	0.000000	0.000000	0.000000	-60.202709	-111.207136	-94.818639	-96.829197	0.000000	-0.000000	-0.000000	-0.000000	5.234180	0.885080	-0.473060	-0.018982	0.890501	0.442504	-1.000000	-1.000000	-1.000000	-1.000000	-1.000000	-1.000000	-1.000000	138.620690	0.000000	-1.000000	-1.000000	645078.000000	1772919320.760845
-3988.935000	20835.855000	-21627.360000	-14470.425000	0.000000	0.000000	0.000000	0.000000	-7.215759	-134.531020	-21.141123	-21.680434	0.000000	-0.000000	-0.000000	-0.000000	5.234180	0.885080	-0.473060	-0.018982	0.890501	0.442504	-1.000000	-1.000000	-1.000000	-1.000000	-1.000000	-1.000000	-1.000000	138.620690	0.000000	-1.000000	-1.000000	645079.000000	1772919320.760846
-3982.590000	20970.765000	-21608.370000	-14443.515000	0.000000	0.000000	0.000000	0.000000	51.135552	-97.954866	64.147089	66.201439	0.000000	-0.000000	-0.000000	-0.000000	5.234180	0.885080	-0.473060	-0.018982	0.890501	0.442504	-1.000000	-1.000000	-1.000000	-1.000000	-1.000000	-1.000000	-1.000000	138.620690	0.000000	-1.000000	-1.000000	645080.000000	1772919320.768118
-4023.675000	21094.425000	-21667.320000	-14504.355000	0.000000	0.000000	0.000000	0.000000	80.706929	-7.209057	111.699383	117.015203	0.000000	-0.000000	-0.000000	-0.000000	5.234180	0.885080	-0.473060	-0.018982	0.890501	0.442504	-1.000000	-1.000000	-1.000000	-1.000000	-1.000000	-1.000000	-1.000000	138.620690	0.000000	-1.000000	-1.000000	645081.000000	1772919320.768121
-4066.650000	21179.070000	-21728.880000	-14564.520000	0.000000	0.000000	0.000000	0.000000	64.772951	97.484105	94.493416	101.834467	0.000000	-0.000000	-0.000000	-0.000000	7.645260	0.259420	-0.381500	-0.018127	0.887876	0.445678	-1.000000	-1.000000	-1.000000	-1.000000	-1.000000	-1.000000	-1.000000	138.620690	0.000000	-1.000000	-1.000000	645082.000000	1772919320.768125
-4150.845000	21157.110000	-21857.355000	-14703.210000	0.000000	0.000000	0.000000	0.000000	13.333653	160.066202	23.376029	29.749228	0.000000	-0.000000	-0.000000	-0.000000	7.645260	0.259420	-0.381500	-0.018127	0.887876	0.445678	-1.000000	-1.000000	-1.000000	-1.000000	-1.000000	-1.000000	-1.000000	138.620690	0.000000	-1.000000	-1.000000	645083.000000	1772919320.768127
-4181.265000	21062.340000	-21906.000000	-14754.465000	0.000000	0.000000	0.000000	0.000000	-45.050124	143.464114	-61.779294	-59.452835	0.000000	-0.000000	-0.000000	-0.000000	7.645260	0.259420	-0.381500	-0.018127	0.887876	0.445678	-1.000000	-1.000000	-1.000000	-1.000000	-1.000000	-1.000000	-1.000000	138.620690	0.000000	-1.000000	-1.000000	645084.000000	1772919320.770819
-4144.320000	20903.130000	-21853.800000	-14691.465000	0.000000	0.000000	0.000000	0.000000	-79.123209	51.598670	-114.385162	-117.022709	0.000000	-0.000000	-0.000000	-0.000000	7.645260	0.259420	-0.381500	-0.018127	0.887876	0.445678	-1.000000	-1.000000	-1.000000	-1.000000	-1.000000	-1.000000	-1.000000	138.620690	0.000000	-1.000000	-1.000000	645085.000000	1772919320.770822
-4117.185000	20883.510000	-21813.030000	-14643.495000	0.000000	0.000000	0.000000	0.000000	-70.438074	-70.544163	-104.835526	-110.050527	0.000000	-0.000000	-0.000000	-0.000000	7.645260	0.259420	-0.381500	-0.018127	0.887876	0.445678	-1.000000	-1.000000	-1.000000	-1.000000	-1.000000	-1.000000	-1.000000	138.620690	0.000000	-1.000000	-1.000000	645086.000000	1772919320.774816
-4051.755000	20987.145000	-21710.880000	-14539.050000	0.000000	0.000000	0.000000	0.000000	-24.444804	-156.691570	-38.634854	-42.575636	0.000000	-0.000000	-0.000000	-0.000000	7.645260	0.259420	-0.381500	-0.018127	0.887876	0.445678	-1.000000	-1.000000	-1.000000	-1.000000	-1.000000	-1.000000	-1.000000	138.620690	0.000000	-1.000000	-1.000000	645087.000000	1772919320.774820
-3993.390000	21139.740000	-21626.595000	-14464.395000	0.000000	0.000000	0.000000	0.000000	33.779654	-156.382574	48.237042	47.454247	0.000000	-0.000000	-0.000000	-0.000000	7.645260	0.259420	-0.381500	-0.018127	0.887876	0.445678	-1.000000	-1.000000	-1.000000	-1.000000	-1.000000	-1.000000	-1.000000	138.620690	0.000000	-1.000000	-1.000000	645088.000000	1772919320.778954
-4009.950000	21165.255000	-21653.955000	-14506.560000	0.000000	0.000000	0.000000	0.000000	74.729128	-72.208976	111.112500	111.868225	0.000000	-0.000000	-0.000000	-0.000000	7.645260	0.259420	-0.381500	-0.018127	0.887876	0.445678	-1.000000	-1.000000	-1.000000	-1.000000	-1.000000	-1.000000	-1.000000	138.620690	0.000000	-1.000000	-1.000000	645089.000000	1772919320.778957
-4049.955000	21095.595000	-21710.655000	-14560.290000	0.000000	0.000000	0.000000	0.000000	77.645707	37.297206	117.334914	116.504098	0.000000	-0.000000	-0.000000	-0.000000	7.645260	0.259420	-0.381500	-0.018127	0.887876	0.445678	-1.000000	-1.000000	-1.000000	-1.000000	-1.000000	-1.000000	-1.000000	138.620690	0.000000	-1.000000	-1.000000	645090.000000	1772919320.782850
-4130.955000	21008.565000	-21827.070000	-14669.100000	0.000000	0.000000	0.000000	0.000000	40.278652	101.093498	62.652825	59.342598	0.000000	-0.000000	-0.000000	-0.000000	7.645260	0.259420	-0.381500	-0.018127	0.887876	0.445678	-1.000000	-1.000000	-1.000000	-1.000000	-1.000000	-1.000000	-1.000000	138.620690	0.000000	-1.000000	-1.000000	645091.000000	1772919320.782852
-4183.875000	20862.045000	-21916.755000	-14761.305000	0.000000	0.000000	0.000000	0.000000	-18.737874	87.270910	-25.247934	-28.629521	0.000000	-0.000000	-0.000000	-0.000000	14.588560	-0.244160	-0.350980	-0.019104	0.883482	0.447753	-1.000000	-1.000000	-1.000000	-1.000000	-1.000000	-1.000000	-1.000000	138.620690	0.000000	-1.000000	-1.000000	645092.000000	1772919320.786927
-4139.145000	20761.740000	-21860.730000	-14704.695000	0.000000	0.000000	0.000000	0.000000	-67.892283	17.050488	-99.791885	-100.372260	0.000000	-0.000000	-0.000000	-0.000000	14.588560	-0.244160	-0.350980	-0.019104	0.883482	0.447753	-1.000000	-1.000000	-1.000000	-1.000000	-1.000000	-1.000000	-1.000000	138.620690	0.000000	-1.000000	-1.000000	645093.000000	1772919320.786930
-4095.315000	20706.300000	-21811.545000	-14657.040000	0.000000	0.000000	0.000000	0.000000	-78.881425	-58.153307	-119.049008	-116.217092	0.000000	-0.000000	-0.000000	-0.000000	14.588560	-0.244160	-0.350980	-0.019104	0.883482	0.447753	-1.000000	-1.000000	-1.000000	-1.000000	-1.000000	-1.000000	-1.000000	138.620690	0.000000	-1.000000	-1.000000	645094.000000	1772919320.790875
-4038.030000	20692.980000	-21723.840000	-14575.770000	0.000000	0.000000	0.000000	0.000000	-45.526224	-91.075928	-72.563367	-68.051831	0.000000	-0.000000	-0.000000	-0.000000	14.588560	-0.244160	-0.350980	-0.019104	0.883482	0.447753	-1.000000	-1.000000	-1.000000	-1.000000	-1.000000	-1.000000	-1.000000	138.620690	0.000000	-1.000000	-1.000000	645095.000000	1772919320.790878
-3960.270000	20762.640000	-21595.905000	-14449.185000	0.000000	0.000000	0.000000	0.000000	11.875343	-63.902493	12.190666	15.800815	0.000000	-0.000000	-0.000000	-0.000000	14.588560	-0.244160	-0.350980	-0.019104	0.883482	0.447753	-1.000000	-1.000000	-1.000000	-1.000000	-1.000000	-1.000000	-1.000000	138.620690	0.000000	-1.000000	-1.000000	645096.000000	1772919320.797414
-3976.335000	20861.685000	-21616.380000	-14459.310000	0.000000	0.000000	0.000000	0.000000	61.104371	7.978835	89.113268	90.381442	0.000000	-0.000000	-0.000000	-0.000000	14.588560	-0.244160	-0.350980	-0.019104	0.883482	0.447753	-1.000000	-1.000000	-1.000000	-1.000000	-1.000000	-1.000000	-1.000000	138.620690	0.000000	-1.000000	-1.000000	645097.000000	1772919320.797417
-4001.355000	20904.435000	-21662.595000	-14495.625000	0.000000	0.000000	0.000000	0.000000	75.535995	87.517514	116.697584	116.528523	0.000000	-0.000000	-0.000000	-0.000000	14.588560	-0.244160	-0.350980	-0.019104	0.883482	0.447753	-1.000000	-1.000000	-1.000000	-1.000000	-1.000000	-1.000000	-1.000000	138.620690	0.000000	-1.000000	-1.000000	645098.000000	1772919320.798771
-4058.055000	20954.655000	-21733.965000	-14559.210000	0.000000	0.000000	0.000000	0.000000	47.788139	133.917393	79.689356	80.264646	0.000000	-0.000000	-0.000000	-0.000000	14.588560	-0.244160	-0.350980	-0.019104	0.883482	0.447753	-1.000000	-1.000000	-1.000000	-1.000000	-1.000000	-1.000000	-1.000000	138.620690	0.000000	-1.000000	-1.000000	645099.000000	1772919320.798774
-4178.565000	20992.050000	-21878.010000	-14688.630000	0.000000	0.000000	0.000000	0.000000	-7.289511	124.547980	-1.445753	1.150590	0.000000	-0.000000	-0.000000	-0.000000	14.588560	-0.244160	-0.350980	-0.019104	0.883482	0.447753	-1.000000	-1.000000	-1.000000	-1.000000	-1.000000	-1.000000	-1.000000	138.620690	0.000000	-1.000000	-1.000000	645100.000000	1772919320.802939
-4198.815000	20920.770000	-21882.645000	-14669.955000	0.000000	0.000000	0.000000	0.000000	-62.383758	64.942085	-83.931853	-79.582668	0.000000	-0.000000	-0.000000	-0.000000	14.588560	-0.244160	-0.350980	-0.019104	0.883482	0.447753	-1.000000	-1.000000	-1.000000	-1.000000	-1.000000	-1.000000	-1.000000	138.620690	0.000000	-1.000000	-1.000000	645101.000000	1772919320.802942
-4197.330000	20931.480000	-21860.460000	-14646.330000	0.000000	0.000000	0.000000	0.000000	-89.102300	-19.188601	-124.053407	-119.249627	0.000000	-0.000000	-0.000000	-0.000000	15.031100	-0.335720	2.304260	-0.021423	0.884824	0.442199	-1.000000	-1.000000	-1.000000	-1.000000	-1.000000	-1.000000	-1.000000	138.620690	0.000000	-1.000000	-1.000000	645102.000000	1772919320.806991
-4095.090000	20983.185000	-21770.010000	-14595.705000	0.000000	0.000000	0.000000	0.000000	-70.209731	-91.975556	-99.038348	-96.912091	0.000000	-0.000000	-0.000000	-0.000000	15.031100	-0.335720	2.304260	-0.021423	0.884824	0.442199	-1.000000	-1.000000	-1.000000	-1.000000	-1.000000	-1.000000	-1.000000	138.620690	0.000000	-1.000000	-1.000000	645103.000000	1772919320.806994
-3896.100000	20907.630000	-21546.900000	-14425.155000	0.000000	0.000000	0.000000	0.000000	-8.859237	-123.623083	-19.063285	-25.282021	0.000000	-0.000000	-0.000000	-0.000000	15.031100	-0.335720	2.304260	-0.021423	0.884824	0.442199	-1.000000	-1.000000	-1.000000	-1.000000	-1.000000	-1.000000	-1.000000	138.620690	0.000000	-1.000000	-1.000000	645104.000000	1772919320.811063
-3852.630000	20859.255000	-21508.470000	-14409.315000	0.000000	0.000000	0.000000	0.000000	69.642427	-110.869843	78.556089	59.669288	0.000000	-0.000000	-0.000000	-0.000000	15.031100	-0.335720	2.304260	-0.021423	0.884824	0.442199	-1.000000	-1.000000	-1.000000	-1.000000	-1.000000	-1.000000	-1.000000	138.620690	0.000000	-1.000000	-1.000000	645105.000000	1772919320.811066
-3928.140000	20894.085000	-21589.965000	-14470.110000	0.000000	0.000000	0.000000	0.000000	121.527558	-71.154886	141.083374	113.683415	0.000000	-0.000000	-0.000000	-0.000000	15.031100	-0.335720	2.304260	-0.021423	0.884824	0.442199	-1.000000	-1.000000	-1.000000	-1.000000	-1.000000	-1.000000	-1.000000	138.620690	0.000000	-1.000000	-1.000000	645106.000000	1772919320.815030
-4034.385000	20978.145000	-21703.500000	-14560.650000	0.000000	0.000000	0.000000	0.000000	107.792819	-19.604339	126.317113	104.546736	0.000000	-0.000000	-0.000000	-0.000000	15.031100	-0.335720	2.304260	-0.021423	0.884824	0.442199	-1.000000	-1.000000	-1.000000	-1.000000	-1.000000	-1.000000	-1.000000	138.620690	0.000000	-1.000000	-1.000000	645107.000000	1772919320.815033
-4169.925000	20946.375000	-21898.125000	-14749.965000	0.000000	0.000000	0.000000	0.000000	27.771179	33.002430	35.657091	34.450329	0.000000	-0.000000	-0.000000	-0.000000	15.031100	-0.335720	2.304260	-0.021423	0.884824	0.442199	-1.000000	-1.000000	-1.000000	-1.000000	-1.000000	-1.000000	-1.000000	138.620690	0.000000	-1.000000	-1.000000	645108.000000	1772919320.818936
-4214.385000	20863.305000	-21973.140000	-14814.315000	0.000000	0.000000	0.000000	0.000000	-75.250802	68.497661	-82.842056	-59.656889	0.000000	-0.000000	-0.000000	-0.000000	15.031100	-0.335720	2.304260	-0.021423	0.884824	0.442199	-1.000000	-1.000000	-1.000000	-1.000000	-1.000000	-1.000000	-1.000000	138.620690	0.000000	-1.000000	-1.000000	645109.000000	1772919320.818938
-4164.615000	20855.835000	-21912.030000	-14746.410000	0.000000	0.000000	0.000000	0.000000	-141.241633	69.723864	-161.655452	-124.029056	0.000000	-0.000000	-0.000000	-0.000000	15.031100	-0.335720	2.304260	-0.021423	0.884824	0.442199	-1.000000	-1.000000	-1.000000	-1.000000	-1.000000	-1.000000	-1.000000	138.620690	0.000000	-1.000000	-1.000000	645110.000000	1772919320.822949
-4082.940000	20843.505000	-21792.195000	-14648.940000	0.000000	0.000000	0.000000	0.000000	-130.732225	40.962751	-151.805318	-116.629566	0.000000	-0.000000	-0.000000	-0.000000	15.031100	-0.335720	2.304260	-0.021423	0.884824	0.442199	-1.000000	-1.000000	-1.000000	-1.000000	-1.000000	-1.000000	-1.000000	138.620690	0.000000	-1.000000	-1.000000	645111.000000	1772919320.822951
-3988.260000	20845.440000	-21597.705000	-14498.730000	0.000000	0.000000	0.000000	0.000000	-49.654625	5.260811	-54.048391	-36.896757	0.000000	-0.000000	-0.000000	-0.000000	16.465540	5.920880	2.685760	-0.019348	0.889890	0.433837	-1.000000	-1.000000	-1.000000	-1.000000	-1.000000	-1.000000	-1.000000	138.620690	0.000000	-1.000000	-1.000000	645112.000000	1772919320.827001
-4018.500000	21034.260000	-21562.515000	-14456.880000	0.000000	0.000000	0.000000	0.000000	54.338381	-13.456847	79.011583	70.729568	0.000000	-0.000000	-0.000000	-0.000000	16.465540	5.920880	2.685760	-0.019348	0.889890	0.433837	-1.000000	-1.000000	-1.000000	-1.000000	-1.000000	-1.000000	-1.000000	138.620690	0.000000	-1.000000	-1.000000	645113.000000	1772919320.827003
-4087.350000	21154.635000	-21652.065000	-14518.125000	0.000000	0.000000	0.000000	0.000000	121.063629	-1.926047	170.713218	143.102312	0.000000	-0.000000	-0.000000	-0.000000	16.465540	5.920880	2.685760	-0.019348	0.889890	0.433837	-1.000000	-1.000000	-1.000000	-1.000000	-1.000000	-1.000000	-1.000000	138.620690	0.000000	-1.000000	-1.000000	645114.000000	1772919320.830956
-4098.915000	21182.130000	-21708.315000	-14577.975000	0.000000	0.000000	0.000000	0.000000	116.896340	30.169085	166.839636	136.886833	0.000000	-0.000000	-0.000000	-0.000000	16.465540	5.920880	2.685760	-0.019348	0.889890	0.433837	-1.000000	-1.000000	-1.000000	-1.000000	-1.000000	-1.000000	-1.000000	138.620690	0.000000	-1.000000	-1.000000	645115.000000	1772919320.830958
-4181.265000	21150.585000	-21848.625000	-14690.745000	0.000000	0.000000	0.000000	0.000000	54.836791	50.440952	72.712410	56.513261	0.000000	-0.000000	-0.000000	-0.000000	16.465540	5.920880	2.685760	-0.019348	0.889890	0.433837	-1.000000	-1.000000	-1.000000	-1.000000	-1.000000	-1.000000	-1.000000	138.620690	0.000000	-1.000000	-1.000000	645116.000000	1772919320.834970
-4255.425000	21139.155000	-22020.750000	-14810.355000	0.000000	0.000000	0.000000	0.000000	-24.001265	32.480580	-56.819700	-52.656165	0.000000	-0.000000	-0.000000	-0.000000	16.465540	5.920880	2.685760	-0.019348	0.889890	0.433837	-1.000000	-1.000000	-1.000000	-1.000000	-1.000000	-1.000000	-1.000000	138.620690	0.000000	-1.000000	-1.000000	645117.000000	1772919320.834973
-4218.390000	21145.860000	-21966.390000	-14746.770000	0.000000	0.000000	0.000000	0.000000	-79.520734	-17.861084	-154.977616	-133.534118	0.000000	-0.000000	-0.000000	-0.000000	16.465540	5.920880	2.685760	-0.019348	0.889890	0.433837	-1.000000	-1.000000	-1.000000	-1.000000	-1.000000	-1.000000	-1.000000	138.620690	0.000000	-1.000000	-1.000000	645118.000000	1772919320.839049
-4170.240000	21248.280000	-21874.140000	-14644.980000	0.000000	0.000000	0.000000	0.000000	-86.984082	-67.299343	-171.153714	-143.165970	0.000000	-0.000000	-0.000000	-0.000000	16.465540	5.920880	2.685760	-0.019348	0.889890	0.433837	-1.000000	-1.000000	-1.000000	-1.000000	-1.000000	-1.000000	-1.000000	138.620690	0.000000	-1.000000	-1.000000	645119.000000	1772919320.839052
-4040.100000	21176.505000	-21703.230000	-14475.825000	0.000000	0.000000	0.000000	0.000000	-44.944009	-84.709233	-94.571928	-74.337465	0.000000	-0.000000	-0.000000	-0.000000	16.465540	5.920880	2.685760	-0.019348	0.889890	0.433837	-1.000000	-1.000000	-1.000000	-1.000000	-1.000000	-1.000000	-1.000000	138.620690	0.000000	-1.000000	-1.000000	645120.000000	1772919320.843066
-3933.540000	21111.570000	-21550.815000	-14362.245000	0.000000	0.000000	0.000000	0.000000	24.110706	-68.334399	35.557023	36.818170	0.000000	-0.000000	-0.000000	-0.000000	16.465540	5.920880	2.685760	-0.019348	0.889890	0.433837	-1.000000	-1.000000	-1.000000	-1.000000	-1.000000	-1.000000	-1.000000	138.620690	0.000000	-1.000000	-1.000000	645121.000000	1772919320.843072
-3955.680000	21157.470000	-21584.385000	-14447.655000	0.000000	0.000000	0.000000	0.000000	83.059889	-37.646979	149.333909	127.638638	0.000000	-0.000000	-0.000000	-0.000000	7.340060	5.096840	1.770160	-0.014465	0.886045	0.426696	-1.000000	-1.000000	-1.000000	-1.000000	-1.000000	-1.000000	-1.000000	138.620690	0.000000	-1.000000	-1.000000	645122.000000	1772919320.847143
-4019.715000	21225.330000	-21675.060000	-14530.680000	0.000000	0.000000	0.000000	0.000000	96.020611	-4.540201	182.567971	143.081312	0.000000	-0.000000	-0.000000	-0.000000	7.340060	5.096840	1.770160	-0.014465	0.886045	0.426696	-1.000000	-1.000000	-1.000000	-1.000000	-1.000000	-1.000000	-1.000000	138.620690	0.000000	-1.000000	-1.000000	645123.000000	1772919320.847147
-4095.450000	21201.120000	-21787.695000	-14668.335000	0.000000	0.000000	0.000000	0.000000	51.098515	28.489167	115.293005	72.588987	0.000000	-0.000000	-0.000000	-0.000000	7.340060	5.096840	1.770160	-0.014465	0.886045	0.426696	-1.000000	-1.000000	-1.000000	-1.000000	-1.000000	-1.000000	-1.000000	138.620690	0.000000	-1.000000	-1.000000	645124.000000	1772919320.871402
-4212.270000	21141.720000	-21912.615000	-14802.975000	0.000000	0.000000	0.000000	0.000000	-28.778163	51.628721	-13.931577	-42.318051	0.000000	-0.000000	-0.000000	-0.000000	7.340060	5.096840	1.770160	-0.014465	0.886045	0.426696	-1.000000	-1.000000	-1.000000	-1.000000	-1.000000	-1.000000	-1.000000	138.620690	0.000000	-1.000000	-1.000000	645125.000000	1772919320.871417
-4216.545000	21137.310000	-21868.740000	-14780.385000	0.000000	0.000000	0.000000	0.000000	-100.433553	52.073738	-132.742751	-136.455421	0.000000	-0.000000	-0.000000	-0.000000	7.340060	5.096840	1.770160	-0.014465	0.886045	0.426696	-1.000000	-1.000000	-1.000000	-1.000000	-1.000000	-1.000000	-1.000000	138.620690	0.000000	-1.000000	-1.000000	645126.000000	1772919320.871440
-4204.260000	21229.290000	-21795.255000	-14728.410000	0.000000	0.000000	0.000000	0.000000	-124.775421	33.293303	-176.625066	-157.139487	0.000000	-0.000000	-0.000000	-0.000000	7.340060	5.096840	1.770160	-0.014465	0.886045	0.426696	-1.000000	-1.000000	-1.000000	-1.000000	-1.000000	-1.000000	-1.000000	138.620690	0.000000	-1.000000	-1.000000	645127.000000	1772919320.871446
-4090.770000	21252.375000	-21641.265000	-14587.965000	0.000000	0.000000	0.000000	0.000000	-86.850889	14.202886	-124.344512	-92.071992	0.000000	-0.000000	-0.000000	-0.000000	7.340060	5.096840	1.770160	-0.014465	0.886045	0.426696	-1.000000	-1.000000	-1.000000	-1.000000	-1.000000	-1.000000	-1.000000	138.620690	0.000000	-1.000000	-1.000000	645128.000000	1772919320.872117
-3994.245000	21213.360000	-21478.275000	-14471.820000	0.000000	0.000000	0.000000	0.000000	-3.492841	5.705319	-7.538277	24.430793	0.000000	-0.000000	-0.000000	-0.000000	7.340060	5.096840	1.770160	-0.014465	0.886045	0.426696	-1.000000	-1.000000	-1.000000	-1.000000	-1.000000	-1.000000	-1.000000	138.620690	0.000000	-1.000000	-1.000000	645129.000000	1772919320.872123
-4079.520000	21293.145000	-21584.655000	-14530.005000	0.000000	0.000000	0.000000	0.000000	82.448608	2.534941	107.518479	129.899157	0.000000	-0.000000	-0.000000	-0.000000	7.340060	5.096840	1.770160	-0.014465	0.886045	0.426696	-1.000000	-1.000000	-1.000000	-1.000000	-1.000000	-1.000000	-1.000000	138.620690	0.000000	-1.000000	-1.000000	645130.000000	1772919320.872150
-4126.005000	21407.895000	-21565.530000	-14545.215000	0.000000	0.000000	0.000000	0.000000	121.989057	0.947301	155.086980	166.613564	0.000000	-0.000000	-0.000000	-0.000000	7.340060	5.096840	1.770160	-0.014465	0.886045	0.426696	-1.000000	-1.000000	-1.000000	-1.000000	-1.000000	-1.000000	-1.000000	138.620690	0.000000	-1.000000	-1.000000	645131.000000	1772919320.872166
-4141.395000	21503.745000	-21658.365000	-14547.240000	0.000000	0.000000	0.000000	0.000000	94.880425	5.229633	112.950930	118.890213	0.000000	-0.000000	-0.000000	-0.000000	-6.516020	1.159760	2.136400	-0.021728	0.895017	0.412169	-1.000000	-1.000000	-1.000000	-1.000000	-1.000000	-1.000000	-1.000000	138.620690	0.000000	-1.000000	-1.000000	645132.000000	1772919320.872172
-4250.070000	21562.560000	-22087.260000	-14731.515000	0.000000	0.000000	0.000000	0.000000	24.118989	14.277138	7.686311	19.226511	0.000000	-0.000000	-0.000000	-0.000000	-6.516020	1.159760	2.136400	-0.021728	0.895017	0.412169	-1.000000	-1.000000	-1.000000	-1.000000	-1.000000	-1.000000	-1.000000	138.620690	0.000000	-1.000000	-1.000000	645133.000000	1772919320.872175
-4276.215000	21608.235000	-22156.290000	-14759.145000	0.000000	0.000000	0.000000	0.000000	-48.513281	17.448710	-113.673664	-82.590989	0.000000	-0.000000	-0.000000	-0.000000	-6.516020	1.159760	2.136400	-0.021728	0.895017	0.412169	-1.000000	-1.000000	-1.000000	-1.000000	-1.000000	-1.000000	-1.000000	138.620690	0.000000	-1.000000	-1.000000	645134.000000	1772919320.872794
-4198.365000	21581.010000	-21980.070000	-14685.840000	0.000000	0.000000	0.000000	0.000000	-87.267456	4.943875	-187.715064	-141.196852	0.000000	-0.000000	-0.000000	-0.000000	-6.516020	1.159760	2.136400	-0.021728	0.895017	0.412169	-1.000000	-1.000000	-1.000000	-1.000000	-1.000000	-1.000000	-1.000000	138.620690	0.000000	-1.000000	-1.000000	645135.000000	1772919320.872797
-4092.930000	21421.710000	-21800.070000	-14635.170000	0.000000	0.000000	0.000000	0.000000	-73.158542	-25.772594	-154.412573	-128.532569	0.000000	-0.000000	-0.000000	-0.000000	-6.516020	1.159760	2.136400	-0.021728	0.895017	0.412169	-1.000000	-1.000000	-1.000000	-1.000000	-1.000000	-1.000000	-1.000000	138.620690	0.000000	-1.000000	-1.000000	645136.000000	1772919320.875161
-3931.605000	21354.885000	-21579.975000	-14453.505000	0.000000	0.000000	0.000000	0.000000	-13.232860	-67.767942	-15.319408	-51.650058	0.000000	-0.000000	-0.000000	-0.000000	-6.516020	1.159760	2.136400	-0.021728	0.895017	0.412169	-1.000000	-1.000000	-1.000000	-1.000000	-1.000000	-1.000000	-1.000000	138.620690	0.000000	-1.000000	-1.000000	645137.000000	1772919320.875183
-3873.600000	21348.270000	-21506.580000	-14398.965000	0.000000	0.000000	0.000000	0.000000	59.812240	-99.551273	152.663146	49.408543	0.000000	-0.000000	-0.000000	-0.000000	-6.516020	1.159760	2.136400	-0.021728	0.895017	0.412169	-1.000000	-1.000000	-1.000000	-1.000000	-1.000000	-1.000000	-1.000000	138.620690	0.000000	-1.000000	-1.000000	645138.000000	1772919320.879220
-3952.170000	21415.275000	-21616.920000	-14504.400000	0.000000	0.000000	0.000000	0.000000	101.760230	-93.081357	248.365062	120.449140	0.000000	-0.000000	-0.000000	-0.000000	-6.516020	1.159760	2.136400	-0.021728	0.895017	0.412169	-1.000000	-1.000000	-1.000000	-1.000000	-1.000000	-1.000000	-1.000000	138.620690	0.000000	-1.000000	-1.000000	645139.000000	1772919320.879226
-4093.785000	21443.175000	-21745.080000	-14626.305000	0.000000	0.000000	0.000000	0.000000	80.281738	-38.838379	211.268308	118.666161	0.000000	-0.000000	-0.000000	-0.000000	-6.516020	1.159760	2.136400	-0.021728	0.895017	0.412169	-1.000000	-1.000000	-1.000000	-1.000000	-1.000000	-1.000000	-1.000000	138.620690	0.000000	-1.000000	-1.000000	645140.000000	1772919320.883095
-4271.265000	21453.030000	-21861.945000	-14750.640000	0.000000	0.000000	0.000000	0.000000	-1.325052	40.008629	61.005706	43.289348	0.000000	-0.000000	-0.000000	-0.000000	-6.516020	1.159760	2.136400	-0.021728	0.895017	0.412169	-1.000000	-1.000000	-1.000000	-1.000000	-1.000000	-1.000000	-1.000000	138.620690	0.000000	-1.000000	-1.000000	645141.000000	1772919320.883100
-4296.015000	21496.455000	-21836.340000	-14788.800000	0.000000	0.000000	0.000000	0.000000	-99.547284	103.330531	-115.166242	-58.896982	0.000000	-0.000000	-0.000000	-0.000000	-45.184860	-4.349100	5.066320	-0.026550	0.947568	0.405639	-1.000000	-1.000000	-1.000000	-1.000000	-1.000000	-1.000000	-1.000000	138.620690	0.000000	-1.000000	-1.000000	645142.000000	1772919320.886892
-4222.215000	21587.445000	-21723.390000	-14722.425000	0.000000	0.000000	0.000000	0.000000	-153.038929	124.647988	-218.766833	-124.262344	0.000000	-0.000000	-0.000000	-0.000000	-45.184860	-4.349100	5.066320	-0.026550	0.947568	0.405639	-1.000000	-1.000000	-1.000000	-1.000000	-1.000000	-1.000000	-1.000000	138.620690	0.000000	-1.000000	-1.000000	645143.000000	1772919320.886896
-4164.075000	21574.485000	-21726.090000	-14668.155000	0.000000	0.000000	0.000000	0.000000	-123.295238	103.334334	-202.333934	-113.725232	0.000000	-0.000000	-0.000000	-0.000000	-45.184860	-4.349100	5.066320	-0.026550	0.947568	0.405639	-1.000000	-1.000000	-1.000000	-1.000000	-1.000000	-1.000000	-1.000000	138.620690	0.000000	-1.000000	-1.000000	645144.000000	1772919320.891128
-4051.620000	21631.320000	-21706.470000	-14537.565000	0.000000	0.000000	0.000000	0.000000	-24.141654	53.853070	-95.461938	-35.945819	0.000000	-0.000000	-0.000000	-0.000000	-45.184860	-4.349100	5.066320	-0.026550	0.947568	0.405639	-1.000000	-1.000000	-1.000000	-1.000000	-1.000000	-1.000000	-1.000000	138.620690	0.000000	-1.000000	-1.000000	645145.000000	1772919320.891131
-3975.840000	21736.665000	-21532.455000	-14394.465000	0.000000	0.000000	0.000000	0.000000	90.064474	-2.263269	31.213437	64.606967	0.000000	-0.000000	-0.000000	-0.000000	-45.184860	-4.349100	5.066320	-0.026550	0.947568	0.405639	-1.000000	-1.000000	-1.000000	-1.000000	-1.000000	-1.000000	-1.000000	138.620690	0.000000	-1.000000	-1.000000	645146.000000	1772919320.895228
-3958.830000	21778.560000	-21482.415000	-14350.320000	0.000000	0.000000	0.000000	0.000000	161.293860	-42.566652	121.753348	137.203068	0.000000	-0.000000	-0.000000	-0.000000	-45.184860	-4.349100	5.066320	-0.026550	0.947568	0.405639	-1.000000	-1.000000	-1.000000	-1.000000	-1.000000	-1.000000	-1.000000	138.620690	0.000000	-1.000000	-1.000000	645147.000000	1772919320.895258
-4020.840000	21781.440000	-21635.775000	-14454.720000	0.000000	0.000000	0.000000	0.000000	156.694038	-58.392385	147.576725	144.766638	0.000000	-0.000000	-0.000000	-0.000000	-45.184860	-4.349100	5.066320	-0.026550	0.947568	0.405639	-1.000000	-1.000000	-1.000000	-1.000000	-1.000000	-1.000000	-1.000000	138.620690	0.000000	-1.000000	-1.000000	645148.000000	1772919320.899131
-4229.280000	21819.465000	-21918.240000	-14620.230000	0.000000	0.000000	0.000000	0.000000	78.532814	-57.412306	96.916256	76.727151	0.000000	-0.000000	-0.000000	-0.000000	-45.184860	-4.349100	5.066320	-0.026550	0.947568	0.405639	-1.000000	-1.000000	-1.000000	-1.000000	-1.000000	-1.000000	-1.000000	138.620690	0.000000	-1.000000	-1.000000	645149.000000	1772919320.899134
-4401.405000	21739.050000	-22063.140000	-14745.105000	0.000000	0.000000	0.000000	0.000000	-40.598136	-50.878196	-13.104710	-40.020775	0.000000	-0.000000	-0.000000	-0.000000	-45.184860	-4.349100	5.066320	-0.026550	0.947568	0.405639	-1.000000	-1.000000	-1.000000	-1.000000	-1.000000	-1.000000	-1.000000	138.620690	0.000000	-1.000000	-1.000000	645150.000000	1772919320.903218
-4204.710000	21657.780000	-21855.420000	-14736.690000	0.000000	0.000000	0.000000	0.000000	-142.902759	-46.934349	-119.749810	-146.298759	0.000000	-0.000000	-0.000000	-0.000000	-45.184860	-4.349100	5.066320	-0.026550	0.947568	0.405639	-1.000000	-1.000000	-1.000000	-1.000000	-1.000000	-1.000000	-1.000000	138.620690	0.000000	-1.000000	-1.000000	645151.000000	1772919320.903221
-4189.050000	21521.565000	-21844.440000	-14772.060000	0.000000	0.000000	0.000000	0.000000	-166.608558	-48.589193	-146.774840	-183.358860	0.000000	-0.000000	-0.000000	-0.000000	-86.005360	-10.392060	10.743040	-0.035950	0.979307	0.402892	-1.000000	-1.000000	-1.000000	-1.000000	-1.000000	-1.000000	-1.000000	138.620690	0.000000	-1.000000	-1.000000	645152.000000	1772919320.907272
-4230.720000	21443.895000	-21876.390000	-14758.425000	0.000000	0.000000	0.000000	0.000000	-98.695760	-50.552645	-76.441966	-133.436427	0.000000	-0.000000	-0.000000	-0.000000	-86.005360	-10.392060	10.743040	-0.035950	0.979307	0.402892	-1.000000	-1.000000	-1.000000	-1.000000	-1.000000	-1.000000	-1.000000	138.620690	0.000000	-1.000000	-1.000000	645153.000000	1772919320.907275
-4110.975000	21518.145000	-21671.640000	-14494.320000	0.000000	0.000000	0.000000	0.000000	10.521231	-39.024130	37.274251	-23.859754	0.000000	-0.000000	-0.000000	-0.000000	-86.005360	-10.392060	10.743040	-0.035950	0.979307	0.402892	-1.000000	-1.000000	-1.000000	-1.000000	-1.000000	-1.000000	-1.000000	138.620690	0.000000	-1.000000	-1.000000	645154.000000	1772919320.911203
-3964.995000	21680.235000	-21508.470000	-14345.595000	0.000000	0.000000	0.000000	0.000000	101.540735	1.437133	131.534346	100.772638	0.000000	-0.000000	-0.000000	-0.000000	-86.005360	-10.392060	10.743040	-0.035950	0.979307	0.402892	-1.000000	-1.000000	-1.000000	-1.000000	-1.000000	-1.000000	-1.000000	138.620690	0.000000	-1.000000	-1.000000	645155.000000	1772919320.911206
-3972.780000	21739.410000	-21534.390000	-14459.625000	0.000000	0.000000	0.000000	0.000000	143.324169	68.781155	170.595621	188.591057	0.000000	-0.000000	-0.000000	-0.000000	-86.005360	-10.392060	10.743040	-0.035950	0.979307	0.402892	-1.000000	-1.000000	-1.000000	-1.000000	-1.000000	-1.000000	-1.000000	138.620690	0.000000	-1.000000	-1.000000	645156.000000	1772919320.915272
-4359.825000	21762.315000	-21921.390000	-14849.505000	0.000000	0.000000	0.000000	0.000000	119.262674	130.761138	131.923349	184.022424	0.000000	-0.000000	-0.000000	-0.000000	-86.005360	-10.392060	10.743040	-0.035950	0.979307	0.402892	-1.000000	-1.000000	-1.000000	-1.000000	-1.000000	-1.000000	-1.000000	138.620690	0.000000	-1.000000	-1.000000	645157.000000	1772919320.915274
-4417.965000	21778.020000	-21921.300000	-14878.755000	0.000000	0.000000	0.000000	0.000000	26.643375	146.211394	15.767047	71.063092	0.000000	-0.000000	-0.000000	-0.000000	-86.005360	-10.392060	10.743040	-0.035950	0.979307	0.402892	-1.000000	-1.000000	-1.000000	-1.000000	-1.000000	-1.000000	-1.000000	138.620690	0.000000	-1.000000	-1.000000	645158.000000	1772919320.919281
-4249.620000	21876.480000	-21761.190000	-14794.155000	0.000000	0.000000	0.000000	0.000000	-88.061458	102.506465	-118.612382	-83.512841	0.000000	-0.000000	-0.000000	-0.000000	-86.005360	-10.392060	10.743040	-0.035950	0.979307	0.402892	-1.000000	-1.000000	-1.000000	-1.000000	-1.000000	-1.000000	-1.000000	138.620690	0.000000	-1.000000	-1.000000	645159.000000	1772919320.919284
-4212.135000	21977.370000	-21686.715000	-14778.990000	0.000000	0.000000	0.000000	0.000000	-143.721466	26.232756	-180.530282	-174.179978	0.000000	-0.000000	-0.000000	-0.000000	-86.005360	-10.392060	10.743040	-0.035950	0.979307	0.402892	-1.000000	-1.000000	-1.000000	-1.000000	-1.000000	-1.000000	-1.000000	138.620690	0.000000	-1.000000	-1.000000	645160.000000	1772919320.923341
-4231.755000	21896.460000	-21716.730000	-14755.905000	0.000000	0.000000	0.000000	0.000000	-105.253930	-44.958301	-135.513813	-151.869682	0.000000	-0.000000	-0.000000	-0.000000	-86.005360	-10.392060	10.743040	-0.035950	0.979307	0.402892	-1.000000	-1.000000	-1.000000	-1.000000	-1.000000	-1.000000	-1.000000	138.620690	0.000000	-1.000000	-1.000000	645161.000000	1772919320.923344
-4202.190000	21925.845000	-21763.980000	-14655.105000	0.000000	0.000000	0.000000	0.000000	-13.391733	-92.226344	-32.632089	-50.085542	0.000000	-0.000000	-0.000000	-0.000000	-101.280620	-18.220440	6.851740	0.004089	0.981809	0.455870	-1.000000	-1.000000	-1.000000	-1.000000	-1.000000	-1.000000	-1.000000	138.620690	0.000000	-1.000000	-1.000000	645162.000000	1772919320.927287
-4096.440000	21987.045000	-21572.730000	-14535.135000	0.000000	0.000000	0.000000	0.000000	69.227581	-110.616758	57.642622	64.524249	0.000000	-0.000000	-0.000000	-0.000000	-101.280620	-18.220440	6.851740	0.004089	0.981809	0.455870	-1.000000	-1.000000	-1.000000	-1.000000	-1.000000	-1.000000	-1.000000	138.620690	0.000000	-1.000000	-1.000000	645163.000000	1772919320.927290
-4062.060000	22035.195000	-21564.360000	-14518.080000	0.000000	0.000000	0.000000	0.000000	107.928328	-96.425041	102.487735	137.712623	0.000000	-0.000000	-0.000000	-0.000000	-101.280620	-18.220440	6.851740	0.004089	0.981809	0.455870	-1.000000	-1.000000	-1.000000	-1.000000	-1.000000	-1.000000	-1.000000	138.620690	0.000000	-1.000000	-1.000000	645164.000000	1772919320.931380
-4162.500000	22049.235000	-21896.100000	-14652.630000	0.000000	0.000000	0.000000	0.000000	96.234975	-55.230608	95.707851	139.936869	0.000000	-0.000000	-0.000000	-0.000000	-101.280620	-18.220440	6.851740	0.004089	0.981809	0.455870	-1.000000	-1.000000	-1.000000	-1.000000	-1.000000	-1.000000	-1.000000	138.620690	0.000000	-1.000000	-1.000000	645165.000000	1772919320.931383
-4216.410000	21994.155000	-22038.345000	-14777.145000	0.000000	0.000000	0.000000	0.000000	41.863191	-7.625786	34.192098	69.818240	0.000000	-0.000000	-0.000000	-0.000000	-101.280620	-18.220440	6.851740	0.004089	0.981809	0.455870	-1.000000	-1.000000	-1.000000	-1.000000	-1.000000	-1.000000	-1.000000	138.620690	0.000000	-1.000000	-1.000000	645166.000000	1772919320.935246
-4126.140000	21839.445000	-22002.930000	-14823.675000	0.000000	0.000000	0.000000	0.000000	-29.388015	20.898893	-55.796620	-38.565660	0.000000	-0.000000	-0.000000	-0.000000	-101.280620	-18.220440	6.851740	0.004089	0.981809	0.455870	-1.000000	-1.000000	-1.000000	-1.000000	-1.000000	-1.000000	-1.000000	138.620690	0.000000	-1.000000	-1.000000	645167.000000	1772919320.935248
-4140.630000	21692.430000	-21882.195000	-14795.820000	0.000000	0.000000	0.000000	0.000000	-78.235916	16.128926	-110.494468	-125.868440	0.000000	-0.000000	-0.000000	-0.000000	-101.280620	-18.220440	6.851740	0.004089	0.981809	0.455870	-1.000000	-1.000000	-1.000000	-1.000000	-1.000000	-1.000000	-1.000000	138.620690	0.000000	-1.000000	-1.000000	645168.000000	1772919320.939329
-4255.290000	21696.435000	-21969.180000	-14804.910000	0.000000	0.000000	0.000000	0.000000	-84.463253	-10.714372	-86.918561	-144.730568	0.000000	-0.000000	-0.000000	-0.000000	-101.280620	-18.220440	6.851740	0.004089	0.981809	0.455870	-1.000000	-1.000000	-1.000000	-1.000000	-1.000000	-1.000000	-1.000000	138.620690	0.000000	-1.000000	-1.000000	645169.000000	1772919320.939332
-4207.455000	21758.985000	-21896.100000	-14651.280000	0.000000	0.000000	0.000000	0.000000	-60.261076	-26.088837	-6.685716	-89.771145	0.000000	-0.000000	-0.000000	-0.000000	-101.280620	-18.220440	6.851740	0.004089	0.981809	0.455870	-1.000000	-1.000000	-1.000000	-1.000000	-1.000000	-1.000000	-1.000000	138.620690	0.000000	-1.000000	-1.000000	645170.000000	1772919320.943296
-4072.995000	21824.190000	-21731.715000	-14526.450000	0.000000	0.000000	0.000000	0.000000	-22.156538	-3.253300	76.953944	8.070651	0.000000	-0.000000	-0.000000	-0.000000	-101.280620	-18.220440	6.851740	0.004089	0.981809	0.455870	-1.000000	-1.000000	-1.000000	-1.000000	-1.000000	-1.000000	-1.000000	138.620690	0.000000	-1.000000	-1.000000	645171.000000	1772919320.943298
-3875.985000	21854.250000	-21572.820000	-14387.895000	0.000000	0.000000	0.000000	0.000000	26.228903	50.304185	129.369202	103.197654	0.000000	-0.000000	-0.000000	-0.000000	-30.703120	-25.758880	40.591600	0.010986	1.053830	0.544554	-1.000000	-1.000000	-1.000000	-1.000000	-1.000000	-1.000000	-1.000000	138.620690	0.000000	-1.000000	-1.000000	645172.000000	1772919320.947204
-3964.455000	21834.855000	-21727.845000	-14533.245000	0.000000	0.000000	0.000000	0.000000	74.445516	98.335100	134.785976	149.968852	0.000000	-0.000000	-0.000000	-0.000000	-30.703120	-25.758880	40.591600	0.010986	1.053830	0.544554	-1.000000	-1.000000	-1.000000	-1.000000	-1.000000	-1.000000	-1.000000	138.620690	0.000000	-1.000000	-1.000000	645173.000000	1772919320.947208
-4211.145000	21699.360000	-21972.330000	-14777.190000	0.000000	0.000000	0.000000	0.000000	88.410187	104.036916	78.965647	115.952675	0.000000	-0.000000	-0.000000	-0.000000	-30.703120	-25.758880	40.591600	0.010986	1.053830	0.544554	-1.000000	-1.000000	-1.000000	-1.000000	-1.000000	-1.000000	-1.000000	138.620690	0.000000	-1.000000	-1.000000	645174.000000	1772919320.951360
-4226.895000	21401.280000	-21935.565000	-14828.670000	0.000000	0.000000	0.000000	0.000000	41.203045	51.903180	-29.272184	8.233005	0.000000	-0.000000	-0.000000	-0.000000	-30.703120	-25.758880	40.591600	0.010986	1.053830	0.544554	-1.000000	-1.000000	-1.000000	-1.000000	-1.000000	-1.000000	-1.000000	138.620690	0.000000	-1.000000	-1.000000	645175.000000	1772919320.951363
-4131.045000	21226.860000	-21844.530000	-14742.090000	0.000000	0.000000	0.000000	0.000000	-39.683904	-42.384268	-132.179190	-110.133144	0.000000	-0.000000	-0.000000	-0.000000	-30.703120	-25.758880	40.591600	0.010986	1.053830	0.544554	-1.000000	-1.000000	-1.000000	-1.000000	-1.000000	-1.000000	-1.000000	138.620690	0.000000	-1.000000	-1.000000	645176.000000	1772919320.955422
-3968.415000	21115.620000	-21783.510000	-14641.020000	0.000000	0.000000	0.000000	0.000000	-87.846095	-131.285635	-161.888838	-159.282776	0.000000	-0.000000	-0.000000	-0.000000	-30.703120	-25.758880	40.591600	0.010986	1.053830	0.544554	-1.000000	-1.000000	-1.000000	-1.000000	-1.000000	-1.000000	-1.000000	138.620690	0.000000	-1.000000	-1.000000	645177.000000	1772919320.955425
-3884.490000	21066.210000	-21742.020000	-14530.905000	0.000000	0.000000	0.000000	0.000000	-64.522308	-160.005412	-104.237510	-108.852403	0.000000	-0.000000	-0.000000	-0.000000	-30.703120	-25.758880	40.591600	0.010986	1.053830	0.544554	-1.000000	-1.000000	-1.000000	-1.000000	-1.000000	-1.000000	-1.000000	138.620690	0.000000	-1.000000	-1.000000	645178.000000	1772919320.962242
-3946.230000	21066.660000	-21733.470000	-14478.120000	0.000000	0.000000	0.000000	0.000000	5.502259	-106.369917	-4.785374	2.217266	0.000000	-0.000000	-0.000000	-0.000000	-30.703120	-25.758880	40.591600	0.010986	1.053830	0.544554	-1.000000	-1.000000	-1.000000	-1.000000	-1.000000	-1.000000	-1.000000	138.620690	0.000000	-1.000000	-1.000000	645179.000000	1772919320.962245
-3989.340000	21053.565000	-21717.765000	-14392.080000	0.000000	0.000000	0.000000	0.000000	61.123342	3.642305	75.535496	103.342128	0.000000	-0.000000	-0.000000	-0.000000	-30.703120	-25.758880	40.591600	0.010986	1.053830	0.544554	-1.000000	-1.000000	-1.000000	-1.000000	-1.000000	-1.000000	-1.000000	138.620690	0.000000	-1.000000	-1.000000	645180.000000	1772919320.973285
-3966.435000	21082.095000	-21824.730000	-14431.410000	0.000000	0.000000	0.000000	0.000000	63.008661	115.209081	99.756781	141.607958	0.000000	-0.000000	-0.000000	-0.000000	-30.703120	-25.758880	40.591600	0.010986	1.053830	0.544554	-1.000000	-1.000000	-1.000000	-1.000000	-1.000000	-1.000000	-1.000000	138.620690	0.000000	-1.000000	-1.000000	645181.000000	1772919320.973288
-3876.975000	21121.245000	-21834.990000	-14647.995000	0.000000	0.000000	0.000000	0.000000	23.426877	179.298002	66.791142	101.536570	0.000000	-0.000000	-0.000000	-0.000000	32.198600	-40.133800	100.609180	-0.053589	1.015928	0.553526	-1.000000	-1.000000	-1.000000	-1.000000	-1.000000	-1.000000	-1.000000	138.620690	0.000000	-1.000000	-1.000000	645182.000000	1772919320.973292
-4013.730000	21167.145000	-22030.470000	-14824.170000	0.000000	0.000000	0.000000	0.000000	-20.557986	176.759752	2.704311	1.366532	0.000000	-0.000000	-0.000000	-0.000000	32.198600	-40.133800	100.609180	-0.053589	1.015928	0.553526	-1.000000	-1.000000	-1.000000	-1.000000	-1.000000	-1.000000	-1.000000	138.620690	0.000000	-1.000000	-1.000000	645183.000000	1772919320.973295
-3999.825000	21119.580000	-22008.555000	-14786.190000	0.000000	0.000000	0.000000	0.000000	-47.685336	117.604981	-57.538464	-108.304764	0.000000	-0.000000	-0.000000	-0.000000	32.198600	-40.133800	100.609180	-0.053589	1.015928	0.553526	-1.000000	-1.000000	-1.000000	-1.000000	-1.000000	-1.000000	-1.000000	138.620690	0.000000	-1.000000	-1.000000	645184.000000	1772919320.973298
-3861.315000	21134.160000	-21815.370000	-14713.785000	0.000000	0.000000	0.000000	0.000000	-51.842214	27.742095	-79.643824	-160.785698	0.000000	-0.000000	-0.000000	-0.000000	32.198600	-40.133800	100.609180	-0.053589	1.015928	0.553526	-1.000000	-1.000000	-1.000000	-1.000000	-1.000000	-1.000000	-1.000000	138.620690	0.000000	-1.000000	-1.000000	645185.000000	1772919320.973301
-3847.185000	21159.405000	-21662.145000	-14642.505000	0.000000	0.000000	0.000000	0.000000	-28.815138	-59.700328	-41.615319	-120.096628	0.000000	-0.000000	-0.000000	-0.000000	32.198600	-40.133800	100.609180	-0.053589	1.015928	0.553526	-1.000000	-1.000000	-1.000000	-1.000000	-1.000000	-1.000000	-1.000000	138.620690	0.000000	-1.000000	-1.000000	645186.000000	1772919320.975621
-3892.500000	21155.175000	-21482.280000	-14511.240000	0.000000	0.000000	0.000000	0.000000	10.007415	-114.705074	41.777164	-10.546631	0.000000	-0.000000	-0.000000	-0.000000	32.198600	-40.133800	100.609180	-0.053589	1.015928	0.553526	-1.000000	-1.000000	-1.000000	-1.000000	-1.000000	-1.000000	-1.000000	138.620690	0.000000	-1.000000	-1.000000	645187.000000	1772919320.975623
-3944.970000	21219.840000	-21529.170000	-14631.615000	0.000000	0.000000	0.000000	0.000000	36.154996	-124.041131	118.012682	102.160448	0.000000	-0.000000	-0.000000	-0.000000	32.198600	-40.133800	100.609180	-0.053589	1.015928	0.553526	-1.000000	-1.000000	-1.000000	-1.000000	-1.000000	-1.000000	-1.000000	138.620690	0.000000	-1.000000	-1.000000	645188.000000	1772919320.979442
-4083.390000	21368.835000	-21738.735000	-14796.765000	0.000000	0.000000	0.000000	0.000000	29.825749	-91.644710	128.329123	150.370502	0.000000	-0.000000	-0.000000	-0.000000	32.198600	-40.133800	100.609180	-0.053589	1.015928	0.553526	-1.000000	-1.000000	-1.000000	-1.000000	-1.000000	-1.000000	-1.000000	138.620690	0.000000	-1.000000	-1.000000	645189.000000	1772919320.979445
-3945.600000	21430.485000	-21602.700000	-14567.580000	0.000000	0.000000	0.000000	0.000000	-0.749734	-32.830269	54.738748	112.500492	0.000000	-0.000000	-0.000000	-0.000000	32.198600	-40.133800	100.609180	-0.053589	1.015928	0.553526	-1.000000	-1.000000	-1.000000	-1.000000	-1.000000	-1.000000	-1.000000	138.620690	0.000000	-1.000000	-1.000000	645190.000000	1772919320.983452
-3983.265000	21437.235000	-21889.620000	-14667.210000	0.000000	0.000000	0.000000	0.000000	-24.959709	25.115763	-58.924210	31.931293	0.000000	-0.000000	-0.000000	-0.000000	32.198600	-40.133800	100.609180	-0.053589	1.015928	0.553526	-1.000000	-1.000000	-1.000000	-1.000000	-1.000000	-1.000000	-1.000000	138.620690	0.000000	-1.000000	-1.000000	645191.000000	1772919320.983455
-3969.990000	21463.290000	-22164.930000	-14777.685000	0.000000	0.000000	0.000000	0.000000	-21.729838	53.094299	-154.159735	-37.428114	0.000000	-0.000000	-0.000000	-0.000000	-62.886460	-61.635140	147.548940	-0.067077	0.988157	0.541380	-1.000000	-1.000000	-1.000000	-1.000000	-1.000000	-1.000000	-1.000000	138.620690	0.000000	-1.000000	-1.000000	645192.000000	1772919320.987512
-4135.680000	21481.605000	-22155.165000	-14910.165000	0.000000	0.000000	0.000000	0.000000	-1.638423	41.773045	-197.154393	-79.266506	0.000000	-0.000000	-0.000000	-0.000000	-62.886460	-61.635140	147.548940	-0.067077	0.988157	0.541380	-1.000000	-1.000000	-1.000000	-1.000000	-1.000000	-1.000000	-1.000000	138.620690	0.000000	-1.000000	-1.000000	645193.000000	1772919320.987515
-4256.730000	21443.535000	-22196.430000	-14906.565000	0.000000	0.000000	0.000000	0.000000	8.610001	5.545763	-167.109288	-95.340129	0.000000	-0.000000	-0.000000	-0.000000	-62.886460	-61.635140	147.548940	-0.067077	0.988157	0.541380	-1.000000	-1.000000	-1.000000	-1.000000	-1.000000	-1.000000	-1.000000	138.620690	0.000000	-1.000000	-1.000000	645194.000000	1772919320.991471
-4151.565000	21396.060000	-21925.080000	-14655.690000	0.000000	0.000000	0.000000	0.000000	-0.041136	-33.784003	-60.569562	-76.860059	0.000000	-0.000000	-0.000000	-0.000000	-62.886460	-61.635140	147.548940	-0.067077	0.988157	0.541380	-1.000000	-1.000000	-1.000000	-1.000000	-1.000000	-1.000000	-1.000000	138.620690	0.000000	-1.000000	-1.000000	645195.000000	1772919320.991473
-4141.395000	21460.185000	-22162.320000	-14675.670000	0.000000	0.000000	0.000000	0.000000	-7.033969	-57.730044	85.034919	-16.318100	0.000000	-0.000000	-0.000000	-0.000000	-62.886460	-61.635140	147.548940	-0.067077	0.988157	0.541380	-1.000000	-1.000000	-1.000000	-1.000000	-1.000000	-1.000000	-1.000000	138.620690	0.000000	-1.000000	-1.000000	645196.000000	1772919320.995568
-4290.750000	21478.635000	-22315.455000	-14739.030000	0.000000	0.000000	0.000000	0.000000	3.974595	-53.464923	192.567713	59.205709	0.000000	-0.000000	-0.000000	-0.000000	-62.886460	-61.635140	147.548940	-0.067077	0.988157	0.541380	-1.000000	-1.000000	-1.000000	-1.000000	-1.000000	-1.000000	-1.000000	138.620690	0.000000	-1.000000	-1.000000	645197.000000	1772919320.995570
-4263.840000	21497.445000	-22166.730000	-14717.520000	0.000000	0.000000	0.000000	0.000000	20.444886	-22.044728	203.485595	99.566999	0.000000	-0.000000	-0.000000	-0.000000	-62.886460	-61.635140	147.548940	-0.067077	0.988157	0.541380	-1.000000	-1.000000	-1.000000	-1.000000	-1.000000	-1.000000	-1.000000	138.620690	0.000000	-1.000000	-1.000000	645198.000000	1772919320.999446
-4323.735000	21459.060000	-22249.530000	-14868.855000	0.000000	0.000000	0.000000	0.000000	25.892019	17.849188	134.172154	80.476456	0.000000	-0.000000	-0.000000	-0.000000	-62.886460	-61.635140	147.548940	-0.067077	0.988157	0.541380	-1.000000	-1.000000	-1.000000	-1.000000	-1.000000	-1.000000	-1.000000	138.620690	0.000000	-1.000000	-1.000000	645199.000000	1772919320.999449
-4380.930000	21293.460000	-22221.360000	-14856.255000	0.000000	0.000000	0.000000	0.000000	18.871140	40.476527	41.996804	18.319093	0.000000	-0.000000	-0.000000	-0.000000	-62.886460	-61.635140	147.548940	-0.067077	0.988157	0.541380	-1.000000	-1.000000	-1.000000	-1.000000	-1.000000	-1.000000	-1.000000	138.620690	0.000000	-1.000000	-1.000000	645200.000000	1772919321.003521
-4299.030000	21319.785000	-22013.955000	-14711.805000	0.000000	0.000000	0.000000	0.000000	7.066658	32.148441	-27.180109	-44.240504	0.000000	-0.000000	-0.000000	-0.000000	-62.886460	-61.635140	147.548940	-0.067077	0.988157	0.541380	-1.000000	-1.000000	-1.000000	-1.000000	-1.000000	-1.000000	-1.000000	138.620690	0.000000	-1.000000	-1.000000	645201.000000	1772919321.003523
-4402.170000	21336.390000	-22035.465000	-14739.390000	0.000000	0.000000	0.000000	0.000000	0.077991	6.858324	-51.403947	-65.876819	0.000000	-0.000000	-0.000000	-0.000000	-174.604920	-48.923560	120.004640	0.002625	1.088193	0.503661	-1.000000	-1.000000	-1.000000	-1.000000	-1.000000	-1.000000	-1.000000	138.620690	0.000000	-1.000000	-1.000000	645202.000000	1772919321.007517
-4486.455000	21319.965000	-22019.175000	-14718.870000	0.000000	0.000000	0.000000	0.000000	-2.481787	-7.893803	-41.642959	-42.041429	0.000000	-0.000000	-0.000000	-0.000000	-174.604920	-48.923560	120.004640	0.002625	1.088193	0.503661	-1.000000	-1.000000	-1.000000	-1.000000	-1.000000	-1.000000	-1.000000	138.620690	0.000000	-1.000000	-1.000000	645203.000000	1772919321.007520
-4188.960000	21309.390000	-21719.070000	-14527.980000	0.000000	0.000000	0.000000	0.000000	-3.212521	-1.709769	-23.954042	0.971218	0.000000	-0.000000	-0.000000	-0.000000	-174.604920	-48.923560	120.004640	0.002625	1.088193	0.503661	-1.000000	-1.000000	-1.000000	-1.000000	-1.000000	-1.000000	-1.000000	138.620690	0.000000	-1.000000	-1.000000	645204.000000	1772919321.011592
-4392.990000	21226.860000	-21880.440000	-14567.400000	0.000000	0.000000	0.000000	0.000000	5.066674	13.442682	-10.835364	38.502040	0.000000	-0.000000	-0.000000	-0.000000	-174.604920	-48.923560	120.004640	0.002625	1.088193	0.503661	-1.000000	-1.000000	-1.000000	-1.000000	-1.000000	-1.000000	-1.000000	138.620690	0.000000	-1.000000	-1.000000	645205.000000	1772919321.011596
-4457.340000	21152.835000	-22119.075000	-14628.735000	0.000000	0.000000	0.000000	0.000000	14.612797	19.580535	-16.975083	51.251682	0.000000	-0.000000	-0.000000	-0.000000	-174.604920	-48.923560	120.004640	0.002625	1.088193	0.503661	-1.000000	-1.000000	-1.000000	-1.000000	-1.000000	-1.000000	-1.000000	138.620690	0.000000	-1.000000	-1.000000	645206.000000	1772919321.015518
-4437.225000	21092.760000	-22225.590000	-14707.530000	0.000000	0.000000	0.000000	0.000000	5.649103	9.186190	-58.162023	26.432187	0.000000	-0.000000	-0.000000	-0.000000	-174.604920	-48.923560	120.004640	0.002625	1.088193	0.503661	-1.000000	-1.000000	-1.000000	-1.000000	-1.000000	-1.000000	-1.000000	138.620690	0.000000	-1.000000	-1.000000	645207.000000	1772919321.015520
-4616.640000	21136.635000	-22392.720000	-14876.820000	0.000000	0.000000	0.000000	0.000000	-20.060900	-7.779349	-115.057948	-27.544919	0.000000	-0.000000	-0.000000	-0.000000	-174.604920	-48.923560	120.004640	0.002625	1.088193	0.503661	-1.000000	-1.000000	-1.000000	-1.000000	-1.000000	-1.000000	-1.000000	138.620690	0.000000	-1.000000	-1.000000	645208.000000	1772919321.019551
-4528.080000	21237.930000	-22134.150000	-14765.490000	0.000000	0.000000	0.000000	0.000000	-43.796206	-11.544385	-136.214151	-79.963724	0.000000	-0.000000	-0.000000	-0.000000	-174.604920	-48.923560	120.004640	0.002625	1.088193	0.503661	-1.000000	-1.000000	-1.000000	-1.000000	-1.000000	-1.000000	-1.000000	138.620690	0.000000	-1.000000	-1.000000	645209.000000	1772919321.019554
-4492.755000	21251.610000	-22010.175000	-14689.395000	0.000000	0.000000	0.000000	0.000000	-45.670162	7.712367	-79.588720	-91.825853	0.000000	-0.000000	-0.000000	-0.000000	-174.604920	-48.923560	120.004640	0.002625	1.088193	0.503661	-1.000000	-1.000000	-1.000000	-1.000000	-1.000000	-1.000000	-1.000000	138.620690	0.000000	-1.000000	-1.000000	645210.000000	1772919321.026483
-4330.620000	21285.900000	-21897.720000	-14551.740000	0.000000	0.000000	0.000000	0.000000	-14.438538	36.486594	43.842059	-44.557893	0.000000	-0.000000	-0.000000	-0.000000	-174.604920	-48.923560	120.004640	0.002625	1.088193	0.503661	-1.000000	-1.000000	-1.000000	-1.000000	-1.000000	-1.000000	-1.000000	138.620690	0.000000	-1.000000	-1.000000	645211.000000	1772919321.026486
-4070.295000	21355.335000	-21684.105000	-14344.155000	0.000000	0.000000	0.000000	0.000000	42.589371	51.559803	168.984392	41.158156	0.000000	-0.000000	-0.000000	-0.000000	-365.110760	-29.344980	37.020760	0.041260	1.046811	0.447448	-1.000000	-1.000000	-1.000000	-1.000000	-1.000000	-1.000000	-1.000000	138.620690	0.000000	-1.000000	-1.000000	645212.000000	1772919321.027601
-4199.355000	21456.090000	-21709.485000	-14283.720000	0.000000	0.000000	0.000000	0.000000	97.092396	43.846364	227.488487	120.126249	0.000000	-0.000000	-0.000000	-0.000000	-365.110760	-29.344980	37.020760	0.041260	1.046811	0.447448	-1.000000	-1.000000	-1.000000	-1.000000	-1.000000	-1.000000	-1.000000	138.620690	0.000000	-1.000000	-1.000000	645213.000000	1772919321.027604
-4377.420000	21465.450000	-21848.580000	-14404.095000	0.000000	0.000000	0.000000	0.000000	103.398180	20.276203	185.212823	145.073292	0.000000	-0.000000	-0.000000	-0.000000	-365.110760	-29.344980	37.020760	0.041260	1.046811	0.447448	-1.000000	-1.000000	-1.000000	-1.000000	-1.000000	-1.000000	-1.000000	138.620690	0.000000	-1.000000	-1.000000	645214.000000	1772919321.031612
-4436.640000	21389.805000	-21980.070000	-14752.035000	0.000000	0.000000	0.000000	0.000000	35.755629	-11.823670	53.393819	85.899956	0.000000	-0.000000	-0.000000	-0.000000	-365.110760	-29.344980	37.020760	0.041260	1.046811	0.447448	-1.000000	-1.000000	-1.000000	-1.000000	-1.000000	-1.000000	-1.000000	138.620690	0.000000	-1.000000	-1.000000	645215.000000	1772919321.031615
-4400.955000	21341.430000	-22038.525000	-14834.655000	0.000000	0.000000	0.000000	0.000000	-69.842579	-49.317302	-108.710177	-43.081010	0.000000	-0.000000	-0.000000	-0.000000	-365.110760	-29.344980	37.020760	0.041260	1.046811	0.447448	-1.000000	-1.000000	-1.000000	-1.000000	-1.000000	-1.000000	-1.000000	138.620690	0.000000	-1.000000	-1.000000	645216.000000	1772919321.035519
-4359.465000	21411.135000	-21998.475000	-14732.145000	0.000000	0.000000	0.000000	0.000000	-140.868449	-80.911037	-219.729080	-168.856111	0.000000	-0.000000	-0.000000	-0.000000	-365.110760	-29.344980	37.020760	0.041260	1.046811	0.447448	-1.000000	-1.000000	-1.000000	-1.000000	-1.000000	-1.000000	-1.000000	138.620690	0.000000	-1.000000	-1.000000	645217.000000	1772919321.035522
-4423.815000	21518.595000	-22018.005000	-14776.020000	0.000000	0.000000	0.000000	0.000000	-134.866742	-84.438357	-226.195072	-205.470722	0.000000	-0.000000	-0.000000	-0.000000	-365.110760	-29.344980	37.020760	0.041260	1.046811	0.447448	-1.000000	-1.000000	-1.000000	-1.000000	-1.000000	-1.000000	-1.000000	138.620690	0.000000	-1.000000	-1.000000	645218.000000	1772919321.039625
-4390.245000	21505.050000	-21990.240000	-14658.030000	0.000000	0.000000	0.000000	0.000000	-67.664237	-49.412250	-135.659640	-129.076088	0.000000	-0.000000	-0.000000	-0.000000	-365.110760	-29.344980	37.020760	0.041260	1.046811	0.447448	-1.000000	-1.000000	-1.000000	-1.000000	-1.000000	-1.000000	-1.000000	138.620690	0.000000	-1.000000	-1.000000	645219.000000	1772919321.039627
-3944.970000	21483.540000	-21522.510000	-14211.225000	0.000000	0.000000	0.000000	0.000000	23.152098	4.107670	4.297330	17.789889	0.000000	-0.000000	-0.000000	-0.000000	-365.110760	-29.344980	37.020760	0.041260	1.046811	0.447448	-1.000000	-1.000000	-1.000000	-1.000000	-1.000000	-1.000000	-1.000000	138.620690	0.000000	-1.000000	-1.000000	645220.000000	1772919321.043851
-3920.895000	21545.280000	-21491.415000	-14348.205000	0.000000	0.000000	0.000000	0.000000	112.091139	43.620815	143.669462	166.957184	0.000000	-0.000000	-0.000000	-0.000000	-365.110760	-29.344980	37.020760	0.041260	1.046811	0.447448	-1.000000	-1.000000	-1.000000	-1.000000	-1.000000	-1.000000	-1.000000	138.620690	0.000000	-1.000000	-1.000000	645221.000000	1772919321.043853
-4300.470000	21505.680000	-21768.615000	-14713.470000	0.000000	0.000000	0.000000	0.000000	159.250161	53.903108	222.574806	234.310035	0.000000	-0.000000	-0.000000	-0.000000	-271.460140	-15.107400	26.247200	0.052551	0.859373	0.395080	-1.000000	-1.000000	-1.000000	-1.000000	-1.000000	-1.000000	-1.000000	138.620690	0.000000	-1.000000	-1.000000	645222.000000	1772919321.047716
-4341.600000	21471.480000	-21724.020000	-14743.845000	0.000000	0.000000	0.000000	0.000000	114.218698	38.565424	186.467897	163.102098	0.000000	-0.000000	-0.000000	-0.000000	-271.460140	-15.107400	26.247200	0.052551	0.859373	0.395080	-1.000000	-1.000000	-1.000000	-1.000000	-1.000000	-1.000000	-1.000000	138.620690	0.000000	-1.000000	-1.000000	645223.000000	1772919321.047719
-4469.355000	21507.930000	-21883.230000	-14792.625000	0.000000	0.000000	0.000000	0.000000	-11.427556	10.146572	50.767798	-3.375403	0.000000	-0.000000	-0.000000	-0.000000	-271.460140	-15.107400	26.247200	0.052551	0.859373	0.395080	-1.000000	-1.000000	-1.000000	-1.000000	-1.000000	-1.000000	-1.000000	138.620690	0.000000	-1.000000	-1.000000	645224.000000	1772919321.051562
-4572.225000	21510.180000	-22423.005000	-14927.805000	0.000000	0.000000	0.000000	0.000000	-137.397458	-13.869912	-111.170300	-153.287560	0.000000	-0.000000	-0.000000	-0.000000	-271.460140	-15.107400	26.247200	0.052551	0.859373	0.395080	-1.000000	-1.000000	-1.000000	-1.000000	-1.000000	-1.000000	-1.000000	138.620690	0.000000	-1.000000	-1.000000	645225.000000	1772919321.051565
-4549.140000	21457.125000	-22476.330000	-14952.960000	0.000000	0.000000	0.000000	0.000000	-188.574433	-22.398486	-233.355935	-207.459766	0.000000	-0.000000	-0.000000	-0.000000	-271.460140	-15.107400	26.247200	0.052551	0.859373	0.395080	-1.000000	-1.000000	-1.000000	-1.000000	-1.000000	-1.000000	-1.000000	138.620690	0.000000	-1.000000	-1.000000	645226.000000	1772919321.057524
-4408.695000	21387.870000	-22210.020000	-14713.380000	0.000000	0.000000	0.000000	0.000000	-139.455610	-19.741817	-258.843471	-153.368332	0.000000	-0.000000	-0.000000	-0.000000	-271.460140	-15.107400	26.247200	0.052551	0.859373	0.395080	-1.000000	-1.000000	-1.000000	-1.000000	-1.000000	-1.000000	-1.000000	138.620690	0.000000	-1.000000	-1.000000	645227.000000	1772919321.057527
-4347.630000	21396.690000	-22150.620000	-14630.175000	0.000000	0.000000	0.000000	0.000000	-16.303225	-15.133915	-150.069062	-23.358959	0.000000	-0.000000	-0.000000	-0.000000	-271.460140	-15.107400	26.247200	0.052551	0.859373	0.395080	-1.000000	-1.000000	-1.000000	-1.000000	-1.000000	-1.000000	-1.000000	138.620690	0.000000	-1.000000	-1.000000	645228.000000	1772919321.060342
-4156.785000	21434.085000	-21800.745000	-14476.995000	0.000000	0.000000	0.000000	0.000000	119.085840	-8.515844	56.309156	119.802777	0.000000	-0.000000	-0.000000	-0.000000	-271.460140	-15.107400	26.247200	0.052551	0.859373	0.395080	-1.000000	-1.000000	-1.000000	-1.000000	-1.000000	-1.000000	-1.000000	138.620690	0.000000	-1.000000	-1.000000	645229.000000	1772919321.060350
-4132.260000	21496.365000	-21793.230000	-14500.080000	0.000000	0.000000	0.000000	0.000000	203.545320	6.378840	256.531835	205.543697	0.000000	-0.000000	-0.000000	-0.000000	-271.460140	-15.107400	26.247200	0.052551	0.859373	0.395080	-1.000000	-1.000000	-1.000000	-1.000000	-1.000000	-1.000000	-1.000000	138.620690	0.000000	-1.000000	-1.000000	645230.000000	1772919321.063590
-4100.940000	21592.710000	-21765.105000	-14431.815000	0.000000	0.000000	0.000000	0.000000	201.719216	29.957947	345.619722	194.149241	0.000000	-0.000000	-0.000000	-0.000000	-271.460140	-15.107400	26.247200	0.052551	0.859373	0.395080	-1.000000	-1.000000	-1.000000	-1.000000	-1.000000	-1.000000	-1.000000	138.620690	0.000000	-1.000000	-1.000000	645231.000000	1772919321.063593
-4060.485000	21671.460000	-21795.165000	-14370.120000	0.000000	0.000000	0.000000	0.000000	118.784035	53.306849	278.000944	100.047659	0.000000	-0.000000	-0.000000	-0.000000	-180.831000	-20.341580	3.784480	0.118713	0.628538	0.447692	-1.000000	-1.000000	-1.000000	-1.000000	-1.000000	-1.000000	-1.000000	138.620690	0.000000	-1.000000	-1.000000	645232.000000	1772919321.069759
-4274.055000	21665.115000	-21931.200000	-14573.205000	0.000000	0.000000	0.000000	0.000000	-6.810042	62.046514	91.866419	-26.011216	0.000000	-0.000000	-0.000000	-0.000000	-180.831000	-20.341580	3.784480	0.118713	0.628538	0.447692	-1.000000	-1.000000	-1.000000	-1.000000	-1.000000	-1.000000	-1.000000	138.620690	0.000000	-1.000000	-1.000000	645233.000000	1772919321.069761
-4246.245000	21480.390000	-21829.860000	-14708.565000	0.000000	0.000000	0.000000	0.000000	-127.013843	40.873185	-118.780262	-137.945895	0.000000	-0.000000	-0.000000	-0.000000	-180.831000	-20.341580	3.784480	0.118713	0.628538	0.447692	-1.000000	-1.000000	-1.000000	-1.000000	-1.000000	-1.000000	-1.000000	138.620690	0.000000	-1.000000	-1.000000	645234.000000	1772919321.072903
-4108.995000	21337.245000	-21559.545000	-14668.155000	0.000000	0.000000	0.000000	0.000000	-194.142210	-15.790509	-251.539531	-203.336933	0.000000	-0.000000	-0.000000	-0.000000	-180.831000	-20.341580	3.784480	0.118713	0.628538	0.447692	-1.000000	-1.000000	-1.000000	-1.000000	-1.000000	-1.000000	-1.000000	138.620690	0.000000	-1.000000	-1.000000	645235.000000	1772919321.072906
-4118.715000	21282.435000	-21358.215000	-14579.505000	0.000000	0.000000	0.000000	0.000000	-176.283981	-87.202037	-246.266469	-194.009406	0.000000	-0.000000	-0.000000	-0.000000	-180.831000	-20.341580	3.784480	0.118713	0.628538	0.447692	-1.000000	-1.000000	-1.000000	-1.000000	-1.000000	-1.000000	-1.000000	138.620690	0.000000	-1.000000	-1.000000	645236.000000	1772919321.075753
-4204.890000	21223.755000	-21459.195000	-14601.465000	0.000000	0.000000	0.000000	0.000000	-90.667543	-130.781975	-129.850110	-107.187942	0.000000	-0.000000	-0.000000	-0.000000	-180.831000	-20.341580	3.784480	0.118713	0.628538	0.447692	-1.000000	-1.000000	-1.000000	-1.000000	-1.000000	-1.000000	-1.000000	138.620690	0.000000	-1.000000	-1.000000	645237.000000	1772919321.075755
-4159.215000	21107.655000	-21729.690000	-14705.640000	0.000000	0.000000	0.000000	0.000000	6.411324	-117.479234	-2.952630	13.205418	0.000000	-0.000000	-0.000000	-0.000000	-180.831000	-20.341580	3.784480	0.118713	0.628538	0.447692	-1.000000	-1.000000	-1.000000	-1.000000	-1.000000	-1.000000	-1.000000	138.620690	0.000000	-1.000000	-1.000000	645238.000000	1772919321.079814
-4192.380000	21069.720000	-22227.705000	-14664.375000	0.000000	0.000000	0.000000	0.000000	70.338532	-55.657593	37.456414	104.749850	0.000000	-0.000000	-0.000000	-0.000000	-180.831000	-20.341580	3.784480	0.118713	0.628538	0.447692	-1.000000	-1.000000	-1.000000	-1.000000	-1.000000	-1.000000	-1.000000	138.620690	0.000000	-1.000000	-1.000000	645239.000000	1772919321.079816
-4185.990000	21032.460000	-22107.195000	-14619.600000	0.000000	0.000000	0.000000	0.000000	89.918970	23.123453	-20.407020	136.804614	0.000000	-0.000000	-0.000000	-0.000000	-180.831000	-20.341580	3.784480	0.118713	0.628538	0.447692	-1.000000	-1.000000	-1.000000	-1.000000	-1.000000	-1.000000	-1.000000	138.620690	0.000000	-1.000000	-1.000000	645240.000000	1772919321.083696
-4203.135000	21046.635000	-21968.820000	-14648.085000	0.000000	0.000000	0.000000	0.000000	75.357215	88.807478	-88.265057	119.188889	0.000000	-0.000000	-0.000000	-0.000000	-180.831000	-20.341580	3.784480	0.118713	0.628538	0.447692	-1.000000	-1.000000	-1.000000	-1.000000	-1.000000	-1.000000	-1.000000	138.620690	0.000000	-1.000000	-1.000000	645241.000000	1772919321.083699
-4088.070000	21031.695000	-21871.080000	-14552.955000	0.000000	0.000000	0.000000	0.000000	46.510832	123.432213	-68.037510	75.960563	0.000000	-0.000000	-0.000000	-0.000000	-36.395100	-25.316340	-2.945180	0.171142	0.504515	0.560179	-1.000000	-1.000000	-1.000000	-1.000000	-1.000000	-1.000000	-1.000000	138.620690	0.000000	-1.000000	-1.000000	645242.000000	1772919321.087704
-4085.505000	21027.690000	-21832.110000	-14465.385000	0.000000	0.000000	0.000000	0.000000	23.021325	121.309391	44.942138	30.846304	0.000000	-0.000000	-0.000000	-0.000000	-36.395100	-25.316340	-2.945180	0.171142	0.504515	0.560179	-1.000000	-1.000000	-1.000000	-1.000000	-1.000000	-1.000000	-1.000000	138.620690	0.000000	-1.000000	-1.000000	645243.000000	1772919321.087707
-4096.890000	21030.660000	-21842.640000	-14549.085000	0.000000	0.000000	0.000000	0.000000	10.471399	87.711347	169.256454	-2.231292	0.000000	-0.000000	-0.000000	-0.000000	-36.395100	-25.316340	-2.945180	0.171142	0.504515	0.560179	-1.000000	-1.000000	-1.000000	-1.000000	-1.000000	-1.000000	-1.000000	138.620690	0.000000	-1.000000	-1.000000	645244.000000	1772919321.091687
-3945.285000	21035.880000	-21690.945000	-14428.350000	0.000000	0.000000	0.000000	0.000000	2.807138	37.137780	223.198843	-25.090963	0.000000	-0.000000	-0.000000	-0.000000	-36.395100	-25.316340	-2.945180	0.171142	0.504515	0.560179	-1.000000	-1.000000	-1.000000	-1.000000	-1.000000	-1.000000	-1.000000	138.620690	0.000000	-1.000000	-1.000000	645245.000000	1772919321.091689
-4108.770000	21077.325000	-21823.965000	-14469.300000	0.000000	0.000000	0.000000	0.000000	-5.014049	-11.949126	182.440607	-41.296623	0.000000	-0.000000	-0.000000	-0.000000	-36.395100	-25.316340	-2.945180	0.171142	0.504515	0.560179	-1.000000	-1.000000	-1.000000	-1.000000	-1.000000	-1.000000	-1.000000	138.620690	0.000000	-1.000000	-1.000000	645246.000000	1772919321.095825
-4226.985000	21102.075000	-21943.350000	-14673.780000	0.000000	0.000000	0.000000	0.000000	-21.160165	-44.540817	70.742730	-53.538279	0.000000	-0.000000	-0.000000	-0.000000	-36.395100	-25.316340	-2.945180	0.171142	0.504515	0.560179	-1.000000	-1.000000	-1.000000	-1.000000	-1.000000	-1.000000	-1.000000	138.620690	0.000000	-1.000000	-1.000000	645247.000000	1772919321.095827
-4107.150000	21159.585000	-21793.140000	-14556.105000	0.000000	0.000000	0.000000	0.000000	-47.263187	-54.779992	-61.682044	-65.774397	0.000000	-0.000000	-0.000000	-0.000000	-36.395100	-25.316340	-2.945180	0.171142	0.504515	0.560179	-1.000000	-1.000000	-1.000000	-1.000000	-1.000000	-1.000000	-1.000000	138.620690	0.000000	-1.000000	-1.000000	645248.000000	1772919321.099754
-4275.990000	21193.920000	-21942.720000	-14752.395000	0.000000	0.000000	0.000000	0.000000	-64.192772	-46.539355	-153.905307	-70.297326	0.000000	-0.000000	-0.000000	-0.000000	-36.395100	-25.316340	-2.945180	0.171142	0.504515	0.560179	-1.000000	-1.000000	-1.000000	-1.000000	-1.000000	-1.000000	-1.000000	138.620690	0.000000	-1.000000	-1.000000	645249.000000	1772919321.099757
-4429.890000	21254.760000	-22113.495000	-14928.165000	0.000000	0.000000	0.000000	0.000000	-59.620828	-29.180899	-176.607646	-60.275175	0.000000	-0.000000	-0.000000	-0.000000	-36.395100	-25.316340	-2.945180	0.171142	0.504515	0.560179	-1.000000	-1.000000	-1.000000	-1.000000	-1.000000	-1.000000	-1.000000	138.620690	0.000000	-1.000000	-1.000000	645250.000000	1772919321.103753
-4453.920000	21274.605000	-22188.105000	-14917.320000	0.000000	0.000000	0.000000	0.000000	-42.239307	-12.485816	-146.808350	-40.968594	0.000000	-0.000000	-0.000000	-0.000000	-36.395100	-25.316340	-2.945180	0.171142	0.504515	0.560179	-1.000000	-1.000000	-1.000000	-1.000000	-1.000000	-1.000000	-1.000000	138.620690	0.000000	-1.000000	-1.000000	645251.000000	1772919321.103763
-4249.980000	21187.215000	-21982.680000	-14764.095000	0.000000	0.000000	0.000000	0.000000	-13.019858	-5.373446	-85.714518	-8.133050	0.000000	-0.000000	-0.000000	-0.000000	23.469880	-9.156000	26.964420	0.170471	0.532103	0.613829	-1.000000	-1.000000	-1.000000	-1.000000	-1.000000	-1.000000	-1.000000	138.620690	0.000000	-1.000000	-1.000000	645252.000000	1772919321.107733
-4060.530000	21115.710000	-21696.885000	-14485.950000	0.000000	0.000000	0.000000	0.000000	40.108099	-14.477108	5.212167	51.740220	0.000000	-0.000000	-0.000000	-0.000000	23.469880	-9.156000	26.964420	0.170471	0.532103	0.613829	-1.000000	-1.000000	-1.000000	-1.000000	-1.000000	-1.000000	-1.000000	138.620690	0.000000	-1.000000	-1.000000	645253.000000	1772919321.107735
-4069.620000	21116.610000	-21647.205000	-14398.515000	0.000000	0.000000	0.000000	0.000000	107.916645	-34.775763	113.991224	129.949658	0.000000	-0.000000	-0.000000	-0.000000	23.469880	-9.156000	26.964420	0.170471	0.532103	0.613829	-1.000000	-1.000000	-1.000000	-1.000000	-1.000000	-1.000000	-1.000000	138.620690	0.000000	-1.000000	-1.000000	645254.000000	1772919321.111861
-4061.340000	21156.480000	-21592.305000	-14417.910000	0.000000	0.000000	0.000000	0.000000	147.209535	-46.384209	192.280248	181.494964	0.000000	-0.000000	-0.000000	-0.000000	23.469880	-9.156000	26.964420	0.170471	0.532103	0.613829	-1.000000	-1.000000	-1.000000	-1.000000	-1.000000	-1.000000	-1.000000	138.620690	0.000000	-1.000000	-1.000000	645255.000000	1772919321.111864
