Channel1	Channel2	Channel3	Channel4	Channel5	Channel6	Channel7	Channel8	FilteredChannel1	FilteredChannel2	FilteredChannel3	FilteredChannel4	FilteredChannel5	FilteredChannel6	FilteredChannel7	FilteredChannel8	GyroX	GyroY	GyroZ	AccX	AccY	AccZ	PPG1	PPG2	rawPPG1	rawPPG2	rawPPG3	Hr	Hrv	Battery	Trigger	PhysicalTrigger	AutoTrigger	NumMeasurements	Timestamp
-4043.745000	21736.035000	-18910.305000	-14714.505000	0.000000	0.000000	0.000000	0.000000	-18.759661	-107.743404	-32.457550	-44.386694	-0.000000	0.000000	-0.000000	-0.000000	5.524120	0.259420	-1.373400	-0.018311	0.753294	0.657835	-1.000000	-1.000000	-1.000000	-1.000000	-1.000000	-1.000000	-1.000000	138.965517	0.000000	-1.000000	-1.000000	463883.000000	1772918957.317304
-3987.135000	21783.105000	-18837.405000	-14623.605000	0.000000	0.000000	0.000000	0.000000	37.031973	-91.313949	46.170275	44.330108	-0.000000	0.000000	-0.000000	-0.000000	5.524120	0.259420	-1.373400	-0.018311	0.753294	0.657835	-1.000000	-1.000000	-1.000000	-1.000000	-1.000000	-1.000000	-1.000000	138.965517	0.000000	-1.000000	-1.000000	463884.000000	1772918957.317307
-4007.025000	21814.965000	-18872.145000	-14659.515000	0.000000	0.000000	0.000000	0.000000	74.236654	-29.865232	100.213562	109.561477	-0.000000	0.000000	-0.000000	-0.000000	5.524120	0.259420	-1.373400	-0.018311	0.753294	0.657835	-1.000000	-1.000000	-1.000000	-1.000000	-1.000000	-1.000000	-1.000000	138.965517	0.000000	-1.000000	-1.000000	463885.000000	1772918957.321485
-4053.015000	21855.780000	-18932.310000	-14726.565000	0.000000	0.000000	0.000000	0.000000	73.099375	44.331870	100.406356	115.788256	-0.000000	0.000000	-0.000000	-0.000000	5.524120	0.259420	-1.373400	-0.018311	0.753294	0.657835	-1.000000	-1.000000	-1.000000	-1.000000	-1.000000	-1.000000	-1.000000	138.965517	0.000000	-1.000000	-1.000000	463886.000000	1772918957.321488
-4129.335000	21900.960000	-19037.295000	-14839.425000	0.000000	0.000000	0.000000	0.000000	32.946072	95.061946	45.634465	58.442288	-0.000000	0.000000	-0.000000	-0.000000	5.524120	0.259420	-1.373400	-0.018311	0.753294	0.657835	-1.000000	-1.000000	-1.000000	-1.000000	-1.000000	-1.000000	-1.000000	138.965517	0.000000	-1.000000	-1.000000	463887.000000	1772918957.325611
-4208.490000	21929.895000	-19138.815000	-14958.360000	0.000000	0.000000	0.000000	0.000000	-26.527865	103.489338	-35.828183	-32.604790	-0.000000	0.000000	-0.000000	-0.000000	5.524120	0.259420	-1.373400	-0.018311	0.753294	0.657835	-1.000000	-1.000000	-1.000000	-1.000000	-1.000000	-1.000000	-1.000000	138.965517	0.000000	-1.000000	-1.000000	463888.000000	1772918957.325614
-4195.665000	21961.755000	-19109.880000	-14933.160000	0.000000	0.000000	0.000000	0.000000	-74.906642	73.043764	-101.195828	-109.211805	-0.000000	0.000000	-0.000000	-0.000000	5.524120	0.259420	-1.373400	-0.018311	0.753294	0.657835	-1.000000	-1.000000	-1.000000	-1.000000	-1.000000	-1.000000	-1.000000	138.965517	0.000000	-1.000000	-1.000000	463889.000000	1772918957.330451
-4158.495000	21972.960000	-19056.510000	-14873.220000	0.000000	0.000000	0.000000	0.000000	-85.532151	21.890038	-113.957836	-128.754175	-0.000000	0.000000	-0.000000	-0.000000	5.524120	0.259420	-1.373400	-0.018311	0.753294	0.657835	-1.000000	-1.000000	-1.000000	-1.000000	-1.000000	-1.000000	-1.000000	138.965517	0.000000	-1.000000	-1.000000	463890.000000	1772918957.330454
-4099.365000	21990.780000	-18972.630000	-14782.815000	0.000000	0.000000	0.000000	0.000000	-50.927197	-28.267788	-65.232418	-78.606474	-0.000000	0.000000	-0.000000	-0.000000	5.524120	0.259420	-1.373400	-0.018311	0.753294	0.657835	-1.000000	-1.000000	-1.000000	-1.000000	-1.000000	-1.000000	-1.000000	138.965517	0.000000	-1.000000	-1.000000	463891.000000	1772918957.333557
-4017.780000	22014.765000	-18863.280000	-14655.735000	0.000000	0.000000	0.000000	0.000000	11.390118	-60.820736	19.383284	14.766647	-0.000000	0.000000	-0.000000	-0.000000	5.524120	0.259420	-1.373400	-0.018311	0.753294	0.657835	-1.000000	-1.000000	-1.000000	-1.000000	-1.000000	-1.000000	-1.000000	138.965517	0.000000	-1.000000	-1.000000	463892.000000	1772918957.333560
-4038.975000	22131.360000	-18898.650000	-14682.195000	0.000000	0.000000	0.000000	0.000000	68.805774	-66.751987	94.852894	101.593050	-0.000000	0.000000	-0.000000	-0.000000	5.707240	0.534100	-0.228900	-0.018616	0.753172	0.658201	-1.000000	-1.000000	-1.000000	-1.000000	-1.000000	-1.000000	-1.000000	138.965517	0.000000	-1.000000	-1.000000	463893.000000	1772918957.339022
-4074.480000	22210.740000	-18954.090000	-14745.825000	0.000000	0.000000	0.000000	0.000000	90.313842	-45.225141	119.838000	134.465319	-0.000000	0.000000	-0.000000	-0.000000	5.707240	0.534100	-0.228900	-0.018616	0.753172	0.658201	-1.000000	-1.000000	-1.000000	-1.000000	-1.000000	-1.000000	-1.000000	138.965517	0.000000	-1.000000	-1.000000	463894.000000	1772918957.339025
-4119.210000	22226.130000	-19025.325000	-14826.510000	0.000000	0.000000	0.000000	0.000000	64.306483	-8.273280	80.370734	94.858646	-0.000000	0.000000	-0.000000	-0.000000	5.707240	0.534100	-0.228900	-0.018616	0.753172	0.658201	-1.000000	-1.000000	-1.000000	-1.000000	-1.000000	-1.000000	-1.000000	138.965517	0.000000	-1.000000	-1.000000	463895.000000	1772918957.342872
-4216.815000	22209.840000	-19148.130000	-14965.605000	0.000000	0.000000	0.000000	0.000000	5.858008	20.741902	-0.876294	5.261389	-0.000000	0.000000	-0.000000	-0.000000	5.707240	0.534100	-0.228900	-0.018616	0.753172	0.658201	-1.000000	-1.000000	-1.000000	-1.000000	-1.000000	-1.000000	-1.000000	138.965517	0.000000	-1.000000	-1.000000	463896.000000	1772918957.342874
-4248.540000	22267.980000	-19158.255000	-14985.765000	0.000000	0.000000	0.000000	0.000000	-54.578589	25.115592	-80.264104	-86.116041	-0.000000	0.000000	-0.000000	-0.000000	5.707240	0.534100	-0.228900	-0.018616	0.753172	0.658201	-1.000000	-1.000000	-1.000000	-1.000000	-1.000000	-1.000000	-1.000000	138.965517	0.000000	-1.000000	-1.000000	463897.000000	1772918957.346067
-4221.720000	22323.420000	-19110.330000	-14932.080000	0.000000	0.000000	0.000000	0.000000	-86.798635	10.059092	-116.163658	-130.964485	-0.000000	0.000000	-0.000000	-0.000000	5.707240	0.534100	-0.228900	-0.018616	0.753172	0.658201	-1.000000	-1.000000	-1.000000	-1.000000	-1.000000	-1.000000	-1.000000	138.965517	0.000000	-1.000000	-1.000000	463898.000000	1772918957.346069
-4157.055000	22277.925000	-19030.005000	-14844.915000	0.000000	0.000000	0.000000	0.000000	-73.562753	-7.843865	-89.165727	-104.769582	-0.000000	0.000000	-0.000000	-0.000000	5.707240	0.534100	-0.228900	-0.018616	0.753172	0.658201	-1.000000	-1.000000	-1.000000	-1.000000	-1.000000	-1.000000	-1.000000	138.965517	0.000000	-1.000000	-1.000000	463899.000000	1772918957.349464
-4043.340000	22243.185000	-18902.025000	-14701.680000	0.000000	0.000000	0.000000	0.000000	-20.033475	-20.668557	-13.489570	-21.266204	-0.000000	0.000000	-0.000000	-0.000000	5.707240	0.534100	-0.228900	-0.018616	0.753172	0.658201	-1.000000	-1.000000	-1.000000	-1.000000	-1.000000	-1.000000	-1.000000	138.965517	0.000000	-1.000000	-1.000000	463900.000000	1772918957.349466
-4020.480000	22284.180000	-18887.670000	-14673.645000	0.000000	0.000000	0.000000	0.000000	47.006829	-27.820952	70.602148	74.995442	-0.000000	0.000000	-0.000000	-0.000000	5.707240	0.534100	-0.228900	-0.018616	0.753172	0.658201	-1.000000	-1.000000	-1.000000	-1.000000	-1.000000	-1.000000	-1.000000	138.965517	0.000000	-1.000000	-1.000000	463901.000000	1772918957.353504
-4043.700000	22234.770000	-18922.230000	-14711.895000	0.000000	0.000000	0.000000	0.000000	90.890470	-26.293908	117.267360	131.682813	-0.000000	0.000000	-0.000000	-0.000000	5.707240	0.534100	-0.228900	-0.018616	0.753172	0.658201	-1.000000	-1.000000	-1.000000	-1.000000	-1.000000	-1.000000	-1.000000	138.965517	0.000000	-1.000000	-1.000000	463902.000000	1772918957.353507
-4077.090000	22164.255000	-18970.875000	-14765.760000	0.000000	0.000000	0.000000	0.000000	85.940434	-16.513060	100.560360	117.402033	-0.000000	0.000000	-0.000000	-0.000000	6.271860	-0.305200	0.244160	-0.019287	0.751829	0.658934	-1.000000	-1.000000	-1.000000	-1.000000	-1.000000	-1.000000	-1.000000	138.965517	0.000000	-1.000000	-1.000000	463903.000000	1772918957.359618
-4174.335000	22207.635000	-19106.145000	-14912.145000	0.000000	0.000000	0.000000	0.000000	34.577427	-4.286154	30.137751	40.485745	-0.000000	0.000000	-0.000000	-0.000000	6.271860	-0.305200	0.244160	-0.019287	0.751829	0.658934	-1.000000	-1.000000	-1.000000	-1.000000	-1.000000	-1.000000	-1.000000	138.965517	0.000000	-1.000000	-1.000000	463904.000000	1772918957.359620
-4208.040000	22256.280000	-19156.950000	-14979.330000	0.000000	0.000000	0.000000	0.000000	-35.558537	10.020920	-57.007412	-58.531920	-0.000000	0.000000	-0.000000	-0.000000	6.271860	-0.305200	0.244160	-0.019287	0.751829	0.658934	-1.000000	-1.000000	-1.000000	-1.000000	-1.000000	-1.000000	-1.000000	138.965517	0.000000	-1.000000	-1.000000	463905.000000	1772918957.361574
-4178.070000	22259.745000	-19105.785000	-14927.085000	0.000000	0.000000	0.000000	0.000000	-87.158315	28.694930	-115.479398	-128.117296	-0.000000	0.000000	-0.000000	-0.000000	6.271860	-0.305200	0.244160	-0.019287	0.751829	0.658934	-1.000000	-1.000000	-1.000000	-1.000000	-1.000000	-1.000000	-1.000000	138.965517	0.000000	-1.000000	-1.000000	463906.000000	1772918957.361577
-4139.235000	22160.340000	-19029.195000	-14842.890000	0.000000	0.000000	0.000000	0.000000	-92.368624	43.112418	-112.464674	-129.664586	-0.000000	0.000000	-0.000000	-0.000000	6.271860	-0.305200	0.244160	-0.019287	0.751829	0.658934	-1.000000	-1.000000	-1.000000	-1.000000	-1.000000	-1.000000	-1.000000	138.965517	0.000000	-1.000000	-1.000000	463907.000000	1772918957.365266
-4028.490000	22004.820000	-18895.320000	-14698.800000	0.000000	0.000000	0.000000	0.000000	-48.924801	36.191071	-47.944967	-60.669234	-0.000000	0.000000	-0.000000	-0.000000	6.271860	-0.305200	0.244160	-0.019287	0.751829	0.658934	-1.000000	-1.000000	-1.000000	-1.000000	-1.000000	-1.000000	-1.000000	138.965517	0.000000	-1.000000	-1.000000	463908.000000	1772918957.365269
-3947.895000	21918.060000	-18820.845000	-14606.055000	0.000000	0.000000	0.000000	0.000000	20.040658	2.245419	43.686364	42.046242	-0.000000	0.000000	-0.000000	-0.000000	6.271860	-0.305200	0.244160	-0.019287	0.751829	0.658934	-1.000000	-1.000000	-1.000000	-1.000000	-1.000000	-1.000000	-1.000000	138.965517	0.000000	-1.000000	-1.000000	463909.000000	1772918957.369535
-3968.595000	21883.725000	-18858.375000	-14645.790000	0.000000	0.000000	0.000000	0.000000	78.393650	-39.479203	112.231820	122.350503	-0.000000	0.000000	-0.000000	-0.000000	6.271860	-0.305200	0.244160	-0.019287	0.751829	0.658934	-1.000000	-1.000000	-1.000000	-1.000000	-1.000000	-1.000000	-1.000000	138.965517	0.000000	-1.000000	-1.000000	463910.000000	1772918957.369538
-4031.865000	21827.160000	-18906.165000	-14697.270000	0.000000	0.000000	0.000000	0.000000	93.207451	-58.743139	118.839664	135.036856	-0.000000	0.000000	-0.000000	-0.000000	6.271860	-0.305200	0.244160	-0.019287	0.751829	0.658934	-1.000000	-1.000000	-1.000000	-1.000000	-1.000000	-1.000000	-1.000000	138.965517	0.000000	-1.000000	-1.000000	463911.000000	1772918957.373537
-4111.740000	21765.510000	-19006.965000	-14805.360000	0.000000	0.000000	0.000000	0.000000	54.398674	-42.395948	59.943864	73.358872	-0.000000	0.000000	-0.000000	-0.000000	6.271860	-0.305200	0.244160	-0.019287	0.751829	0.658934	-1.000000	-1.000000	-1.000000	-1.000000	-1.000000	-1.000000	-1.000000	138.965517	0.000000	-1.000000	-1.000000	463912.000000	1772918957.373540
-4178.430000	21733.245000	-19093.005000	-14911.965000	0.000000	0.000000	0.000000	0.000000	-16.440641	-2.705765	-31.404217	-27.815916	-0.000000	0.000000	-0.000000	-0.000000	7.813120	-0.320460	0.305200	-0.019226	0.750975	0.659117	-1.000000	-1.000000	-1.000000	-1.000000	-1.000000	-1.000000	-1.000000	138.965517	0.000000	-1.000000	-1.000000	463913.000000	1772918957.377501
-4140.990000	21719.520000	-19056.555000	-14877.855000	0.000000	0.000000	0.000000	0.000000	-78.367977	38.162412	-105.921308	-113.949036	-0.000000	0.000000	-0.000000	-0.000000	7.813120	-0.320460	0.305200	-0.019226	0.750975	0.659117	-1.000000	-1.000000	-1.000000	-1.000000	-1.000000	-1.000000	-1.000000	138.965517	0.000000	-1.000000	-1.000000	463914.000000	1772918957.377505
-4108.455000	21749.355000	-19016.415000	-14830.470000	0.000000	0.000000	0.000000	0.000000	-95.478445	64.583141	-123.627448	-138.887837	-0.000000	0.000000	-0.000000	-0.000000	7.813120	-0.320460	0.305200	-0.019226	0.750975	0.659117	-1.000000	-1.000000	-1.000000	-1.000000	-1.000000	-1.000000	-1.000000	138.965517	0.000000	-1.000000	-1.000000	463915.000000	1772918957.381643
-4056.300000	21808.980000	-18938.295000	-14745.915000	0.000000	0.000000	0.000000	0.000000	-59.512073	72.573582	-76.339544	-90.373667	-0.000000	0.000000	-0.000000	-0.000000	7.813120	-0.320460	0.305200	-0.019226	0.750975	0.659117	-1.000000	-1.000000	-1.000000	-1.000000	-1.000000	-1.000000	-1.000000	138.965517	0.000000	-1.000000	-1.000000	463916.000000	1772918957.381646
-3959.235000	21797.505000	-18813.645000	-14599.215000	0.000000	0.000000	0.000000	0.000000	7.131041	64.463286	8.939348	3.915932	-0.000000	0.000000	-0.000000	-0.000000	7.813120	-0.320460	0.305200	-0.019226	0.750975	0.659117	-1.000000	-1.000000	-1.000000	-1.000000	-1.000000	-1.000000	-1.000000	138.965517	0.000000	-1.000000	-1.000000	463917.000000	1772918957.385623
-3951.090000	21731.310000	-18816.930000	-14593.770000	0.000000	0.000000	0.000000	0.000000	68.804497	40.412827	88.172345	95.131642	-0.000000	0.000000	-0.000000	-0.000000	7.813120	-0.320460	0.305200	-0.019226	0.750975	0.659117	-1.000000	-1.000000	-1.000000	-1.000000	-1.000000	-1.000000	-1.000000	138.965517	0.000000	-1.000000	-1.000000	463918.000000	1772918957.385625
-3987.135000	21711.645000	-18868.545000	-14651.370000	0.000000	0.000000	0.000000	0.000000	94.391687	0.966841	120.846540	136.337862	-0.000000	0.000000	-0.000000	-0.000000	7.813120	-0.320460	0.305200	-0.019226	0.750975	0.659117	-1.000000	-1.000000	-1.000000	-1.000000	-1.000000	-1.000000	-1.000000	138.965517	0.000000	-1.000000	-1.000000	463919.000000	1772918957.389652
-4061.115000	21777.345000	-18963.765000	-14755.050000	0.000000	0.000000	0.000000	0.000000	70.443204	-41.144221	89.150786	104.740366	-0.000000	0.000000	-0.000000	-0.000000	7.813120	-0.320460	0.305200	-0.019226	0.750975	0.659117	-1.000000	-1.000000	-1.000000	-1.000000	-1.000000	-1.000000	-1.000000	138.965517	0.000000	-1.000000	-1.000000	463920.000000	1772918957.389655
-4157.550000	21764.475000	-19093.140000	-14905.440000	0.000000	0.000000	0.000000	0.000000	8.877625	-64.555319	9.410360	16.241578	-0.000000	0.000000	-0.000000	-0.000000	7.813120	-0.320460	0.305200	-0.019226	0.750975	0.659117	-1.000000	-1.000000	-1.000000	-1.000000	-1.000000	-1.000000	-1.000000	138.965517	0.000000	-1.000000	-1.000000	463921.000000	1772918957.393566
-4143.825000	21614.805000	-19073.250000	-14895.045000	0.000000	0.000000	0.000000	0.000000	-57.776573	-62.669851	-75.519184	-81.721126	-0.000000	0.000000	-0.000000	-0.000000	7.813120	-0.320460	0.305200	-0.019226	0.750975	0.659117	-1.000000	-1.000000	-1.000000	-1.000000	-1.000000	-1.000000	-1.000000	138.965517	0.000000	-1.000000	-1.000000	463922.000000	1772918957.393569
-4132.440000	21688.830000	-19045.395000	-14862.015000	0.000000	0.000000	0.000000	0.000000	-92.683253	-48.035309	-118.098151	-134.432747	-0.000000	0.000000	-0.000000	-0.000000	8.652420	-0.442540	0.518840	-0.018372	0.752562	0.659666	-1.000000	-1.000000	-1.000000	-1.000000	-1.000000	-1.000000	-1.000000	138.965517	0.000000	-1.000000	-1.000000	463923.000000	1772918957.397675
-4102.425000	21806.280000	-18994.500000	-14804.730000	0.000000	0.000000	0.000000	0.000000	-77.371365	-26.468781	-94.929432	-112.610993	-0.000000	0.000000	-0.000000	-0.000000	8.652420	-0.442540	0.518840	-0.018372	0.752562	0.659666	-1.000000	-1.000000	-1.000000	-1.000000	-1.000000	-1.000000	-1.000000	138.965517	0.000000	-1.000000	-1.000000	463924.000000	1772918957.397677
-3995.955000	21819.735000	-18855.135000	-14645.790000	0.000000	0.000000	0.000000	0.000000	-22.412024	6.555082	-20.965769	-30.301817	-0.000000	0.000000	-0.000000	-0.000000	8.652420	-0.442540	0.518840	-0.018372	0.752562	0.659666	-1.000000	-1.000000	-1.000000	-1.000000	-1.000000	-1.000000	-1.000000	138.965517	0.000000	-1.000000	-1.000000	463925.000000	1772918957.401330
-3963.465000	21789.630000	-18825.930000	-14600.565000	0.000000	0.000000	0.000000	0.000000	43.244695	41.169313	63.959302	68.252209	-0.000000	0.000000	-0.000000	-0.000000	8.652420	-0.442540	0.518840	-0.018372	0.752562	0.659666	-1.000000	-1.000000	-1.000000	-1.000000	-1.000000	-1.000000	-1.000000	138.965517	0.000000	-1.000000	-1.000000	463926.000000	1772918957.401333
-4008.105000	21853.755000	-18884.520000	-14664.510000	0.000000	0.000000	0.000000	0.000000	86.387808	55.881362	115.306800	131.315433	-0.000000	0.000000	-0.000000	-0.000000	8.652420	-0.442540	0.518840	-0.018372	0.752562	0.659666	-1.000000	-1.000000	-1.000000	-1.000000	-1.000000	-1.000000	-1.000000	138.965517	0.000000	-1.000000	-1.000000	463927.000000	1772918957.405715
-4068.720000	21954.060000	-18960.705000	-14751.765000	0.000000	0.000000	0.000000	0.000000	83.205679	45.312197	104.069555	123.265685	-0.000000	0.000000	-0.000000	-0.000000	8.652420	-0.442540	0.518840	-0.018372	0.752562	0.659666	-1.000000	-1.000000	-1.000000	-1.000000	-1.000000	-1.000000	-1.000000	138.965517	0.000000	-1.000000	-1.000000	463928.000000	1772918957.405718
-4184.820000	22061.115000	-19108.395000	-14920.110000	0.000000	0.000000	0.000000	0.000000	34.100697	24.652770	35.062327	46.729265	-0.000000	0.000000	-0.000000	-0.000000	8.652420	-0.442540	0.518840	-0.018372	0.752562	0.659666	-1.000000	-1.000000	-1.000000	-1.000000	-1.000000	-1.000000	-1.000000	138.965517	0.000000	-1.000000	-1.000000	463929.000000	1772918957.409575
-4234.545000	22142.880000	-19160.595000	-14989.005000	0.000000	0.000000	0.000000	0.000000	-34.839979	9.080112	-54.769722	-57.412740	-0.000000	0.000000	-0.000000	-0.000000	8.652420	-0.442540	0.518840	-0.018372	0.752562	0.659666	-1.000000	-1.000000	-1.000000	-1.000000	-1.000000	-1.000000	-1.000000	138.965517	0.000000	-1.000000	-1.000000	463930.000000	1772918957.409577
-4204.800000	22188.825000	-19128.015000	-14943.915000	0.000000	0.000000	0.000000	0.000000	-85.277079	-0.015001	-115.972783	-131.588389	-0.000000	0.000000	-0.000000	-0.000000	8.652420	-0.442540	0.518840	-0.018372	0.752562	0.659666	-1.000000	-1.000000	-1.000000	-1.000000	-1.000000	-1.000000	-1.000000	138.965517	0.000000	-1.000000	-1.000000	463931.000000	1772918957.413295
-4181.715000	22249.665000	-19075.275000	-14888.295000	0.000000	0.000000	0.000000	0.000000	-87.898184	-9.859264	-113.395289	-132.892683	-0.000000	0.000000	-0.000000	-0.000000	8.652420	-0.442540	0.518840	-0.018372	0.752562	0.659666	-1.000000	-1.000000	-1.000000	-1.000000	-1.000000	-1.000000	-1.000000	138.965517	0.000000	-1.000000	-1.000000	463932.000000	1772918957.413298
-4092.480000	22338.630000	-18963.360000	-14762.385000	0.000000	0.000000	0.000000	0.000000	-41.314531	-23.202646	-48.148573	-60.360555	-0.000000	0.000000	-0.000000	-0.000000	7.568960	-0.732480	0.656180	-0.018311	0.754759	0.657164	-1.000000	-1.000000	-1.000000	-1.000000	-1.000000	-1.000000	-1.000000	138.965517	0.000000	-1.000000	-1.000000	463933.000000	1772918957.417785
-4021.110000	22386.015000	-18889.335000	-14667.795000	0.000000	0.000000	0.000000	0.000000	28.769640	-34.481708	44.144452	45.767637	-0.000000	0.000000	-0.000000	-0.000000	7.568960	-0.732480	0.656180	-0.018311	0.754759	0.657164	-1.000000	-1.000000	-1.000000	-1.000000	-1.000000	-1.000000	-1.000000	138.965517	0.000000	-1.000000	-1.000000	463934.000000	1772918957.417788
-4041.045000	22420.755000	-18923.490000	-14705.145000	0.000000	0.000000	0.000000	0.000000	85.501331	-38.356973	114.218866	128.644113	-0.000000	0.000000	-0.000000	-0.000000	7.568960	-0.732480	0.656180	-0.018311	0.754759	0.657164	-1.000000	-1.000000	-1.000000	-1.000000	-1.000000	-1.000000	-1.000000	138.965517	0.000000	-1.000000	-1.000000	463935.000000	1772918957.512115
-4092.030000	22432.815000	-18971.910000	-14761.440000	0.000000	0.000000	0.000000	0.000000	98.116470	-35.601233	124.273630	143.654563	-0.000000	0.000000	-0.000000	-0.000000	7.568960	-0.732480	0.656180	-0.018311	0.754759	0.657164	-1.000000	-1.000000	-1.000000	-1.000000	-1.000000	-1.000000	-1.000000	138.965517	0.000000	-1.000000	-1.000000	463936.000000	1772918957.512122
-4200.030000	22516.560000	-19106.190000	-14905.485000	0.000000	0.000000	0.000000	0.000000	58.174108	-28.516734	68.739391	82.560066	-0.000000	0.000000	-0.000000	-0.000000	7.568960	-0.732480	0.656180	-0.018311	0.754759	0.657164	-1.000000	-1.000000	-1.000000	-1.000000	-1.000000	-1.000000	-1.000000	138.965517	0.000000	-1.000000	-1.000000	463937.000000	1772918957.512152
-4273.695000	22571.325000	-19204.920000	-15026.850000	0.000000	0.000000	0.000000	0.000000	-14.226103	-16.049059	-23.365297	-22.455305	-0.000000	0.000000	-0.000000	-0.000000	7.568960	-0.732480	0.656180	-0.018311	0.754759	0.657164	-1.000000	-1.000000	-1.000000	-1.000000	-1.000000	-1.000000	-1.000000	138.965517	0.000000	-1.000000	-1.000000	463938.000000	1772918957.512154
-4218.030000	22410.135000	-19137.870000	-14960.430000	0.000000	0.000000	0.000000	0.000000	-79.309772	-1.927352	-102.952596	-115.458050	-0.000000	0.000000	-0.000000	-0.000000	7.568960	-0.732480	0.656180	-0.018311	0.754759	0.657164	-1.000000	-1.000000	-1.000000	-1.000000	-1.000000	-1.000000	-1.000000	138.965517	0.000000	-1.000000	-1.000000	463939.000000	1772918957.512172
-4170.240000	22322.970000	-19074.195000	-14889.420000	0.000000	0.000000	0.000000	0.000000	-98.626245	-0.291405	-124.445287	-143.791411	-0.000000	0.000000	-0.000000	-0.000000	7.568960	-0.732480	0.656180	-0.018311	0.754759	0.657164	-1.000000	-1.000000	-1.000000	-1.000000	-1.000000	-1.000000	-1.000000	138.965517	0.000000	-1.000000	-1.000000	463940.000000	1772918957.512174
-4101.390000	22347.315000	-18979.200000	-14785.920000	0.000000	0.000000	0.000000	0.000000	-61.244727	-15.019147	-75.326630	-91.193238	-0.000000	0.000000	-0.000000	-0.000000	7.568960	-0.732480	0.656180	-0.018311	0.754759	0.657164	-1.000000	-1.000000	-1.000000	-1.000000	-1.000000	-1.000000	-1.000000	138.965517	0.000000	-1.000000	-1.000000	463941.000000	1772918957.512190
-4029.210000	22408.650000	-18876.915000	-14659.020000	0.000000	0.000000	0.000000	0.000000	8.630676	-24.913995	14.288883	10.312901	-0.000000	0.000000	-0.000000	-0.000000	7.568960	-0.732480	0.656180	-0.018311	0.754759	0.657164	-1.000000	-1.000000	-1.000000	-1.000000	-1.000000	-1.000000	-1.000000	138.965517	0.000000	-1.000000	-1.000000	463942.000000	1772918957.512192
-4045.410000	22438.845000	-18895.545000	-14673.870000	0.000000	0.000000	0.000000	0.000000	70.110319	-7.787043	93.099519	103.191946	-0.000000	0.000000	-0.000000	-0.000000	6.638100	-0.137340	0.793520	-0.017029	0.755674	0.655577	-1.000000	-1.000000	-1.000000	-1.000000	-1.000000	-1.000000	-1.000000	138.965517	0.000000	-1.000000	-1.000000	463943.000000	1772918957.512211
-4061.295000	22387.860000	-18933.210000	-14718.465000	0.000000	0.000000	0.000000	0.000000	90.014913	30.584151	118.050892	136.934056	-0.000000	0.000000	-0.000000	-0.000000	6.638100	-0.137340	0.793520	-0.017029	0.755674	0.655577	-1.000000	-1.000000	-1.000000	-1.000000	-1.000000	-1.000000	-1.000000	138.965517	0.000000	-1.000000	-1.000000	463944.000000	1772918957.512213
-4096.935000	22304.610000	-19013.355000	-14803.380000	0.000000	0.000000	0.000000	0.000000	60.584352	60.584606	77.217694	94.752137	-0.000000	0.000000	-0.000000	-0.000000	6.638100	-0.137340	0.793520	-0.017029	0.755674	0.655577	-1.000000	-1.000000	-1.000000	-1.000000	-1.000000	-1.000000	-1.000000	138.965517	0.000000	-1.000000	-1.000000	463945.000000	1772918957.512233
-4173.570000	22180.455000	-19128.780000	-14938.155000	0.000000	0.000000	0.000000	0.000000	1.102189	56.791276	-5.336414	1.623772	-0.000000	0.000000	-0.000000	-0.000000	6.638100	-0.137340	0.793520	-0.017029	0.755674	0.655577	-1.000000	-1.000000	-1.000000	-1.000000	-1.000000	-1.000000	-1.000000	138.965517	0.000000	-1.000000	-1.000000	463946.000000	1772918957.512235
-4169.700000	22088.385000	-19112.715000	-14931.270000	0.000000	0.000000	0.000000	0.000000	-56.676469	19.288538	-85.221236	-92.280461	-0.000000	0.000000	-0.000000	-0.000000	6.638100	-0.137340	0.793520	-0.017029	0.755674	0.655577	-1.000000	-1.000000	-1.000000	-1.000000	-1.000000	-1.000000	-1.000000	138.965517	0.000000	-1.000000	-1.000000	463947.000000	1772918957.512254
-4134.780000	22066.695000	-19062.405000	-14876.505000	0.000000	0.000000	0.000000	0.000000	-83.908314	-26.829311	-119.446223	-136.727074	-0.000000	0.000000	-0.000000	-0.000000	6.638100	-0.137340	0.793520	-0.017029	0.755674	0.655577	-1.000000	-1.000000	-1.000000	-1.000000	-1.000000	-1.000000	-1.000000	138.965517	0.000000	-1.000000	-1.000000	463948.000000	1772918957.512256
-4082.175000	22084.695000	-18985.140000	-14799.105000	0.000000	0.000000	0.000000	0.000000	-67.398642	-49.415636	-89.185926	-107.718783	-0.000000	0.000000	-0.000000	-0.000000	6.638100	-0.137340	0.793520	-0.017029	0.755674	0.655577	-1.000000	-1.000000	-1.000000	-1.000000	-1.000000	-1.000000	-1.000000	138.965517	0.000000	-1.000000	-1.000000	463949.000000	1772918957.512271
-3967.830000	22069.710000	-18846.630000	-14641.650000	0.000000	0.000000	0.000000	0.000000	-16.455252	-33.287292	-11.338990	-21.857675	-0.000000	0.000000	-0.000000	-0.000000	6.638100	-0.137340	0.793520	-0.017029	0.755674	0.655577	-1.000000	-1.000000	-1.000000	-1.000000	-1.000000	-1.000000	-1.000000	138.965517	0.000000	-1.000000	-1.000000	463950.000000	1772918957.512273
-4008.780000	22181.805000	-18859.635000	-14634.540000	0.000000	0.000000	0.000000	0.000000	41.711354	10.658024	72.142532	74.786159	-0.000000	0.000000	-0.000000	-0.000000	6.638100	-0.137340	0.793520	-0.017029	0.755674	0.655577	-1.000000	-1.000000	-1.000000	-1.000000	-1.000000	-1.000000	-1.000000	138.965517	0.000000	-1.000000	-1.000000	463951.000000	1772918957.512291
-4044.645000	22254.705000	-18913.680000	-14694.795000	0.000000	0.000000	0.000000	0.000000	73.837198	58.895445	115.208844	129.859227	-0.000000	0.000000	-0.000000	-0.000000	6.638100	-0.137340	0.793520	-0.017029	0.755674	0.655577	-1.000000	-1.000000	-1.000000	-1.000000	-1.000000	-1.000000	-1.000000	138.965517	0.000000	-1.000000	-1.000000	463952.000000	1772918957.512293
-4081.590000	22292.550000	-18980.145000	-14771.070000	0.000000	0.000000	0.000000	0.000000	61.097296	88.695667	93.257345	112.348271	-0.000000	0.000000	-0.000000	-0.000000	5.630940	0.473060	1.052940	-0.015503	0.754087	0.656615	-1.000000	-1.000000	-1.000000	-1.000000	-1.000000	-1.000000	-1.000000	138.965517	0.000000	-1.000000	-1.000000	463953.000000	1772918957.512301
-4181.040000	22293.720000	-19113.885000	-14921.550000	0.000000	0.000000	0.000000	0.000000	13.194070	83.530753	19.608214	32.690674	-0.000000	0.000000	-0.000000	-0.000000	5.630940	0.473060	1.052940	-0.015503	0.754087	0.656615	-1.000000	-1.000000	-1.000000	-1.000000	-1.000000	-1.000000	-1.000000	138.965517	0.000000	-1.000000	-1.000000	463954.000000	1772918957.512303
-4208.535000	22240.395000	-19136.925000	-14962.320000	0.000000	0.000000	0.000000	0.000000	-41.462798	40.537092	-64.475341	-64.685634	-0.000000	0.000000	-0.000000	-0.000000	5.630940	0.473060	1.052940	-0.015503	0.754087	0.656615	-1.000000	-1.000000	-1.000000	-1.000000	-1.000000	-1.000000	-1.000000	138.965517	0.000000	-1.000000	-1.000000	463955.000000	1772918957.512306
-4183.245000	22263.120000	-19096.335000	-14918.985000	0.000000	0.000000	0.000000	0.000000	-72.838647	-24.195089	-112.842702	-126.197059	-0.000000	0.000000	-0.000000	-0.000000	5.630940	0.473060	1.052940	-0.015503	0.754087	0.656615	-1.000000	-1.000000	-1.000000	-1.000000	-1.000000	-1.000000	-1.000000	138.965517	0.000000	-1.000000	-1.000000	463956.000000	1772918957.512308
-4145.580000	22281.345000	-19043.145000	-14858.955000	0.000000	0.000000	0.000000	0.000000	-63.072203	-80.509379	-98.562399	-117.436467	-0.000000	0.000000	-0.000000	-0.000000	5.630940	0.473060	1.052940	-0.015503	0.754087	0.656615	-1.000000	-1.000000	-1.000000	-1.000000	-1.000000	-1.000000	-1.000000	138.965517	0.000000	-1.000000	-1.000000	463957.000000	1772918957.512311
-4060.665000	22288.680000	-18916.290000	-14715.090000	0.000000	0.000000	0.000000	0.000000	-16.764557	-102.037524	-29.924406	-43.551292	-0.000000	0.000000	-0.000000	-0.000000	5.630940	0.473060	1.052940	-0.015503	0.754087	0.656615	-1.000000	-1.000000	-1.000000	-1.000000	-1.000000	-1.000000	-1.000000	138.965517	0.000000	-1.000000	-1.000000	463958.000000	1772918957.512313
-3999.645000	22295.340000	-18852.795000	-14631.750000	0.000000	0.000000	0.000000	0.000000	42.144419	-83.846898	56.326351	55.738032	-0.000000	0.000000	-0.000000	-0.000000	5.630940	0.473060	1.052940	-0.015503	0.754087	0.656615	-1.000000	-1.000000	-1.000000	-1.000000	-1.000000	-1.000000	-1.000000	138.965517	0.000000	-1.000000	-1.000000	463959.000000	1772918957.512315
-4034.565000	22357.260000	-18903.330000	-14684.805000	0.000000	0.000000	0.000000	0.000000	82.893070	-40.464548	114.656476	127.661287	-0.000000	0.000000	-0.000000	-0.000000	5.630940	0.473060	1.052940	-0.015503	0.754087	0.656615	-1.000000	-1.000000	-1.000000	-1.000000	-1.000000	-1.000000	-1.000000	138.965517	0.000000	-1.000000	-1.000000	463960.000000	1772918957.512317
-4071.780000	22367.295000	-18955.575000	-14743.215000	0.000000	0.000000	0.000000	0.000000	82.062309	7.842711	112.471801	131.883801	-0.000000	0.000000	-0.000000	-0.000000	5.630940	0.473060	1.052940	-0.015503	0.754087	0.656615	-1.000000	-1.000000	-1.000000	-1.000000	-1.000000	-1.000000	-1.000000	138.965517	0.000000	-1.000000	-1.000000	463961.000000	1772918957.512320
-4164.750000	22352.670000	-19071.495000	-14872.995000	0.000000	0.000000	0.000000	0.000000	37.659492	42.571840	49.951093	64.866048	-0.000000	0.000000	-0.000000	-0.000000	5.630940	0.473060	1.052940	-0.015503	0.754087	0.656615	-1.000000	-1.000000	-1.000000	-1.000000	-1.000000	-1.000000	-1.000000	138.965517	0.000000	-1.000000	-1.000000	463962.000000	1772918957.512322
-4223.070000	22260.330000	-19143.000000	-14967.495000	0.000000	0.000000	0.000000	0.000000	-28.209065	50.252513	-39.386438	-37.327711	-0.000000	0.000000	-0.000000	-0.000000	7.736820	0.763000	0.717220	-0.014160	0.753355	0.657286	-1.000000	-1.000000	-1.000000	-1.000000	-1.000000	-1.000000	-1.000000	138.965517	0.000000	-1.000000	-1.000000	463963.000000	1772918957.512325
-4194.855000	22264.245000	-19109.295000	-14933.880000	0.000000	0.000000	0.000000	0.000000	-80.835501	29.900119	-107.859168	-120.030925	-0.000000	0.000000	-0.000000	-0.000000	7.736820	0.763000	0.717220	-0.014160	0.753355	0.657286	-1.000000	-1.000000	-1.000000	-1.000000	-1.000000	-1.000000	-1.000000	138.965517	0.000000	-1.000000	-1.000000	463964.000000	1772918957.512327
-4159.215000	22342.545000	-19073.070000	-14891.490000	0.000000	0.000000	0.000000	0.000000	-90.963241	-0.500354	-118.633946	-138.552802	-0.000000	0.000000	-0.000000	-0.000000	7.736820	0.763000	0.717220	-0.014160	0.753355	0.657286	-1.000000	-1.000000	-1.000000	-1.000000	-1.000000	-1.000000	-1.000000	138.965517	0.000000	-1.000000	-1.000000	463965.000000	1772918957.512330
-4100.940000	22421.070000	-18981.495000	-14790.105000	0.000000	0.000000	0.000000	0.000000	-53.078834	-14.509680	-67.101489	-83.889155	-0.000000	0.000000	-0.000000	-0.000000	7.736820	0.763000	0.717220	-0.014160	0.753355	0.657286	-1.000000	-1.000000	-1.000000	-1.000000	-1.000000	-1.000000	-1.000000	138.965517	0.000000	-1.000000	-1.000000	463966.000000	1772918957.512332
-4025.970000	22517.640000	-18879.570000	-14665.905000	0.000000	0.000000	0.000000	0.000000	11.228760	-0.751588	17.943903	13.332230	-0.000000	0.000000	-0.000000	-0.000000	7.736820	0.763000	0.717220	-0.014160	0.753355	0.657286	-1.000000	-1.000000	-1.000000	-1.000000	-1.000000	-1.000000	-1.000000	138.965517	0.000000	-1.000000	-1.000000	463967.000000	1772918957.512334
-4036.365000	22542.345000	-18901.980000	-14684.490000	0.000000	0.000000	0.000000	0.000000	67.765794	27.491889	92.248508	102.255844	-0.000000	0.000000	-0.000000	-0.000000	7.736820	0.763000	0.717220	-0.014160	0.753355	0.657286	-1.000000	-1.000000	-1.000000	-1.000000	-1.000000	-1.000000	-1.000000	138.965517	0.000000	-1.000000	-1.000000	463968.000000	1772918957.512336
-4064.445000	22527.180000	-18945.990000	-14734.395000	0.000000	0.000000	0.000000	0.000000	87.464675	44.165368	117.046774	136.289378	-0.000000	0.000000	-0.000000	-0.000000	7.736820	0.763000	0.717220	-0.014160	0.753355	0.657286	-1.000000	-1.000000	-1.000000	-1.000000	-1.000000	-1.000000	-1.000000	138.965517	0.000000	-1.000000	-1.000000	463969.000000	1772918957.512339
-4123.395000	22486.860000	-19030.725000	-14826.555000	0.000000	0.000000	0.000000	0.000000	60.977288	30.787561	79.469883	97.582580	-0.000000	0.000000	-0.000000	-0.000000	7.736820	0.763000	0.717220	-0.014160	0.753355	0.657286	-1.000000	-1.000000	-1.000000	-1.000000	-1.000000	-1.000000	-1.000000	138.965517	0.000000	-1.000000	-1.000000	463970.000000	1772918957.512341
-4218.345000	22457.835000	-19152.450000	-14971.365000	0.000000	0.000000	0.000000	0.000000	3.168603	-9.234195	0.322510	7.739925	-0.000000	0.000000	-0.000000	-0.000000	7.736820	0.763000	0.717220	-0.014160	0.753355	0.657286	-1.000000	-1.000000	-1.000000	-1.000000	-1.000000	-1.000000	-1.000000	138.965517	0.000000	-1.000000	-1.000000	463971.000000	1772918957.512344
-4227.975000	22523.715000	-19151.955000	-14979.105000	0.000000	0.000000	0.000000	0.000000	-56.109556	-51.805820	-78.618442	-85.718732	-0.000000	0.000000	-0.000000	-0.000000	7.736820	0.763000	0.717220	-0.014160	0.753355	0.657286	-1.000000	-1.000000	-1.000000	-1.000000	-1.000000	-1.000000	-1.000000	138.965517	0.000000	-1.000000	-1.000000	463972.000000	1772918957.512346
-4193.055000	22551.165000	-19102.005000	-14923.755000	0.000000	0.000000	0.000000	0.000000	-85.786695	-68.715469	-114.997352	-132.775162	-0.000000	0.000000	-0.000000	-0.000000	8.225140	1.266580	-0.244160	-0.012207	0.753233	0.656187	-1.000000	-1.000000	-1.000000	-1.000000	-1.000000	-1.000000	-1.000000	138.965517	0.000000	-1.000000	-1.000000	463973.000000	1772918957.512348
-4131.315000	22529.565000	-19018.665000	-14829.705000	0.000000	0.000000	0.000000	0.000000	-69.019708	-50.697138	-88.145249	-106.882647	-0.000000	0.000000	-0.000000	-0.000000	8.225140	1.266580	-0.244160	-0.012207	0.753233	0.656187	-1.000000	-1.000000	-1.000000	-1.000000	-1.000000	-1.000000	-1.000000	138.965517	0.000000	-1.000000	-1.000000	463974.000000	1772918957.512350
-4039.515000	22598.865000	-18896.445000	-14684.130000	0.000000	0.000000	0.000000	0.000000	-14.166735	-12.836974	-12.476699	-21.831792	-0.000000	0.000000	-0.000000	-0.000000	8.225140	1.266580	-0.244160	-0.012207	0.753233	0.656187	-1.000000	-1.000000	-1.000000	-1.000000	-1.000000	-1.000000	-1.000000	138.965517	0.000000	-1.000000	-1.000000	463975.000000	1772918957.512353
-4027.005000	22665.330000	-18893.745000	-14671.080000	0.000000	0.000000	0.000000	0.000000	49.297429	24.617112	70.692908	75.996049	-0.000000	0.000000	-0.000000	-0.000000	8.225140	1.266580	-0.244160	-0.012207	0.753233	0.656187	-1.000000	-1.000000	-1.000000	-1.000000	-1.000000	-1.000000	-1.000000	138.965517	0.000000	-1.000000	-1.000000	463976.000000	1772918957.512355
-4059.360000	22698.450000	-18944.865000	-14725.800000	0.000000	0.000000	0.000000	0.000000	86.230413	49.478429	114.897470	132.032522	-0.000000	0.000000	-0.000000	-0.000000	8.225140	1.266580	-0.244160	-0.012207	0.753233	0.656187	-1.000000	-1.000000	-1.000000	-1.000000	-1.000000	-1.000000	-1.000000	138.965517	0.000000	-1.000000	-1.000000	463977.000000	1772918957.512357
-4134.600000	22808.025000	-19025.820000	-14815.800000	0.000000	0.000000	0.000000	0.000000	75.170287	56.455807	94.581232	113.958732	-0.000000	0.000000	-0.000000	-0.000000	8.225140	1.266580	-0.244160	-0.012207	0.753233	0.656187	-1.000000	-1.000000	-1.000000	-1.000000	-1.000000	-1.000000	-1.000000	138.965517	0.000000	-1.000000	-1.000000	463978.000000	1772918957.512359
-4262.130000	22933.620000	-19178.325000	-14989.455000	0.000000	0.000000	0.000000	0.000000	20.931485	48.373368	20.743322	31.459173	-0.000000	0.000000	-0.000000	-0.000000	8.225140	1.266580	-0.244160	-0.012207	0.753233	0.656187	-1.000000	-1.000000	-1.000000	-1.000000	-1.000000	-1.000000	-1.000000	138.965517	0.000000	-1.000000	-1.000000	463979.000000	1772918957.512362
-4277.520000	22945.500000	-19197.495000	-15027.255000	0.000000	0.000000	0.000000	0.000000	-47.738663	32.104070	-66.514427	-70.693578	-0.000000	0.000000	-0.000000	-0.000000	8.225140	1.266580	-0.244160	-0.012207	0.753233	0.656187	-1.000000	-1.000000	-1.000000	-1.000000	-1.000000	-1.000000	-1.000000	138.965517	0.000000	-1.000000	-1.000000	463980.000000	1772918957.512364
-4237.020000	22927.410000	-19142.280000	-14969.745000	0.000000	0.000000	0.000000	0.000000	-91.403255	7.983748	-118.224973	-135.563804	-0.000000	0.000000	-0.000000	-0.000000	8.225140	1.266580	-0.244160	-0.012207	0.753233	0.656187	-1.000000	-1.000000	-1.000000	-1.000000	-1.000000	-1.000000	-1.000000	138.965517	0.000000	-1.000000	-1.000000	463981.000000	1772918957.514029
-4172.895000	22829.490000	-19065.465000	-14883.705000	0.000000	0.000000	0.000000	0.000000	-82.489767	-27.422514	-103.097496	-124.467697	-0.000000	0.000000	-0.000000	-0.000000	8.225140	1.266580	-0.244160	-0.012207	0.753233	0.656187	-1.000000	-1.000000	-1.000000	-1.000000	-1.000000	-1.000000	-1.000000	138.965517	0.000000	-1.000000	-1.000000	463982.000000	1772918957.514033
-4053.465000	22703.535000	-18915.480000	-14715.765000	0.000000	0.000000	0.000000	0.000000	-24.493858	-70.027843	-28.287988	-41.982343	-0.000000	0.000000	-0.000000	-0.000000	7.660520	1.449700	-1.388660	-0.011902	0.752623	0.656737	-1.000000	-1.000000	-1.000000	-1.000000	-1.000000	-1.000000	-1.000000	138.965517	0.000000	-1.000000	-1.000000	463983.000000	1772918957.517904
-4015.485000	22744.665000	-18871.515000	-14652.540000	0.000000	0.000000	0.000000	0.000000	50.551750	-102.450918	65.291885	67.000328	-0.000000	0.000000	-0.000000	-0.000000	7.660520	1.449700	-1.388660	-0.011902	0.752623	0.656737	-1.000000	-1.000000	-1.000000	-1.000000	-1.000000	-1.000000	-1.000000	138.965517	0.000000	-1.000000	-1.000000	463984.000000	1772918957.517907
-4049.730000	22791.330000	-18920.745000	-14704.065000	0.000000	0.000000	0.000000	0.000000	100.235636	-99.076788	125.431089	141.990904	-0.000000	0.000000	-0.000000	-0.000000	7.660520	1.449700	-1.388660	-0.011902	0.752623	0.656737	-1.000000	-1.000000	-1.000000	-1.000000	-1.000000	-1.000000	-1.000000	138.965517	0.000000	-1.000000	-1.000000	463985.000000	1772918957.522047
-4098.870000	22809.195000	-18979.020000	-14768.415000	0.000000	0.000000	0.000000	0.000000	95.178027	-48.837845	116.919792	139.616630	-0.000000	0.000000	-0.000000	-0.000000	7.660520	1.449700	-1.388660	-0.011902	0.752623	0.656737	-1.000000	-1.000000	-1.000000	-1.000000	-1.000000	-1.000000	-1.000000	138.965517	0.000000	-1.000000	-1.000000	463986.000000	1772918957.522050
-4192.380000	22771.620000	-19092.780000	-14896.080000	0.000000	0.000000	0.000000	0.000000	37.580062	26.112772	44.122416	60.924090	-0.000000	0.000000	-0.000000	-0.000000	7.660520	1.449700	-1.388660	-0.011902	0.752623	0.656737	-1.000000	-1.000000	-1.000000	-1.000000	-1.000000	-1.000000	-1.000000	138.965517	0.000000	-1.000000	-1.000000	463987.000000	1772918957.527730
-4223.340000	22662.540000	-19147.230000	-14973.390000	0.000000	0.000000	0.000000	0.000000	-40.572976	83.533380	-52.501942	-50.275340	-0.000000	0.000000	-0.000000	-0.000000	7.660520	1.449700	-1.388660	-0.011902	0.752623	0.656737	-1.000000	-1.000000	-1.000000	-1.000000	-1.000000	-1.000000	-1.000000	139.172414	0.000000	-1.000000	-1.000000	463988.000000	1772918957.527733
-4184.190000	22675.140000	-19118.160000	-14943.060000	0.000000	0.000000	0.000000	0.000000	-96.328173	94.540274	-120.968344	-134.272896	-0.000000	0.000000	-0.000000	-0.000000	7.660520	1.449700	-1.388660	-0.011902	0.752623	0.656737	-1.000000	-1.000000	-1.000000	-1.000000	-1.000000	-1.000000	-1.000000	139.172414	0.000000	-1.000000	-1.000000	463989.000000	1772918957.529987
-4169.520000	22749.480000	-19078.695000	-14899.185000	0.000000	0.000000	0.000000	0.000000	-100.106683	66.724275	-125.658164	-147.234058	-0.000000	0.000000	-0.000000	-0.000000	7.660520	1.449700	-1.388660	-0.011902	0.752623	0.656737	-1.000000	-1.000000	-1.000000	-1.000000	-1.000000	-1.000000	-1.000000	139.172414	0.000000	-1.000000	-1.000000	463990.000000	1772918957.529990
-4093.335000	22837.905000	-18979.515000	-14791.230000	0.000000	0.000000	0.000000	0.000000	-53.301437	32.796820	-66.571882	-84.915992	-0.000000	0.000000	-0.000000	-0.000000	7.660520	1.449700	-1.388660	-0.011902	0.752623	0.656737	-1.000000	-1.000000	-1.000000	-1.000000	-1.000000	-1.000000	-1.000000	139.172414	0.000000	-1.000000	-1.000000	463991.000000	1772918957.535369
-4032.450000	22936.185000	-18895.590000	-14680.935000	0.000000	0.000000	0.000000	0.000000	16.378050	17.362854	23.503248	17.769678	-0.000000	0.000000	-0.000000	-0.000000	7.660520	1.449700	-1.388660	-0.011902	0.752623	0.656737	-1.000000	-1.000000	-1.000000	-1.000000	-1.000000	-1.000000	-1.000000	139.172414	0.000000	-1.000000	-1.000000	463992.000000	1772918957.535372
-4060.305000	22938.165000	-18918.405000	-14699.250000	0.000000	0.000000	0.000000	0.000000	73.015489	18.698514	98.327612	107.942273	-0.000000	0.000000	-0.000000	-0.000000	8.240400	0.763000	-1.129240	-0.014160	0.753111	0.656065	-1.000000	-1.000000	-1.000000	-1.000000	-1.000000	-1.000000	-1.000000	139.172414	0.000000	-1.000000	-1.000000	463993.000000	1772918957.538180
-4061.430000	22800.330000	-18942.840000	-14733.315000	0.000000	0.000000	0.000000	0.000000	89.207909	14.607896	120.349064	140.021021	-0.000000	0.000000	-0.000000	-0.000000	8.240400	0.763000	-1.129240	-0.014160	0.753111	0.656065	-1.000000	-1.000000	-1.000000	-1.000000	-1.000000	-1.000000	-1.000000	139.172414	0.000000	-1.000000	-1.000000	463994.000000	1772918957.538182
-4131.720000	22751.235000	-19040.310000	-14840.865000	0.000000	0.000000	0.000000	0.000000	59.791833	-14.636411	80.279167	99.107425	-0.000000	0.000000	-0.000000	-0.000000	8.240400	0.763000	-1.129240	-0.014160	0.753111	0.656065	-1.000000	-1.000000	-1.000000	-1.000000	-1.000000	-1.000000	-1.000000	139.172414	0.000000	-1.000000	-1.000000	463995.000000	1772918957.543658
-4232.745000	22796.010000	-19159.965000	-14981.805000	0.000000	0.000000	0.000000	0.000000	2.062842	-59.797310	0.501760	8.135135	-0.000000	0.000000	-0.000000	-0.000000	8.240400	0.763000	-1.129240	-0.014160	0.753111	0.656065	-1.000000	-1.000000	-1.000000	-1.000000	-1.000000	-1.000000	-1.000000	139.172414	0.000000	-1.000000	-1.000000	463996.000000	1772918957.543660
-4223.430000	22864.455000	-19142.055000	-14968.980000	0.000000	0.000000	0.000000	0.000000	-55.334059	-85.774646	-77.991245	-85.482674	-0.000000	0.000000	-0.000000	-0.000000	8.240400	0.763000	-1.129240	-0.014160	0.753111	0.656065	-1.000000	-1.000000	-1.000000	-1.000000	-1.000000	-1.000000	-1.000000	139.172414	0.000000	-1.000000	-1.000000	463997.000000	1772918957.547639
-4187.340000	22894.875000	-19090.890000	-14915.160000	0.000000	0.000000	0.000000	0.000000	-82.657468	-67.771853	-113.229191	-131.361668	-0.000000	0.000000	-0.000000	-0.000000	8.240400	0.763000	-1.129240	-0.014160	0.753111	0.656065	-1.000000	-1.000000	-1.000000	-1.000000	-1.000000	-1.000000	-1.000000	139.172414	0.000000	-1.000000	-1.000000	463998.000000	1772918957.547642
-4136.760000	22938.210000	-19012.365000	-14829.570000	0.000000	0.000000	0.000000	0.000000	-64.178024	-15.587439	-85.279704	-103.905832	-0.000000	0.000000	-0.000000	-0.000000	8.240400	0.763000	-1.129240	-0.014160	0.753111	0.656065	-1.000000	-1.000000	-1.000000	-1.000000	-1.000000	-1.000000	-1.000000	139.172414	0.000000	-1.000000	-1.000000	463999.000000	1772918957.550557
-4056.480000	23028.030000	-18908.640000	-14703.210000	0.000000	0.000000	0.000000	0.000000	-10.278142	39.926793	-10.538360	-19.630362	-0.000000	0.000000	-0.000000	-0.000000	8.240400	0.763000	-1.129240	-0.014160	0.753111	0.656065	-1.000000	-1.000000	-1.000000	-1.000000	-1.000000	-1.000000	-1.000000	139.172414	0.000000	-1.000000	-1.000000	464000.000000	1772918957.550560
-4068.270000	23053.770000	-18924.705000	-14705.640000	0.000000	0.000000	0.000000	0.000000	48.678813	72.825711	68.501082	73.818045	-0.000000	0.000000	-0.000000	-0.000000	8.240400	0.763000	-1.129240	-0.014160	0.753111	0.656065	-1.000000	-1.000000	-1.000000	-1.000000	-1.000000	-1.000000	-1.000000	139.172414	0.000000	-1.000000	-1.000000	464001.000000	1772918957.554094
-4108.095000	23089.410000	-18975.420000	-14765.625000	0.000000	0.000000	0.000000	0.000000	79.441207	72.371082	107.166736	124.161998	-0.000000	0.000000	-0.000000	-0.000000	8.240400	0.763000	-1.129240	-0.014160	0.753111	0.656065	-1.000000	-1.000000	-1.000000	-1.000000	-1.000000	-1.000000	-1.000000	139.172414	0.000000	-1.000000	-1.000000	464002.000000	1772918957.554096
-4157.730000	23133.825000	-19048.275000	-14848.515000	0.000000	0.000000	0.000000	0.000000	64.988974	43.095142	84.303618	103.577971	-0.000000	0.000000	-0.000000	-0.000000	7.950460	1.449700	-1.648080	-0.014954	0.754026	0.655516	-1.000000	-1.000000	-1.000000	-1.000000	-1.000000	-1.000000	-1.000000	139.172414	0.000000	-1.000000	-1.000000	464003.000000	1772918957.558038
-4245.615000	23145.435000	-19171.170000	-14986.890000	0.000000	0.000000	0.000000	0.000000	14.936974	1.228145	14.601995	25.319831	-0.000000	0.000000	-0.000000	-0.000000	7.950460	1.449700	-1.648080	-0.014954	0.754026	0.655516	-1.000000	-1.000000	-1.000000	-1.000000	-1.000000	-1.000000	-1.000000	139.172414	0.000000	-1.000000	-1.000000	464004.000000	1772918957.558041
-4235.220000	23056.020000	-19154.070000	-14980.365000	0.000000	0.000000	0.000000	0.000000	-41.657917	-37.274397	-61.995139	-65.607615	-0.000000	0.000000	-0.000000	-0.000000	7.950460	1.449700	-1.648080	-0.014954	0.754026	0.655516	-1.000000	-1.000000	-1.000000	-1.000000	-1.000000	-1.000000	-1.000000	139.172414	0.000000	-1.000000	-1.000000	464005.000000	1772918957.561664
-4192.155000	22974.030000	-19096.245000	-14916.465000	0.000000	0.000000	0.000000	0.000000	-72.353231	-65.808738	-101.532641	-117.018896	-0.000000	0.000000	-0.000000	-0.000000	7.950460	1.449700	-1.648080	-0.014954	0.754026	0.655516	-1.000000	-1.000000	-1.000000	-1.000000	-1.000000	-1.000000	-1.000000	139.172414	0.000000	-1.000000	-1.000000	464006.000000	1772918957.561666
-4151.205000	22975.920000	-19038.240000	-14849.865000	0.000000	0.000000	0.000000	0.000000	-59.760859	-80.136473	-81.096374	-99.439301	-0.000000	0.000000	-0.000000	-0.000000	7.950460	1.449700	-1.648080	-0.014954	0.754026	0.655516	-1.000000	-1.000000	-1.000000	-1.000000	-1.000000	-1.000000	-1.000000	139.172414	0.000000	-1.000000	-1.000000	464007.000000	1772918957.565203
-4068.315000	23028.255000	-18919.710000	-14721.885000	0.000000	0.000000	0.000000	0.000000	-12.824306	-70.279777	-14.032641	-25.128617	-0.000000	0.000000	-0.000000	-0.000000	7.950460	1.449700	-1.648080	-0.014954	0.754026	0.655516	-1.000000	-1.000000	-1.000000	-1.000000	-1.000000	-1.000000	-1.000000	139.172414	0.000000	-1.000000	-1.000000	464008.000000	1772918957.565206
-4055.760000	23137.200000	-18904.770000	-14694.570000	0.000000	0.000000	0.000000	0.000000	40.613503	-29.120911	60.717079	62.269059	-0.000000	0.000000	-0.000000	-0.000000	7.950460	1.449700	-1.648080	-0.014954	0.754026	0.655516	-1.000000	-1.000000	-1.000000	-1.000000	-1.000000	-1.000000	-1.000000	139.172414	0.000000	-1.000000	-1.000000	464009.000000	1772918957.569150
-4097.880000	23224.635000	-18965.430000	-14757.525000	0.000000	0.000000	0.000000	0.000000	70.171144	33.735977	100.979648	113.477628	-0.000000	0.000000	-0.000000	-0.000000	7.950460	1.449700	-1.648080	-0.014954	0.754026	0.655516	-1.000000	-1.000000	-1.000000	-1.000000	-1.000000	-1.000000	-1.000000	139.172414	0.000000	-1.000000	-1.000000	464010.000000	1772918957.569153
-4148.640000	23307.210000	-19034.055000	-14832.585000	0.000000	0.000000	0.000000	0.000000	58.611195	91.695880	83.121618	99.266987	-0.000000	0.000000	-0.000000	-0.000000	7.950460	1.449700	-1.648080	-0.014954	0.754026	0.655516	-1.000000	-1.000000	-1.000000	-1.000000	-1.000000	-1.000000	-1.000000	139.172414	0.000000	-1.000000	-1.000000	464011.000000	1772918957.573144
-4238.865000	23353.875000	-19159.785000	-14968.170000	0.000000	0.000000	0.000000	0.000000	12.164980	116.237098	16.665986	27.724029	-0.000000	0.000000	-0.000000	-0.000000	7.950460	1.449700	-1.648080	-0.014954	0.754026	0.655516	-1.000000	-1.000000	-1.000000	-1.000000	-1.000000	-1.000000	-1.000000	139.172414	0.000000	-1.000000	-1.000000	464012.000000	1772918957.573147
-4278.285000	23381.460000	-19206.855000	-15033.960000	0.000000	0.000000	0.000000	0.000000	-43.555866	94.506746	-61.805830	-61.452542	-0.000000	0.000000	-0.000000	-0.000000	6.561800	1.358140	-0.625660	-0.014587	0.757200	0.654234	-1.000000	-1.000000	-1.000000	-1.000000	-1.000000	-1.000000	-1.000000	139.172414	0.000000	-1.000000	-1.000000	464013.000000	1772918957.577437
-4245.570000	23376.420000	-19150.065000	-14972.715000	0.000000	0.000000	0.000000	0.000000	-77.577135	35.826134	-108.621486	-118.867923	-0.000000	0.000000	-0.000000	-0.000000	6.561800	1.358140	-0.625660	-0.014587	0.757200	0.654234	-1.000000	-1.000000	-1.000000	-1.000000	-1.000000	-1.000000	-1.000000	139.172414	0.000000	-1.000000	-1.000000	464014.000000	1772918957.577440
-4209.705000	23350.455000	-19087.020000	-14903.235000	0.000000	0.000000	0.000000	0.000000	-69.623511	-35.180875	-95.631008	-110.627012	-0.000000	0.000000	-0.000000	-0.000000	6.561800	1.358140	-0.625660	-0.014587	0.757200	0.654234	-1.000000	-1.000000	-1.000000	-1.000000	-1.000000	-1.000000	-1.000000	139.172414	0.000000	-1.000000	-1.000000	464015.000000	1772918957.581464
-4123.530000	23352.570000	-18975.105000	-14784.705000	0.000000	0.000000	0.000000	0.000000	-22.656551	-90.984811	-28.269213	-39.549117	-0.000000	0.000000	-0.000000	-0.000000	6.561800	1.358140	-0.625660	-0.014587	0.757200	0.654234	-1.000000	-1.000000	-1.000000	-1.000000	-1.000000	-1.000000	-1.000000	139.172414	0.000000	-1.000000	-1.000000	464016.000000	1772918957.581467
-4043.475000	23334.840000	-18900.990000	-14692.905000	0.000000	0.000000	0.000000	0.000000	39.416305	-112.043558	57.286707	55.854679	-0.000000	0.000000	-0.000000	-0.000000	6.561800	1.358140	-0.625660	-0.014587	0.757200	0.654234	-1.000000	-1.000000	-1.000000	-1.000000	-1.000000	-1.000000	-1.000000	139.172414	0.000000	-1.000000	-1.000000	464017.000000	1772918957.585313
-4044.420000	23201.550000	-18916.290000	-14706.855000	0.000000	0.000000	0.000000	0.000000	85.390827	-96.635811	115.506801	124.591366	-0.000000	0.000000	-0.000000	-0.000000	6.561800	1.358140	-0.625660	-0.014587	0.757200	0.654234	-1.000000	-1.000000	-1.000000	-1.000000	-1.000000	-1.000000	-1.000000	139.172414	0.000000	-1.000000	-1.000000	464018.000000	1772918957.585315
-4073.085000	23121.180000	-18956.295000	-14752.890000	0.000000	0.000000	0.000000	0.000000	90.743707	-61.406429	115.123539	129.776119	-0.000000	0.000000	-0.000000	-0.000000	6.561800	1.358140	-0.625660	-0.014587	0.757200	0.654234	-1.000000	-1.000000	-1.000000	-1.000000	-1.000000	-1.000000	-1.000000	139.172414	0.000000	-1.000000	-1.000000	464019.000000	1772918957.589431
-4135.185000	23052.330000	-19048.050000	-14852.520000	0.000000	0.000000	0.000000	0.000000	50.553768	-24.489130	55.861248	68.074579	-0.000000	0.000000	-0.000000	-0.000000	6.561800	1.358140	-0.625660	-0.014587	0.757200	0.654234	-1.000000	-1.000000	-1.000000	-1.000000	-1.000000	-1.000000	-1.000000	139.172414	0.000000	-1.000000	-1.000000	464020.000000	1772918957.589434
-4203.675000	22999.725000	-19138.410000	-14958.675000	0.000000	0.000000	0.000000	0.000000	-16.235559	7.939637	-32.248855	-29.114361	-0.000000	0.000000	-0.000000	-0.000000	6.561800	1.358140	-0.625660	-0.014587	0.757200	0.654234	-1.000000	-1.000000	-1.000000	-1.000000	-1.000000	-1.000000	-1.000000	139.172414	0.000000	-1.000000	-1.000000	464021.000000	1772918957.593410
-4174.020000	22912.830000	-19093.185000	-14914.935000	0.000000	0.000000	0.000000	0.000000	-76.096912	35.674037	-104.769191	-112.388255	-0.000000	0.000000	-0.000000	-0.000000	6.561800	1.358140	-0.625660	-0.014587	0.757200	0.654234	-1.000000	-1.000000	-1.000000	-1.000000	-1.000000	-1.000000	-1.000000	139.172414	0.000000	-1.000000	-1.000000	464022.000000	1772918957.593413
-4154.940000	22954.275000	-19057.275000	-14872.410000	0.000000	0.000000	0.000000	0.000000	-97.866061	57.395592	-123.826132	-137.967642	-0.000000	0.000000	-0.000000	-0.000000	5.798800	1.327620	-0.076300	-0.014709	0.758665	0.653075	-1.000000	-1.000000	-1.000000	-1.000000	-1.000000	-1.000000	-1.000000	139.172414	0.000000	-1.000000	-1.000000	464023.000000	1772918957.597372
-4099.545000	22997.880000	-18977.670000	-14784.705000	0.000000	0.000000	0.000000	0.000000	-71.183305	73.496785	-80.126181	-92.915820	-0.000000	0.000000	-0.000000	-0.000000	5.798800	1.327620	-0.076300	-0.014709	0.758665	0.653075	-1.000000	-1.000000	-1.000000	-1.000000	-1.000000	-1.000000	-1.000000	139.172414	0.000000	-1.000000	-1.000000	464024.000000	1772918957.597375
-4016.475000	23026.320000	-18866.295000	-14660.505000	0.000000	0.000000	0.000000	0.000000	-11.991189	84.060097	1.502537	-3.000836	-0.000000	0.000000	-0.000000	-0.000000	5.798800	1.327620	-0.076300	-0.014709	0.758665	0.653075	-1.000000	-1.000000	-1.000000	-1.000000	-1.000000	-1.000000	-1.000000	139.172414	0.000000	-1.000000	-1.000000	464025.000000	1772918957.601323
-4031.730000	23077.575000	-18894.375000	-14685.165000	0.000000	0.000000	0.000000	0.000000	48.646170	83.308356	78.258146	84.160788	-0.000000	0.000000	-0.000000	-0.000000	5.798800	1.327620	-0.076300	-0.014709	0.758665	0.653075	-1.000000	-1.000000	-1.000000	-1.000000	-1.000000	-1.000000	-1.000000	139.172414	0.000000	-1.000000	-1.000000	464026.000000	1772918957.601325
-4067.010000	23122.710000	-18952.965000	-14751.270000	0.000000	0.000000	0.000000	0.000000	79.525243	65.115928	109.913150	122.511432	-0.000000	0.000000	-0.000000	-0.000000	5.798800	1.327620	-0.076300	-0.014709	0.758665	0.653075	-1.000000	-1.000000	-1.000000	-1.000000	-1.000000	-1.000000	-1.000000	139.172414	0.000000	-1.000000	-1.000000	464027.000000	1772918957.605321
-4113.405000	23114.340000	-19030.095000	-14833.170000	0.000000	0.000000	0.000000	0.000000	65.586856	30.172351	80.026371	91.997888	-0.000000	0.000000	-0.000000	-0.000000	5.798800	1.327620	-0.076300	-0.014709	0.758665	0.653075	-1.000000	-1.000000	-1.000000	-1.000000	-1.000000	-1.000000	-1.000000	139.172414	0.000000	-1.000000	-1.000000	464028.000000	1772918957.605323
-4229.460000	23221.260000	-19171.575000	-14989.770000	0.000000	0.000000	0.000000	0.000000	16.695105	-12.708275	6.581676	11.310739	-0.000000	0.000000	-0.000000	-0.000000	5.798800	1.327620	-0.076300	-0.014709	0.758665	0.653075	-1.000000	-1.000000	-1.000000	-1.000000	-1.000000	-1.000000	-1.000000	139.172414	0.000000	-1.000000	-1.000000	464029.000000	1772918957.609368
-4260.735000	23328.000000	-19175.895000	-15004.080000	0.000000	0.000000	0.000000	0.000000	-40.403961	-46.800164	-69.909026	-74.874509	-0.000000	0.000000	-0.000000	-0.000000	5.798800	1.327620	-0.076300	-0.014709	0.758665	0.653075	-1.000000	-1.000000	-1.000000	-1.000000	-1.000000	-1.000000	-1.000000	139.172414	0.000000	-1.000000	-1.000000	464030.000000	1772918957.609371
-4241.205000	23365.080000	-19123.515000	-14945.715000	0.000000	0.000000	0.000000	0.000000	-75.145317	-58.403370	-106.842593	-118.769399	-0.000000	0.000000	-0.000000	-0.000000	5.798800	1.327620	-0.076300	-0.014709	0.758665	0.653075	-1.000000	-1.000000	-1.000000	-1.000000	-1.000000	-1.000000	-1.000000	139.172414	0.000000	-1.000000	-1.000000	464031.000000	1772918957.613497
-4160.295000	23253.210000	-19035.405000	-14850.045000	0.000000	0.000000	0.000000	0.000000	-66.569712	-53.471249	-81.543888	-93.768311	-0.000000	0.000000	-0.000000	-0.000000	5.798800	1.327620	-0.076300	-0.014709	0.758665	0.653075	-1.000000	-1.000000	-1.000000	-1.000000	-1.000000	-1.000000	-1.000000	139.172414	0.000000	-1.000000	-1.000000	464032.000000	1772918957.613499
-4039.065000	23125.005000	-18889.065000	-14691.150000	0.000000	0.000000	0.000000	0.000000	-15.922674	-53.185964	-6.228703	-11.703547	-0.000000	0.000000	-0.000000	-0.000000	4.425400	0.579880	-1.983800	-0.016540	0.758787	0.652464	-1.000000	-1.000000	-1.000000	-1.000000	-1.000000	-1.000000	-1.000000	139.172414	0.000000	-1.000000	-1.000000	464033.000000	1772918957.617341
-4000.905000	23076.405000	-18860.985000	-14652.990000	0.000000	0.000000	0.000000	0.000000	51.337252	-67.146425	78.645661	83.297018	-0.000000	0.000000	-0.000000	-0.000000	4.425400	0.579880	-1.983800	-0.016540	0.758787	0.652464	-1.000000	-1.000000	-1.000000	-1.000000	-1.000000	-1.000000	-1.000000	139.172414	0.000000	-1.000000	-1.000000	464034.000000	1772918957.617344
-3994.425000	22897.305000	-18883.665000	-14677.155000	0.000000	0.000000	0.000000	0.000000	97.212311	-81.354352	125.607652	138.211695	-0.000000	0.000000	-0.000000	-0.000000	4.425400	0.579880	-1.983800	-0.016540	0.758787	0.652464	-1.000000	-1.000000	-1.000000	-1.000000	-1.000000	-1.000000	-1.000000	139.172414	0.000000	-1.000000	-1.000000	464035.000000	1772918957.621390
-4020.795000	22688.955000	-18923.805000	-14721.480000	0.000000	0.000000	0.000000	0.000000	93.822985	-79.204139	106.853021	120.859516	-0.000000	0.000000	-0.000000	-0.000000	4.425400	0.579880	-1.983800	-0.016540	0.758787	0.652464	-1.000000	-1.000000	-1.000000	-1.000000	-1.000000	-1.000000	-1.000000	139.172414	0.000000	-1.000000	-1.000000	464036.000000	1772918957.621393
-4089.690000	22543.920000	-19033.920000	-14843.160000	0.000000	0.000000	0.000000	0.000000	41.586539	-57.896719	31.830342	39.883188	-0.000000	0.000000	-0.000000	-0.000000	4.425400	0.579880	-1.983800	-0.016540	0.758787	0.652464	-1.000000	-1.000000	-1.000000	-1.000000	-1.000000	-1.000000	-1.000000	139.172414	0.000000	-1.000000	-1.000000	464037.000000	1772918957.625512
-4102.290000	22369.950000	-19055.205000	-14878.575000	0.000000	0.000000	0.000000	0.000000	-32.305693	-21.527468	-60.165003	-62.389159	-0.000000	0.000000	-0.000000	-0.000000	4.425400	0.579880	-1.983800	-0.016540	0.758787	0.652464	-1.000000	-1.000000	-1.000000	-1.000000	-1.000000	-1.000000	-1.000000	139.172414	0.000000	-1.000000	-1.000000	464038.000000	1772918957.625515
-4071.600000	22262.985000	-19003.095000	-14821.695000	0.000000	0.000000	0.000000	0.000000	-89.360772	23.952352	-121.378467	-132.985629	-0.000000	0.000000	-0.000000	-0.000000	4.425400	0.579880	-1.983800	-0.016540	0.758787	0.652464	-1.000000	-1.000000	-1.000000	-1.000000	-1.000000	-1.000000	-1.000000	139.172414	0.000000	-1.000000	-1.000000	464039.000000	1772918957.629488
-4057.425000	22310.730000	-18965.340000	-14780.430000	0.000000	0.000000	0.000000	0.000000	-101.238718	72.275461	-120.353831	-135.417736	-0.000000	0.000000	-0.000000	-0.000000	4.425400	0.579880	-1.983800	-0.016540	0.758787	0.652464	-1.000000	-1.000000	-1.000000	-1.000000	-1.000000	-1.000000	-1.000000	139.172414	0.000000	-1.000000	-1.000000	464040.000000	1772918957.629490
-4003.335000	22370.085000	-18860.355000	-14667.885000	0.000000	0.000000	0.000000	0.000000	-66.386635	119.391088	-60.747943	-71.470234	-0.000000	0.000000	-0.000000	-0.000000	4.425400	0.579880	-1.983800	-0.016540	0.758787	0.652464	-1.000000	-1.000000	-1.000000	-1.000000	-1.000000	-1.000000	-1.000000	139.172414	0.000000	-1.000000	-1.000000	464041.000000	1772918957.634241
-3963.240000	22445.055000	-18810.180000	-14600.925000	0.000000	0.000000	0.000000	0.000000	-7.124559	156.494101	23.335640	22.267352	-0.000000	0.000000	-0.000000	-0.000000	4.425400	0.579880	-1.983800	-0.016540	0.758787	0.652464	-1.000000	-1.000000	-1.000000	-1.000000	-1.000000	-1.000000	-1.000000	139.172414	0.000000	-1.000000	-1.000000	464042.000000	1772918957.634244
-3994.065000	22509.270000	-18863.730000	-14656.500000	0.000000	0.000000	0.000000	0.000000	45.626402	166.226757	87.568688	96.438008	-0.000000	0.000000	-0.000000	-0.000000	3.845520	0.320460	-0.930860	-0.017456	0.758726	0.652525	-1.000000	-1.000000	-1.000000	-1.000000	-1.000000	-1.000000	-1.000000	139.172414	0.000000	-1.000000	-1.000000	464043.000000	1772918957.640679
-4032.045000	22527.225000	-18919.395000	-14719.230000	0.000000	0.000000	0.000000	0.000000	66.792231	134.030544	98.928273	112.819451	-0.000000	0.000000	-0.000000	-0.000000	3.845520	0.320460	-0.930860	-0.017456	0.758726	0.652525	-1.000000	-1.000000	-1.000000	-1.000000	-1.000000	-1.000000	-1.000000	139.172414	0.000000	-1.000000	-1.000000	464044.000000	1772918957.640682
-4116.420000	22570.740000	-19032.255000	-14840.820000	0.000000	0.000000	0.000000	0.000000	49.011164	61.702141	54.160717	65.395229	-0.000000	0.000000	-0.000000	-0.000000	3.845520	0.320460	-0.930860	-0.017456	0.758726	0.652525	-1.000000	-1.000000	-1.000000	-1.000000	-1.000000	-1.000000	-1.000000	139.172414	0.000000	-1.000000	-1.000000	464045.000000	1772918957.643500
-4183.380000	22569.705000	-19116.315000	-14937.480000	0.000000	0.000000	0.000000	0.000000	5.629940	-29.445253	-19.176163	-16.634052	-0.000000	0.000000	-0.000000	-0.000000	3.845520	0.320460	-0.930860	-0.017456	0.758726	0.652525	-1.000000	-1.000000	-1.000000	-1.000000	-1.000000	-1.000000	-1.000000	139.172414	0.000000	-1.000000	-1.000000	464046.000000	1772918957.643503
-4163.715000	22585.410000	-19081.125000	-14903.325000	0.000000	0.000000	0.000000	0.000000	-36.784428	-108.936065	-79.097574	-86.272572	-0.000000	0.000000	-0.000000	-0.000000	3.845520	0.320460	-0.930860	-0.017456	0.758726	0.652525	-1.000000	-1.000000	-1.000000	-1.000000	-1.000000	-1.000000	-1.000000	139.172414	0.000000	-1.000000	-1.000000	464047.000000	1772918957.651433
-4129.245000	22596.885000	-19031.625000	-14850.405000	0.000000	0.000000	0.000000	0.000000	-51.775763	-152.227476	-90.562398	-103.094966	-0.000000	0.000000	-0.000000	-0.000000	3.845520	0.320460	-0.930860	-0.017456	0.758726	0.652525	-1.000000	-1.000000	-1.000000	-1.000000	-1.000000	-1.000000	-1.000000	139.172414	0.000000	-1.000000	-1.000000	464048.000000	1772918957.651436
-4063.815000	22610.655000	-18939.195000	-14752.080000	0.000000	0.000000	0.000000	0.000000	-29.371582	-149.981564	-46.184286	-56.968205	-0.000000	0.000000	-0.000000	-0.000000	3.845520	0.320460	-0.930860	-0.017456	0.758726	0.652525	-1.000000	-1.000000	-1.000000	-1.000000	-1.000000	-1.000000	-1.000000	139.172414	0.000000	-1.000000	-1.000000	464049.000000	1772918957.651439
-3996.090000	22671.900000	-18841.680000	-14637.285000	0.000000	0.000000	0.000000	0.000000	17.101994	-108.979393	29.000394	25.847085	-0.000000	0.000000	-0.000000	-0.000000	3.845520	0.320460	-0.930860	-0.017456	0.758726	0.652525	-1.000000	-1.000000	-1.000000	-1.000000	-1.000000	-1.000000	-1.000000	139.172414	0.000000	-1.000000	-1.000000	464050.000000	1772918957.651441
-4014.540000	22722.480000	-18873.720000	-14662.440000	0.000000	0.000000	0.000000	0.000000	59.727811	-46.354686	92.931906	99.267944	-0.000000	0.000000	-0.000000	-0.000000	3.845520	0.320460	-0.930860	-0.017456	0.758726	0.652525	-1.000000	-1.000000	-1.000000	-1.000000	-1.000000	-1.000000	-1.000000	139.172414	0.000000	-1.000000	-1.000000	464051.000000	1772918957.654515
-4044.465000	22718.835000	-18924.345000	-14718.330000	0.000000	0.000000	0.000000	0.000000	71.709608	15.707928	108.389087	121.119303	-0.000000	0.000000	-0.000000	-0.000000	3.845520	0.320460	-0.930860	-0.017456	0.758726	0.652525	-1.000000	-1.000000	-1.000000	-1.000000	-1.000000	-1.000000	-1.000000	139.172414	0.000000	-1.000000	-1.000000	464052.000000	1772918957.654517
-4097.115000	22711.320000	-18999.765000	-14801.490000	0.000000	0.000000	0.000000	0.000000	43.826964	55.339729	64.763751	77.058763	-0.000000	0.000000	-0.000000	-0.000000	3.265640	0.091560	-1.526000	-0.016907	0.757017	0.653868	-1.000000	-1.000000	-1.000000	-1.000000	-1.000000	-1.000000	-1.000000	139.172414	0.000000	-1.000000	-1.000000	464053.000000	1772918957.658379
-4187.970000	22741.245000	-19121.220000	-14939.595000	0.000000	0.000000	0.000000	0.000000	-9.876283	62.323098	-14.858612	-9.962689	-0.000000	0.000000	-0.000000	-0.000000	3.265640	0.091560	-1.526000	-0.016907	0.757017	0.653868	-1.000000	-1.000000	-1.000000	-1.000000	-1.000000	-1.000000	-1.000000	139.172414	0.000000	-1.000000	-1.000000	464054.000000	1772918957.658382
-4186.935000	22750.155000	-19109.655000	-14937.750000	0.000000	0.000000	0.000000	0.000000	-61.672031	44.512159	-88.642201	-94.334467	-0.000000	0.000000	-0.000000	-0.000000	3.265640	0.091560	-1.526000	-0.016907	0.757017	0.653868	-1.000000	-1.000000	-1.000000	-1.000000	-1.000000	-1.000000	-1.000000	139.172414	0.000000	-1.000000	-1.000000	464055.000000	1772918957.662344
-4153.455000	22749.795000	-19061.595000	-14886.540000	0.000000	0.000000	0.000000	0.000000	-83.728260	18.493127	-117.074610	-130.837650	-0.000000	0.000000	-0.000000	-0.000000	3.265640	0.091560	-1.526000	-0.016907	0.757017	0.653868	-1.000000	-1.000000	-1.000000	-1.000000	-1.000000	-1.000000	-1.000000	139.172414	0.000000	-1.000000	-1.000000	464056.000000	1772918957.662348
-4095.900000	22714.920000	-18984.960000	-14802.885000	0.000000	0.000000	0.000000	0.000000	-62.497214	-3.789733	-83.687895	-98.333779	-0.000000	0.000000	-0.000000	-0.000000	3.265640	0.091560	-1.526000	-0.016907	0.757017	0.653868	-1.000000	-1.000000	-1.000000	-1.000000	-1.000000	-1.000000	-1.000000	139.172414	0.000000	-1.000000	-1.000000	464057.000000	1772918957.666299
-4013.775000	22752.045000	-18868.860000	-14670.045000	0.000000	0.000000	0.000000	0.000000	-8.166740	-17.397437	-6.063897	-13.580788	-0.000000	0.000000	-0.000000	-0.000000	3.265640	0.091560	-1.526000	-0.016907	0.757017	0.653868	-1.000000	-1.000000	-1.000000	-1.000000	-1.000000	-1.000000	-1.000000	139.172414	0.000000	-1.000000	-1.000000	464058.000000	1772918957.666302
-3987.360000	22711.905000	-18850.365000	-14637.420000	0.000000	0.000000	0.000000	0.000000	51.008927	-20.529943	74.778286	78.857501	-0.000000	0.000000	-0.000000	-0.000000	3.265640	0.091560	-1.526000	-0.016907	0.757017	0.653868	-1.000000	-1.000000	-1.000000	-1.000000	-1.000000	-1.000000	-1.000000	139.172414	0.000000	-1.000000	-1.000000	464059.000000	1772918957.670336
-4017.555000	22690.170000	-18900.270000	-14690.655000	0.000000	0.000000	0.000000	0.000000	83.720965	-15.486871	115.796578	129.862790	-0.000000	0.000000	-0.000000	-0.000000	3.265640	0.091560	-1.526000	-0.016907	0.757017	0.653868	-1.000000	-1.000000	-1.000000	-1.000000	-1.000000	-1.000000	-1.000000	139.172414	0.000000	-1.000000	-1.000000	464060.000000	1772918957.670338
-4066.650000	22698.405000	-18966.960000	-14767.245000	0.000000	0.000000	0.000000	0.000000	71.901302	-7.542577	94.349686	111.095407	-0.000000	0.000000	-0.000000	-0.000000	3.265640	0.091560	-1.526000	-0.016907	0.757017	0.653868	-1.000000	-1.000000	-1.000000	-1.000000	-1.000000	-1.000000	-1.000000	139.172414	0.000000	-1.000000	-1.000000	464061.000000	1772918957.674316
-4163.940000	22715.145000	-19096.605000	-14910.120000	0.000000	0.000000	0.000000	0.000000	21.241303	1.219272	21.918874	32.150996	-0.000000	0.000000	-0.000000	-0.000000	3.265640	0.091560	-1.526000	-0.016907	0.757017	0.653868	-1.000000	-1.000000	-1.000000	-1.000000	-1.000000	-1.000000	-1.000000	139.172414	0.000000	-1.000000	-1.000000	464062.000000	1772918957.674319
-4176.990000	22654.845000	-19112.265000	-14941.080000	0.000000	0.000000	0.000000	0.000000	-41.653875	9.916244	-62.676025	-64.723450	-0.000000	0.000000	-0.000000	-0.000000	3.341940	-1.068200	-1.938020	-0.017578	0.757566	0.655089	-1.000000	-1.000000	-1.000000	-1.000000	-1.000000	-1.000000	-1.000000	139.172414	0.000000	-1.000000	-1.000000	464063.000000	1772918957.678241
-4122.135000	22551.435000	-19043.460000	-14864.895000	0.000000	0.000000	0.000000	0.000000	-81.955914	12.407844	-112.899739	-126.188904	-0.000000	0.000000	-0.000000	-0.000000	3.341940	-1.068200	-1.938020	-0.017578	0.757566	0.655089	-1.000000	-1.000000	-1.000000	-1.000000	-1.000000	-1.000000	-1.000000	139.172414	0.000000	-1.000000	-1.000000	464064.000000	1772918957.678244
-4077.405000	22497.120000	-18984.645000	-14794.740000	0.000000	0.000000	0.000000	0.000000	-75.866593	2.763953	-99.730979	-116.725256	-0.000000	0.000000	-0.000000	-0.000000	3.341940	-1.068200	-1.938020	-0.017578	0.757566	0.655089	-1.000000	-1.000000	-1.000000	-1.000000	-1.000000	-1.000000	-1.000000	139.172414	0.000000	-1.000000	-1.000000	464065.000000	1772918957.682524
-3998.115000	22479.750000	-18869.130000	-14669.415000	0.000000	0.000000	0.000000	0.000000	-27.416234	-12.958881	-31.330511	-42.326791	-0.000000	0.000000	-0.000000	-0.000000	3.341940	-1.068200	-1.938020	-0.017578	0.757566	0.655089	-1.000000	-1.000000	-1.000000	-1.000000	-1.000000	-1.000000	-1.000000	139.172414	0.000000	-1.000000	-1.000000	464066.000000	1772918957.682527
-3960.405000	22489.335000	-18817.155000	-14603.580000	0.000000	0.000000	0.000000	0.000000	34.741272	-19.182124	53.139612	54.061727	-0.000000	0.000000	-0.000000	-0.000000	3.341940	-1.068200	-1.938020	-0.017578	0.757566	0.655089	-1.000000	-1.000000	-1.000000	-1.000000	-1.000000	-1.000000	-1.000000	139.172414	0.000000	-1.000000	-1.000000	464067.000000	1772918957.686424
-4001.310000	22556.250000	-18872.595000	-14666.130000	0.000000	0.000000	0.000000	0.000000	75.685743	-5.443737	107.204080	118.898523	-0.000000	0.000000	-0.000000	-0.000000	3.341940	-1.068200	-1.938020	-0.017578	0.757566	0.655089	-1.000000	-1.000000	-1.000000	-1.000000	-1.000000	-1.000000	-1.000000	139.172414	0.000000	-1.000000	-1.000000	464068.000000	1772918957.686427
-4036.545000	22557.105000	-18928.350000	-14730.570000	0.000000	0.000000	0.000000	0.000000	73.005804	23.812387	100.974012	116.177857	-0.000000	0.000000	-0.000000	-0.000000	3.341940	-1.068200	-1.938020	-0.017578	0.757566	0.655089	-1.000000	-1.000000	-1.000000	-1.000000	-1.000000	-1.000000	-1.000000	139.172414	0.000000	-1.000000	-1.000000	464069.000000	1772918957.690549
-4127.760000	22603.905000	-19052.415000	-14863.320000	0.000000	0.000000	0.000000	0.000000	29.154572	51.187907	38.152187	47.943592	-0.000000	0.000000	-0.000000	-0.000000	3.341940	-1.068200	-1.938020	-0.017578	0.757566	0.655089	-1.000000	-1.000000	-1.000000	-1.000000	-1.000000	-1.000000	-1.000000	139.172414	0.000000	-1.000000	-1.000000	464070.000000	1772918957.690552
-4184.730000	22619.475000	-19123.290000	-14952.015000	0.000000	0.000000	0.000000	0.000000	-31.326515	59.467814	-46.751720	-47.705710	-0.000000	0.000000	-0.000000	-0.000000	3.341940	-1.068200	-1.938020	-0.017578	0.757566	0.655089	-1.000000	-1.000000	-1.000000	-1.000000	-1.000000	-1.000000	-1.000000	139.172414	0.000000	-1.000000	-1.000000	464071.000000	1772918957.694426
-4151.700000	22597.335000	-19074.375000	-14904.270000	0.000000	0.000000	0.000000	0.000000	-75.618510	42.870233	-107.509907	-118.469493	-0.000000	0.000000	-0.000000	-0.000000	3.341940	-1.068200	-1.938020	-0.017578	0.757566	0.655089	-1.000000	-1.000000	-1.000000	-1.000000	-1.000000	-1.000000	-1.000000	139.172414	0.000000	-1.000000	-1.000000	464072.000000	1772918957.694429
-4135.095000	22691.880000	-19038.870000	-14866.695000	0.000000	0.000000	0.000000	0.000000	-78.870350	9.257795	-109.801601	-124.771640	-0.000000	0.000000	-0.000000	-0.000000	3.952340	-0.549360	-1.083460	-0.017883	0.755125	0.655699	-1.000000	-1.000000	-1.000000	-1.000000	-1.000000	-1.000000	-1.000000	139.172414	0.000000	-1.000000	-1.000000	464073.000000	1772918957.698584
-4064.220000	22711.320000	-18929.430000	-14747.220000	0.000000	0.000000	0.000000	0.000000	-39.210152	-23.380312	-52.070753	-62.979202	-0.000000	0.000000	-0.000000	-0.000000	3.952340	-0.549360	-1.083460	-0.017883	0.755125	0.655699	-1.000000	-1.000000	-1.000000	-1.000000	-1.000000	-1.000000	-1.000000	139.172414	0.000000	-1.000000	-1.000000	464074.000000	1772918957.698587
-3990.780000	22711.635000	-18829.800000	-14623.425000	0.000000	0.000000	0.000000	0.000000	21.879947	-41.005323	34.466158	33.758709	-0.000000	0.000000	-0.000000	-0.000000	3.952340	-0.549360	-1.083460	-0.017883	0.755125	0.655699	-1.000000	-1.000000	-1.000000	-1.000000	-1.000000	-1.000000	-1.000000	139.172414	0.000000	-1.000000	-1.000000	464075.000000	1772918957.702454
-4013.640000	22706.505000	-18870.120000	-14656.545000	0.000000	0.000000	0.000000	0.000000	72.932381	-44.065913	104.494473	115.366398	-0.000000	0.000000	-0.000000	-0.000000	3.952340	-0.549360	-1.083460	-0.017883	0.755125	0.655699	-1.000000	-1.000000	-1.000000	-1.000000	-1.000000	-1.000000	-1.000000	139.172414	0.000000	-1.000000	-1.000000	464076.000000	1772918957.702457
-4060.080000	22812.075000	-18945.630000	-14739.390000	0.000000	0.000000	0.000000	0.000000	86.655855	-37.841350	119.427055	137.288754	-0.000000	0.000000	-0.000000	-0.000000	3.952340	-0.549360	-1.083460	-0.017883	0.755125	0.655699	-1.000000	-1.000000	-1.000000	-1.000000	-1.000000	-1.000000	-1.000000	139.172414	0.000000	-1.000000	-1.000000	464077.000000	1772918957.735548
-4126.095000	22911.210000	-19039.005000	-14843.655000	0.000000	0.000000	0.000000	0.000000	54.584039	-21.604777	69.237279	85.009625	-0.000000	0.000000	-0.000000	-0.000000	3.952340	-0.549360	-1.083460	-0.017883	0.755125	0.655699	-1.000000	-1.000000	-1.000000	-1.000000	-1.000000	-1.000000	-1.000000	139.172414	0.000000	-1.000000	-1.000000	464078.000000	1772918957.735552
-4193.505000	22844.745000	-19133.640000	-14954.760000	0.000000	0.000000	0.000000	0.000000	-6.024868	1.960961	-18.561354	-13.569223	-0.000000	0.000000	-0.000000	-0.000000	3.952340	-0.549360	-1.083460	-0.017883	0.755125	0.655699	-1.000000	-1.000000	-1.000000	-1.000000	-1.000000	-1.000000	-1.000000	139.172414	0.000000	-1.000000	-1.000000	464079.000000	1772918957.735558
-4190.760000	22795.920000	-19124.235000	-14945.670000	0.000000	0.000000	0.000000	0.000000	-62.227597	16.358106	-95.477216	-104.263425	-0.000000	0.000000	-0.000000	-0.000000	3.952340	-0.549360	-1.083460	-0.017883	0.755125	0.655699	-1.000000	-1.000000	-1.000000	-1.000000	-1.000000	-1.000000	-1.000000	139.172414	0.000000	-1.000000	-1.000000	464080.000000	1772918957.735560
-4161.375000	22808.790000	-19085.265000	-14904.135000	0.000000	0.000000	0.000000	0.000000	-83.853854	8.370926	-119.844142	-137.747089	-0.000000	0.000000	-0.000000	-0.000000	3.952340	-0.549360	-1.083460	-0.017883	0.755125	0.655699	-1.000000	-1.000000	-1.000000	-1.000000	-1.000000	-1.000000	-1.000000	139.172414	0.000000	-1.000000	-1.000000	464081.000000	1772918957.735564
-4107.870000	22794.300000	-19008.090000	-14815.440000	0.000000	0.000000	0.000000	0.000000	-60.162445	-12.893231	-79.772255	-97.235200	-0.000000	0.000000	-0.000000	-0.000000	3.952340	-0.549360	-1.083460	-0.017883	0.755125	0.655699	-1.000000	-1.000000	-1.000000	-1.000000	-1.000000	-1.000000	-1.000000	139.172414	0.000000	-1.000000	-1.000000	464082.000000	1772918957.735567
-4027.230000	22866.930000	-18892.935000	-14684.130000	0.000000	0.000000	0.000000	0.000000	-5.108973	-26.164829	1.851848	-6.245603	-0.000000	0.000000	-0.000000	-0.000000	6.439720	-0.885080	-0.671440	-0.016724	0.752073	0.657713	-1.000000	-1.000000	-1.000000	-1.000000	-1.000000	-1.000000	-1.000000	139.172414	0.000000	-1.000000	-1.000000	464083.000000	1772918957.735570
-4017.780000	22933.935000	-18885.645000	-14671.935000	0.000000	0.000000	0.000000	0.000000	51.883775	-17.383170	82.231848	87.099502	-0.000000	0.000000	-0.000000	-0.000000	6.439720	-0.885080	-0.671440	-0.016724	0.752073	0.657713	-1.000000	-1.000000	-1.000000	-1.000000	-1.000000	-1.000000	-1.000000	139.172414	0.000000	-1.000000	-1.000000	464084.000000	1772918957.735573
-4053.015000	22963.860000	-18924.120000	-14714.685000	0.000000	0.000000	0.000000	0.000000	80.593956	10.402132	119.550604	133.912443	-0.000000	0.000000	-0.000000	-0.000000	6.439720	-0.885080	-0.671440	-0.016724	0.752073	0.657713	-1.000000	-1.000000	-1.000000	-1.000000	-1.000000	-1.000000	-1.000000	139.172414	0.000000	-1.000000	-1.000000	464085.000000	1772918957.735576
-4103.640000	22973.940000	-18995.895000	-14789.385000	0.000000	0.000000	0.000000	0.000000	65.358432	38.402567	93.990429	109.478948	-0.000000	0.000000	-0.000000	-0.000000	6.439720	-0.885080	-0.671440	-0.016724	0.752073	0.657713	-1.000000	-1.000000	-1.000000	-1.000000	-1.000000	-1.000000	-1.000000	139.172414	0.000000	-1.000000	-1.000000	464086.000000	1772918957.735579
-4189.365000	23005.080000	-19120.320000	-14928.255000	0.000000	0.000000	0.000000	0.000000	14.581870	47.327825	19.288638	27.631501	-0.000000	0.000000	-0.000000	-0.000000	6.439720	-0.885080	-0.671440	-0.016724	0.752073	0.657713	-1.000000	-1.000000	-1.000000	-1.000000	-1.000000	-1.000000	-1.000000	139.172414	0.000000	-1.000000	-1.000000	464087.000000	1772918957.735582
-4209.705000	23045.940000	-19136.925000	-14961.195000	0.000000	0.000000	0.000000	0.000000	-44.333935	33.306298	-65.460124	-68.325939	-0.000000	0.000000	-0.000000	-0.000000	6.439720	-0.885080	-0.671440	-0.016724	0.752073	0.657713	-1.000000	-1.000000	-1.000000	-1.000000	-1.000000	-1.000000	-1.000000	139.172414	0.000000	-1.000000	-1.000000	464088.000000	1772918957.735585
-4177.845000	23070.240000	-19088.415000	-14914.665000	0.000000	0.000000	0.000000	0.000000	-79.425719	7.519022	-115.079970	-127.619244	-0.000000	0.000000	-0.000000	-0.000000	6.439720	-0.885080	-0.671440	-0.016724	0.752073	0.657713	-1.000000	-1.000000	-1.000000	-1.000000	-1.000000	-1.000000	-1.000000	139.172414	0.000000	-1.000000	-1.000000	464089.000000	1772918957.735589
-4143.780000	23105.160000	-19038.915000	-14858.055000	0.000000	0.000000	0.000000	0.000000	-71.288182	-15.863720	-102.444620	-118.228045	-0.000000	0.000000	-0.000000	-0.000000	6.439720	-0.885080	-0.671440	-0.016724	0.752073	0.657713	-1.000000	-1.000000	-1.000000	-1.000000	-1.000000	-1.000000	-1.000000	139.172414	0.000000	-1.000000	-1.000000	464090.000000	1772918957.735591
-4043.565000	23026.995000	-18913.410000	-14703.255000	0.000000	0.000000	0.000000	0.000000	-24.609675	-30.248452	-35.629081	-45.931610	-0.000000	0.000000	-0.000000	-0.000000	6.439720	-0.885080	-0.671440	-0.016724	0.752073	0.657713	-1.000000	-1.000000	-1.000000	-1.000000	-1.000000	-1.000000	-1.000000	139.172414	0.000000	-1.000000	-1.000000	464091.000000	1772918957.735594
-4002.480000	22946.625000	-18869.400000	-14626.170000	0.000000	0.000000	0.000000	0.000000	35.886537	-39.180379	48.704617	50.985324	-0.000000	0.000000	-0.000000	-0.000000	6.439720	-0.885080	-0.671440	-0.016724	0.752073	0.657713	-1.000000	-1.000000	-1.000000	-1.000000	-1.000000	-1.000000	-1.000000	139.172414	0.000000	-1.000000	-1.000000	464092.000000	1772918957.735597
-4058.460000	23055.660000	-18946.080000	-14710.230000	0.000000	0.000000	0.000000	0.000000	77.748956	-44.147083	104.999728	120.901663	-0.000000	0.000000	-0.000000	-0.000000	7.980980	-0.015260	-1.236060	-0.014465	0.754576	0.656615	-1.000000	-1.000000	-1.000000	-1.000000	-1.000000	-1.000000	-1.000000	139.172414	0.000000	-1.000000	-1.000000	464093.000000	1772918957.740198
-4111.110000	23168.520000	-19014.030000	-14809.455000	0.000000	0.000000	0.000000	0.000000	76.086047	-33.071560	101.116985	122.576789	-0.000000	0.000000	-0.000000	-0.000000	7.980980	-0.015260	-1.236060	-0.014465	0.754576	0.656615	-1.000000	-1.000000	-1.000000	-1.000000	-1.000000	-1.000000	-1.000000	139.172414	0.000000	-1.000000	-1.000000	464094.000000	1772918957.740201
-4186.980000	23161.905000	-19118.205000	-14948.370000	0.000000	0.000000	0.000000	0.000000	30.649095	1.632518	39.451767	52.351909	-0.000000	0.000000	-0.000000	-0.000000	7.980980	-0.015260	-1.236060	-0.014465	0.754576	0.656615	-1.000000	-1.000000	-1.000000	-1.000000	-1.000000	-1.000000	-1.000000	139.172414	0.000000	-1.000000	-1.000000	464095.000000	1772918957.743051
-4199.265000	23017.320000	-19134.990000	-14984.325000	0.000000	0.000000	0.000000	0.000000	-31.684688	39.021381	-42.813075	-49.048185	-0.000000	0.000000	-0.000000	-0.000000	7.980980	-0.015260	-1.236060	-0.014465	0.754576	0.656615	-1.000000	-1.000000	-1.000000	-1.000000	-1.000000	-1.000000	-1.000000	139.172414	0.000000	-1.000000	-1.000000	464096.000000	1772918957.743053
-4160.250000	22911.030000	-19072.755000	-14900.715000	0.000000	0.000000	0.000000	0.000000	-73.898912	45.030857	-96.845637	-120.427069	-0.000000	0.000000	-0.000000	-0.000000	7.980980	-0.015260	-1.236060	-0.014465	0.754576	0.656615	-1.000000	-1.000000	-1.000000	-1.000000	-1.000000	-1.000000	-1.000000	139.172414	0.000000	-1.000000	-1.000000	464097.000000	1772918957.748345
-4117.140000	22880.430000	-19012.725000	-14827.680000	0.000000	0.000000	0.000000	0.000000	-71.976915	12.128985	-91.688394	-118.405627	-0.000000	0.000000	-0.000000	-0.000000	7.980980	-0.015260	-1.236060	-0.014465	0.754576	0.656615	-1.000000	-1.000000	-1.000000	-1.000000	-1.000000	-1.000000	-1.000000	139.172414	0.000000	-1.000000	-1.000000	464098.000000	1772918957.748348
-4037.445000	22848.705000	-18906.255000	-14716.665000	0.000000	0.000000	0.000000	0.000000	-29.162109	-30.740523	-32.956389	-46.275286	-0.000000	0.000000	-0.000000	-0.000000	7.980980	-0.015260	-1.236060	-0.014465	0.754576	0.656615	-1.000000	-1.000000	-1.000000	-1.000000	-1.000000	-1.000000	-1.000000	139.172414	0.000000	-1.000000	-1.000000	464099.000000	1772918957.752162
-3976.605000	22823.280000	-18835.065000	-14627.250000	0.000000	0.000000	0.000000	0.000000	29.028727	-48.949862	43.873720	51.325345	-0.000000	0.000000	-0.000000	-0.000000	7.980980	-0.015260	-1.236060	-0.014465	0.754576	0.656615	-1.000000	-1.000000	-1.000000	-1.000000	-1.000000	-1.000000	-1.000000	139.172414	0.000000	-1.000000	-1.000000	464100.000000	1772918957.752164
-3976.380000	22724.370000	-18851.175000	-14640.255000	0.000000	0.000000	0.000000	0.000000	71.176151	-33.177410	96.216850	119.659567	-0.000000	0.000000	-0.000000	-0.000000	7.980980	-0.015260	-1.236060	-0.014465	0.754576	0.656615	-1.000000	-1.000000	-1.000000	-1.000000	-1.000000	-1.000000	-1.000000	139.172414	0.000000	-1.000000	-1.000000	464101.000000	1772918957.755519
-4018.680000	22719.915000	-18914.220000	-14711.670000	0.000000	0.000000	0.000000	0.000000	74.867212	0.399494	95.319408	122.473689	-0.000000	0.000000	-0.000000	-0.000000	7.980980	-0.015260	-1.236060	-0.014465	0.754576	0.656615	-1.000000	-1.000000	-1.000000	-1.000000	-1.000000	-1.000000	-1.000000	139.172414	0.000000	-1.000000	-1.000000	464102.000000	1772918957.755522
-4070.430000	22695.795000	-18990.180000	-14786.100000	0.000000	0.000000	0.000000	0.000000	37.637118	31.678277	40.920109	59.007892	-0.000000	0.000000	-0.000000	-0.000000	7.660520	-1.556520	-1.861720	-0.016052	0.754148	0.655028	-1.000000	-1.000000	-1.000000	-1.000000	-1.000000	-1.000000	-1.000000	139.172414	0.000000	-1.000000	-1.000000	464103.000000	1772918957.758703
-4082.400000	22422.330000	-19020.915000	-14836.230000	0.000000	0.000000	0.000000	0.000000	-20.250491	45.626642	-37.183709	-35.340081	-0.000000	0.000000	-0.000000	-0.000000	7.660520	-1.556520	-1.861720	-0.016052	0.754148	0.655028	-1.000000	-1.000000	-1.000000	-1.000000	-1.000000	-1.000000	-1.000000	139.172414	0.000000	-1.000000	-1.000000	464104.000000	1772918957.758706
-4056.570000	22289.760000	-18983.385000	-14818.455000	0.000000	0.000000	0.000000	0.000000	-66.371321	30.104422	-95.355757	-109.352423	-0.000000	0.000000	-0.000000	-0.000000	7.660520	-1.556520	-1.861720	-0.016052	0.754148	0.655028	-1.000000	-1.000000	-1.000000	-1.000000	-1.000000	-1.000000	-1.000000	139.172414	0.000000	-1.000000	-1.000000	464105.000000	1772918957.762643
-4058.280000	22251.555000	-18971.010000	-14796.495000	0.000000	0.000000	0.000000	0.000000	-76.498675	-7.523108	-102.423874	-125.749669	-0.000000	0.000000	-0.000000	-0.000000	7.660520	-1.556520	-1.861720	-0.016052	0.754148	0.655028	-1.000000	-1.000000	-1.000000	-1.000000	-1.000000	-1.000000	-1.000000	139.172414	0.000000	-1.000000	-1.000000	464106.000000	1772918957.762646
-4022.325000	22196.295000	-18917.955000	-14729.175000	0.000000	0.000000	0.000000	0.000000	-49.573610	-35.306405	-58.672994	-80.867658	-0.000000	0.000000	-0.000000	-0.000000	7.660520	-1.556520	-1.861720	-0.016052	0.754148	0.655028	-1.000000	-1.000000	-1.000000	-1.000000	-1.000000	-1.000000	-1.000000	139.172414	0.000000	-1.000000	-1.000000	464107.000000	1772918957.766625
-3937.230000	22202.550000	-18792.270000	-14575.005000	0.000000	0.000000	0.000000	0.000000	-2.881315	-27.954466	10.013115	-0.431867	-0.000000	0.000000	-0.000000	-0.000000	7.660520	-1.556520	-1.861720	-0.016052	0.754148	0.655028	-1.000000	-1.000000	-1.000000	-1.000000	-1.000000	-1.000000	-1.000000	139.172414	0.000000	-1.000000	-1.000000	464108.000000	1772918957.766627
-3927.150000	22251.735000	-18804.915000	-14563.845000	0.000000	0.000000	0.000000	0.000000	41.814428	11.732572	71.048352	77.929968	-0.000000	0.000000	-0.000000	-0.000000	7.660520	-1.556520	-1.861720	-0.016052	0.754148	0.655028	-1.000000	-1.000000	-1.000000	-1.000000	-1.000000	-1.000000	-1.000000	139.172414	0.000000	-1.000000	-1.000000	464109.000000	1772918957.770624
-3952.890000	22261.095000	-18846.810000	-14606.055000	0.000000	0.000000	0.000000	0.000000	64.669943	60.590559	95.724875	116.981265	-0.000000	0.000000	-0.000000	-0.000000	7.660520	-1.556520	-1.861720	-0.016052	0.754148	0.655028	-1.000000	-1.000000	-1.000000	-1.000000	-1.000000	-1.000000	-1.000000	139.172414	0.000000	-1.000000	-1.000000	464110.000000	1772918957.770627
-4032.495000	22313.610000	-18931.500000	-14716.260000	0.000000	0.000000	0.000000	0.000000	53.433571	91.102382	70.159340	94.594814	-0.000000	0.000000	-0.000000	-0.000000	7.660520	-1.556520	-1.861720	-0.016052	0.754148	0.655028	-1.000000	-1.000000	-1.000000	-1.000000	-1.000000	-1.000000	-1.000000	139.172414	0.000000	-1.000000	-1.000000	464111.000000	1772918957.774491
-4136.130000	22371.885000	-19077.255000	-14915.385000	0.000000	0.000000	0.000000	0.000000	11.563082	87.667589	5.738567	18.585970	-0.000000	0.000000	-0.000000	-0.000000	7.660520	-1.556520	-1.861720	-0.016052	0.754148	0.655028	-1.000000	-1.000000	-1.000000	-1.000000	-1.000000	-1.000000	-1.000000	139.172414	0.000000	-1.000000	-1.000000	464112.000000	1772918957.774494
-4133.295000	22280.580000	-19065.510000	-14918.850000	0.000000	0.000000	0.000000	0.000000	-39.647137	51.491776	-64.598391	-73.430095	-0.000000	0.000000	-0.000000	-0.000000	14.878500	-1.113980	-2.624720	-0.018555	0.745115	0.662352	-1.000000	-1.000000	-1.000000	-1.000000	-1.000000	-1.000000	-1.000000	139.172414	0.000000	-1.000000	-1.000000	464113.000000	1772918957.778842
-4085.685000	22219.695000	-18998.955000	-14845.095000	0.000000	0.000000	0.000000	0.000000	-69.027248	-7.498835	-100.172802	-128.094937	-0.000000	0.000000	-0.000000	-0.000000	14.878500	-1.113980	-2.624720	-0.018555	0.745115	0.662352	-1.000000	-1.000000	-1.000000	-1.000000	-1.000000	-1.000000	-1.000000	139.172414	0.000000	-1.000000	-1.000000	464114.000000	1772918957.778845
-4030.065000	22192.695000	-18926.955000	-14764.455000	0.000000	0.000000	0.000000	0.000000	-55.545358	-71.153501	-76.488700	-108.019678	-0.000000	0.000000	-0.000000	-0.000000	14.878500	-1.113980	-2.624720	-0.018555	0.745115	0.662352	-1.000000	-1.000000	-1.000000	-1.000000	-1.000000	-1.000000	-1.000000	139.172414	0.000000	-1.000000	-1.000000	464115.000000	1772918957.782717
-3925.575000	22090.680000	-18800.055000	-14613.885000	0.000000	0.000000	0.000000	0.000000	-5.109140	-114.376337	-5.113169	-21.807984	-0.000000	0.000000	-0.000000	-0.000000	14.878500	-1.113980	-2.624720	-0.018555	0.745115	0.662352	-1.000000	-1.000000	-1.000000	-1.000000	-1.000000	-1.000000	-1.000000	139.172414	0.000000	-1.000000	-1.000000	464116.000000	1772918957.782720
-3882.285000	22007.610000	-18757.170000	-14558.805000	0.000000	0.000000	0.000000	0.000000	54.066371	-121.281285	74.058096	82.000212	-0.000000	0.000000	-0.000000	-0.000000	14.878500	-1.113980	-2.624720	-0.018555	0.745115	0.662352	-1.000000	-1.000000	-1.000000	-1.000000	-1.000000	-1.000000	-1.000000	139.172414	0.000000	-1.000000	-1.000000	464117.000000	1772918957.786897
-3918.375000	21976.695000	-18793.755000	-14603.445000	0.000000	0.000000	0.000000	0.000000	88.152829	-93.082603	116.758826	145.282939	-0.000000	0.000000	-0.000000	-0.000000	14.878500	-1.113980	-2.624720	-0.018555	0.745115	0.662352	-1.000000	-1.000000	-1.000000	-1.000000	-1.000000	-1.000000	-1.000000	139.172414	0.000000	-1.000000	-1.000000	464118.000000	1772918957.786899
-3981.015000	21979.980000	-18848.790000	-14669.910000	0.000000	0.000000	0.000000	0.000000	75.124046	-40.161282	97.774052	131.855301	-0.000000	0.000000	-0.000000	-0.000000	14.878500	-1.113980	-2.624720	-0.018555	0.745115	0.662352	-1.000000	-1.000000	-1.000000	-1.000000	-1.000000	-1.000000	-1.000000	139.172414	0.000000	-1.000000	-1.000000	464119.000000	1772918957.790762
-4066.290000	21979.170000	-18976.230000	-14806.215000	0.000000	0.000000	0.000000	0.000000	18.835530	22.569062	25.467017	48.244919	-0.000000	0.000000	-0.000000	-0.000000	14.878500	-1.113980	-2.624720	-0.018555	0.745115	0.662352	-1.000000	-1.000000	-1.000000	-1.000000	-1.000000	-1.000000	-1.000000	139.172414	0.000000	-1.000000	-1.000000	464120.000000	1772918957.790764
-4118.085000	22006.080000	-19046.790000	-14889.555000	0.000000	0.000000	0.000000	0.000000	-51.649897	76.398244	-63.820603	-61.596954	-0.000000	0.000000	-0.000000	-0.000000	14.878500	-1.113980	-2.624720	-0.018555	0.745115	0.662352	-1.000000	-1.000000	-1.000000	-1.000000	-1.000000	-1.000000	-1.000000	139.172414	0.000000	-1.000000	-1.000000	464121.000000	1772918957.794665
-4074.390000	21911.580000	-18986.445000	-14826.780000	0.000000	0.000000	0.000000	0.000000	-98.060113	102.904316	-123.960366	-140.293048	-0.000000	0.000000	-0.000000	-0.000000	14.878500	-1.113980	-2.624720	-0.018555	0.745115	0.662352	-1.000000	-1.000000	-1.000000	-1.000000	-1.000000	-1.000000	-1.000000	139.172414	0.000000	-1.000000	-1.000000	464122.000000	1772918957.794668
-4033.845000	21830.895000	-18931.050000	-14763.645000	0.000000	0.000000	0.000000	0.000000	-93.964581	90.194760	-121.003120	-145.389588	-0.000000	0.000000	-0.000000	-0.000000	28.002100	-2.197440	-3.815000	-0.015808	0.726622	0.665587	-1.000000	-1.000000	-1.000000	-1.000000	-1.000000	-1.000000	-1.000000	139.172414	0.000000	-1.000000	-1.000000	464123.000000	1772918957.798857
-3971.925000	21919.995000	-18837.315000	-14653.755000	0.000000	0.000000	0.000000	0.000000	-41.437846	45.330123	-55.176919	-74.827249	-0.000000	0.000000	-0.000000	-0.000000	28.002100	-2.197440	-3.815000	-0.015808	0.726622	0.665587	-1.000000	-1.000000	-1.000000	-1.000000	-1.000000	-1.000000	-1.000000	139.172414	0.000000	-1.000000	-1.000000	464124.000000	1772918957.798860
-3918.555000	21998.340000	-18765.495000	-14549.445000	0.000000	0.000000	0.000000	0.000000	30.319984	-1.292666	37.613770	31.728967	-0.000000	0.000000	-0.000000	-0.000000	28.002100	-2.197440	-3.815000	-0.015808	0.726622	0.665587	-1.000000	-1.000000	-1.000000	-1.000000	-1.000000	-1.000000	-1.000000	139.172414	0.000000	-1.000000	-1.000000	464125.000000	1772918957.802752
-3948.975000	22075.065000	-18807.885000	-14579.145000	0.000000	0.000000	0.000000	0.000000	83.528718	-20.764408	107.946630	117.751785	-0.000000	0.000000	-0.000000	-0.000000	28.002100	-2.197440	-3.815000	-0.015808	0.726622	0.665587	-1.000000	-1.000000	-1.000000	-1.000000	-1.000000	-1.000000	-1.000000	139.172414	0.000000	-1.000000	-1.000000	464126.000000	1772918957.802755
-3984.030000	22097.655000	-18855.450000	-14626.035000	0.000000	0.000000	0.000000	0.000000	91.755033	-12.225246	119.421841	139.064650	-0.000000	0.000000	-0.000000	-0.000000	28.002100	-2.197440	-3.815000	-0.015808	0.726622	0.665587	-1.000000	-1.000000	-1.000000	-1.000000	-1.000000	-1.000000	-1.000000	139.172414	0.000000	-1.000000	-1.000000	464127.000000	1772918957.806829
-4053.735000	22125.825000	-18958.545000	-14758.650000	0.000000	0.000000	0.000000	0.000000	53.154609	2.568497	68.193206	86.172048	-0.000000	0.000000	-0.000000	-0.000000	28.002100	-2.197440	-3.815000	-0.015808	0.726622	0.665587	-1.000000	-1.000000	-1.000000	-1.000000	-1.000000	-1.000000	-1.000000	139.172414	0.000000	-1.000000	-1.000000	464128.000000	1772918957.806832
-4152.060000	22138.830000	-19087.245000	-14925.735000	0.000000	0.000000	0.000000	0.000000	-10.416413	3.515980	-16.941359	-12.612803	-0.000000	0.000000	-0.000000	-0.000000	28.002100	-2.197440	-3.815000	-0.015808	0.726622	0.665587	-1.000000	-1.000000	-1.000000	-1.000000	-1.000000	-1.000000	-1.000000	139.172414	0.000000	-1.000000	-1.000000	464129.000000	1772918957.810873
-4173.300000	22236.480000	-19093.320000	-14932.035000	0.000000	0.000000	0.000000	0.000000	-67.148323	-11.189817	-92.281983	-107.044940	-0.000000	0.000000	-0.000000	-0.000000	28.002100	-2.197440	-3.815000	-0.015808	0.726622	0.665587	-1.000000	-1.000000	-1.000000	-1.000000	-1.000000	-1.000000	-1.000000	139.172414	0.000000	-1.000000	-1.000000	464130.000000	1772918957.810876
-4123.080000	22293.900000	-19026.990000	-14868.855000	0.000000	0.000000	0.000000	0.000000	-88.654236	-27.457837	-118.286569	-146.091810	-0.000000	0.000000	-0.000000	-0.000000	28.002100	-2.197440	-3.815000	-0.015808	0.726622	0.665587	-1.000000	-1.000000	-1.000000	-1.000000	-1.000000	-1.000000	-1.000000	139.172414	0.000000	-1.000000	-1.000000	464131.000000	1772918957.814756
-4039.020000	22311.945000	-18924.390000	-14777.190000	0.000000	0.000000	0.000000	0.000000	-61.872740	-32.866844	-78.671322	-105.235660	-0.000000	0.000000	-0.000000	-0.000000	28.002100	-2.197440	-3.815000	-0.015808	0.726622	0.665587	-1.000000	-1.000000	-1.000000	-1.000000	-1.000000	-1.000000	-1.000000	139.172414	0.000000	-1.000000	-1.000000	464132.000000	1772918957.814759
-3942.990000	22310.820000	-18803.475000	-14649.390000	0.000000	0.000000	0.000000	0.000000	1.512928	-28.887669	7.349883	-5.087319	-0.000000	0.000000	-0.000000	-0.000000	30.718380	2.868880	0.824040	-0.016357	0.745359	0.658140	-1.000000	-1.000000	-1.000000	-1.000000	-1.000000	-1.000000	-1.000000	139.172414	0.000000	-1.000000	-1.000000	464133.000000	1772918957.818822
-3965.490000	22316.805000	-18828.765000	-14649.705000	0.000000	0.000000	0.000000	0.000000	67.673528	-24.001611	93.126706	99.998438	-0.000000	0.000000	-0.000000	-0.000000	30.718380	2.868880	0.824040	-0.016357	0.745359	0.658140	-1.000000	-1.000000	-1.000000	-1.000000	-1.000000	-1.000000	-1.000000	139.172414	0.000000	-1.000000	-1.000000	464134.000000	1772918957.818825
-3981.870000	22312.395000	-18853.515000	-14677.965000	0.000000	0.000000	0.000000	0.000000	98.219400	-21.897588	129.789934	153.053042	-0.000000	0.000000	-0.000000	-0.000000	30.718380	2.868880	0.824040	-0.016357	0.745359	0.658140	-1.000000	-1.000000	-1.000000	-1.000000	-1.000000	-1.000000	-1.000000	139.172414	0.000000	-1.000000	-1.000000	464135.000000	1772918957.822814
-4000.590000	22366.170000	-18898.605000	-14726.610000	0.000000	0.000000	0.000000	0.000000	75.931831	-18.951421	97.147366	127.337325	-0.000000	0.000000	-0.000000	-0.000000	30.718380	2.868880	0.824040	-0.016357	0.745359	0.658140	-1.000000	-1.000000	-1.000000	-1.000000	-1.000000	-1.000000	-1.000000	139.172414	0.000000	-1.000000	-1.000000	464136.000000	1772918957.822817
-4093.830000	22476.645000	-19030.095000	-14869.530000	0.000000	0.000000	0.000000	0.000000	15.486020	-7.774704	15.248914	39.915530	-0.000000	0.000000	-0.000000	-0.000000	30.718380	2.868880	0.824040	-0.016357	0.745359	0.658140	-1.000000	-1.000000	-1.000000	-1.000000	-1.000000	-1.000000	-1.000000	139.172414	0.000000	-1.000000	-1.000000	464137.000000	1772918957.826962
-4168.080000	22546.575000	-19105.785000	-14953.545000	0.000000	0.000000	0.000000	0.000000	-51.791168	15.103362	-73.899049	-64.268357	-0.000000	0.000000	-0.000000	-0.000000	30.718380	2.868880	0.824040	-0.016357	0.745359	0.658140	-1.000000	-1.000000	-1.000000	-1.000000	-1.000000	-1.000000	-1.000000	139.172414	0.000000	-1.000000	-1.000000	464138.000000	1772918957.826964
-4158.000000	22586.895000	-19061.730000	-14908.950000	0.000000	0.000000	0.000000	0.000000	-95.424147	40.794092	-127.821448	-135.174031	-0.000000	0.000000	-0.000000	-0.000000	30.718380	2.868880	0.824040	-0.016357	0.745359	0.658140	-1.000000	-1.000000	-1.000000	-1.000000	-1.000000	-1.000000	-1.000000	139.172414	0.000000	-1.000000	-1.000000	464139.000000	1772918957.830862
-4125.645000	22554.315000	-18995.940000	-14835.915000	0.000000	0.000000	0.000000	0.000000	-94.868693	51.086549	-118.758095	-137.054658	-0.000000	0.000000	-0.000000	-0.000000	30.718380	2.868880	0.824040	-0.016357	0.745359	0.658140	-1.000000	-1.000000	-1.000000	-1.000000	-1.000000	-1.000000	-1.000000	139.172414	0.000000	-1.000000	-1.000000	464140.000000	1772918957.830865
-4023.270000	22466.340000	-18884.385000	-14697.765000	0.000000	0.000000	0.000000	0.000000	-48.566967	32.448835	-49.441170	-68.178464	-0.000000	0.000000	-0.000000	-0.000000	30.718380	2.868880	0.824040	-0.016357	0.745359	0.658140	-1.000000	-1.000000	-1.000000	-1.000000	-1.000000	-1.000000	-1.000000	139.172414	0.000000	-1.000000	-1.000000	464141.000000	1772918957.834888
-3982.320000	22472.415000	-18867.600000	-14648.670000	0.000000	0.000000	0.000000	0.000000	22.440125	-10.419144	44.144511	34.836495	-0.000000	0.000000	-0.000000	-0.000000	30.718380	2.868880	0.824040	-0.016357	0.745359	0.658140	-1.000000	-1.000000	-1.000000	-1.000000	-1.000000	-1.000000	-1.000000	139.172414	0.000000	-1.000000	-1.000000	464142.000000	1772918957.834891
-4002.525000	22434.795000	-18913.860000	-14679.945000	0.000000	0.000000	0.000000	0.000000	82.263009	-53.222033	111.088968	115.710712	-0.000000	0.000000	-0.000000	-0.000000	18.144140	3.296160	-6.928040	-0.012085	0.749754	0.640684	-1.000000	-1.000000	-1.000000	-1.000000	-1.000000	-1.000000	-1.000000	139.172414	0.000000	-1.000000	-1.000000	464143.000000	1772918957.838962
-4040.055000	22410.900000	-18948.915000	-14699.835000	0.000000	0.000000	0.000000	0.000000	98.727733	-70.552747	115.968619	131.083567	-0.000000	0.000000	-0.000000	-0.000000	18.144140	3.296160	-6.928040	-0.012085	0.749754	0.640684	-1.000000	-1.000000	-1.000000	-1.000000	-1.000000	-1.000000	-1.000000	139.172414	0.000000	-1.000000	-1.000000	464144.000000	1772918957.838964
-4071.240000	22358.925000	-18992.205000	-14744.340000	0.000000	0.000000	0.000000	0.000000	64.679389	-55.743763	61.808894	77.987026	-0.000000	0.000000	-0.000000	-0.000000	18.144140	3.296160	-6.928040	-0.012085	0.749754	0.640684	-1.000000	-1.000000	-1.000000	-1.000000	-1.000000	-1.000000	-1.000000	139.172414	0.000000	-1.000000	-1.000000	464145.000000	1772918957.842614
-4122.135000	22390.785000	-19026.720000	-14787.045000	0.000000	0.000000	0.000000	0.000000	2.058021	-19.783181	-15.621708	-8.417055	-0.000000	0.000000	-0.000000	-0.000000	18.144140	3.296160	-6.928040	-0.012085	0.749754	0.640684	-1.000000	-1.000000	-1.000000	-1.000000	-1.000000	-1.000000	-1.000000	139.172414	0.000000	-1.000000	-1.000000	464146.000000	1772918957.842617
-4171.680000	22481.775000	-19049.400000	-14797.440000	0.000000	0.000000	0.000000	0.000000	-55.739051	23.299074	-74.901373	-81.770035	-0.000000	0.000000	-0.000000	-0.000000	18.144140	3.296160	-6.928040	-0.012085	0.749754	0.640684	-1.000000	-1.000000	-1.000000	-1.000000	-1.000000	-1.000000	-1.000000	139.172414	0.000000	-1.000000	-1.000000	464147.000000	1772918957.848824
-4143.960000	22484.745000	-19020.015000	-14841.495000	0.000000	0.000000	0.000000	0.000000	-82.948880	62.096876	-91.244413	-110.726435	-0.000000	0.000000	-0.000000	-0.000000	18.144140	3.296160	-6.928040	-0.012085	0.749754	0.640684	-1.000000	-1.000000	-1.000000	-1.000000	-1.000000	-1.000000	-1.000000	139.172414	0.000000	-1.000000	-1.000000	464148.000000	1772918957.848828
-4019.175000	22398.165000	-18926.505000	-14764.590000	0.000000	0.000000	0.000000	0.000000	-67.964631	81.021231	-62.303498	-89.697925	-0.000000	0.000000	-0.000000	-0.000000	18.144140	3.296160	-6.928040	-0.012085	0.749754	0.640684	-1.000000	-1.000000	-1.000000	-1.000000	-1.000000	-1.000000	-1.000000	139.172414	0.000000	-1.000000	-1.000000	464149.000000	1772918957.850953
-3956.580000	22416.660000	-18870.705000	-14627.115000	0.000000	0.000000	0.000000	0.000000	-16.341563	66.254842	-4.493569	-31.494060	-0.000000	0.000000	-0.000000	-0.000000	18.144140	3.296160	-6.928040	-0.012085	0.749754	0.640684	-1.000000	-1.000000	-1.000000	-1.000000	-1.000000	-1.000000	-1.000000	139.172414	0.000000	-1.000000	-1.000000	464150.000000	1772918957.850956
-3972.645000	22479.210000	-18871.740000	-14671.890000	0.000000	0.000000	0.000000	0.000000	44.777937	25.813519	52.470926	39.122705	-0.000000	0.000000	-0.000000	-0.000000	18.144140	3.296160	-6.928040	-0.012085	0.749754	0.640684	-1.000000	-1.000000	-1.000000	-1.000000	-1.000000	-1.000000	-1.000000	139.172414	0.000000	-1.000000	-1.000000	464151.000000	1772918957.855125
-4004.415000	22520.925000	-18895.905000	-14723.235000	0.000000	0.000000	0.000000	0.000000	78.039196	-12.957966	78.089280	86.172600	-0.000000	0.000000	-0.000000	-0.000000	18.144140	3.296160	-6.928040	-0.012085	0.749754	0.640684	-1.000000	-1.000000	-1.000000	-1.000000	-1.000000	-1.000000	-1.000000	139.172414	0.000000	-1.000000	-1.000000	464152.000000	1772918957.855128
-4087.980000	22478.445000	-18999.765000	-14805.495000	0.000000	0.000000	0.000000	0.000000	62.792985	-31.442352	58.584530	81.922551	-0.000000	0.000000	-0.000000	-0.000000	17.930500	7.095900	-9.980040	-0.009155	0.763487	0.636900	-1.000000	-1.000000	-1.000000	-1.000000	-1.000000	-1.000000	-1.000000	139.172414	0.000000	-1.000000	-1.000000	464153.000000	1772918957.860083
-4170.870000	22414.320000	-19071.855000	-14885.010000	0.000000	0.000000	0.000000	0.000000	8.919626	-34.375974	4.559412	30.884135	-0.000000	0.000000	-0.000000	-0.000000	17.930500	7.095900	-9.980040	-0.009155	0.763487	0.636900	-1.000000	-1.000000	-1.000000	-1.000000	-1.000000	-1.000000	-1.000000	139.172414	0.000000	-1.000000	-1.000000	464154.000000	1772918957.860086
-4137.795000	22392.045000	-19018.935000	-14866.020000	0.000000	0.000000	0.000000	0.000000	-50.742034	-35.128548	-52.852577	-32.941585	-0.000000	0.000000	-0.000000	-0.000000	17.930500	7.095900	-9.980040	-0.009155	0.763487	0.636900	-1.000000	-1.000000	-1.000000	-1.000000	-1.000000	-1.000000	-1.000000	139.172414	0.000000	-1.000000	-1.000000	464155.000000	1772918957.863458
-4137.390000	22375.305000	-19022.220000	-14872.365000	0.000000	0.000000	0.000000	0.000000	-79.753223	-36.511597	-78.106584	-69.927129	-0.000000	0.000000	-0.000000	-0.000000	17.930500	7.095900	-9.980040	-0.009155	0.763487	0.636900	-1.000000	-1.000000	-1.000000	-1.000000	-1.000000	-1.000000	-1.000000	139.172414	0.000000	-1.000000	-1.000000	464156.000000	1772918957.863463
-4035.285000	22321.440000	-18909.630000	-14732.460000	0.000000	0.000000	0.000000	0.000000	-61.070337	-32.201509	-55.974106	-59.269177	-0.000000	0.000000	-0.000000	-0.000000	17.930500	7.095900	-9.980040	-0.009155	0.763487	0.636900	-1.000000	-1.000000	-1.000000	-1.000000	-1.000000	-1.000000	-1.000000	139.172414	0.000000	-1.000000	-1.000000	464157.000000	1772918957.866907
-3873.645000	22279.860000	-18723.555000	-14494.950000	0.000000	0.000000	0.000000	0.000000	-4.380963	-19.578146	1.980400	-5.165032	-0.000000	0.000000	-0.000000	-0.000000	17.930500	7.095900	-9.980040	-0.009155	0.763487	0.636900	-1.000000	-1.000000	-1.000000	-1.000000	-1.000000	-1.000000	-1.000000	139.172414	0.000000	-1.000000	-1.000000	464158.000000	1772918957.866909
-3921.390000	22316.040000	-18792.810000	-14498.595000	0.000000	0.000000	0.000000	0.000000	60.657052	-1.325319	65.783285	66.043291	-0.000000	0.000000	-0.000000	-0.000000	17.930500	7.095900	-9.980040	-0.009155	0.763487	0.636900	-1.000000	-1.000000	-1.000000	-1.000000	-1.000000	-1.000000	-1.000000	139.172414	0.000000	-1.000000	-1.000000	464159.000000	1772918957.870892
-4035.195000	22338.945000	-18940.995000	-14588.505000	0.000000	0.000000	0.000000	0.000000	92.834006	20.375517	93.313126	107.986600	-0.000000	0.000000	-0.000000	-0.000000	17.930500	7.095900	-9.980040	-0.009155	0.763487	0.636900	-1.000000	-1.000000	-1.000000	-1.000000	-1.000000	-1.000000	-1.000000	139.172414	0.000000	-1.000000	-1.000000	464160.000000	1772918957.870895
-4079.430000	22321.440000	-19049.985000	-14739.840000	0.000000	0.000000	0.000000	0.000000	65.667785	41.066590	56.665930	81.188945	-0.000000	0.000000	-0.000000	-0.000000	17.930500	7.095900	-9.980040	-0.009155	0.763487	0.636900	-1.000000	-1.000000	-1.000000	-1.000000	-1.000000	-1.000000	-1.000000	139.172414	0.000000	-1.000000	-1.000000	464161.000000	1772918957.875066
-4151.430000	22300.470000	-19156.770000	-14890.905000	0.000000	0.000000	0.000000	0.000000	-4.965024	50.563428	-26.189783	-9.408668	-0.000000	0.000000	-0.000000	-0.000000	17.930500	7.095900	-9.980040	-0.009155	0.763487	0.636900	-1.000000	-1.000000	-1.000000	-1.000000	-1.000000	-1.000000	-1.000000	139.172414	0.000000	-1.000000	-1.000000	464162.000000	1772918957.875069
-4196.295000	22267.935000	-19121.220000	-14875.560000	0.000000	0.000000	0.000000	0.000000	-73.855693	40.931163	-100.995566	-111.526165	-0.000000	0.000000	-0.000000	-0.000000	16.511320	7.187460	-7.507920	-0.011414	0.765257	0.635252	-1.000000	-1.000000	-1.000000	-1.000000	-1.000000	-1.000000	-1.000000	139.172414	0.000000	-1.000000	-1.000000	464163.000000	1772918957.879004
-4173.480000	22271.985000	-19071.270000	-14877.945000	0.000000	0.000000	0.000000	0.000000	-101.967349	15.712135	-117.509962	-160.432351	-0.000000	0.000000	-0.000000	-0.000000	16.511320	7.187460	-7.507920	-0.011414	0.765257	0.635252	-1.000000	-1.000000	-1.000000	-1.000000	-1.000000	-1.000000	-1.000000	139.172414	0.000000	-1.000000	-1.000000	464164.000000	1772918957.879007
-4045.410000	22255.830000	-18985.320000	-14842.800000	0.000000	0.000000	0.000000	0.000000	-74.811480	-11.776704	-63.537415	-125.329810	-0.000000	0.000000	-0.000000	-0.000000	16.511320	7.187460	-7.507920	-0.011414	0.765257	0.635252	-1.000000	-1.000000	-1.000000	-1.000000	-1.000000	-1.000000	-1.000000	139.172414	0.000000	-1.000000	-1.000000	464165.000000	1772918957.883005
-3944.160000	22237.920000	-18873.630000	-14653.080000	0.000000	0.000000	0.000000	0.000000	-4.357207	-29.001271	30.065431	-25.945206	-0.000000	0.000000	-0.000000	-0.000000	16.511320	7.187460	-7.507920	-0.011414	0.765257	0.635252	-1.000000	-1.000000	-1.000000	-1.000000	-1.000000	-1.000000	-1.000000	139.172414	0.000000	-1.000000	-1.000000	464166.000000	1772918957.883008
-3976.290000	22240.170000	-18879.255000	-14591.925000	0.000000	0.000000	0.000000	0.000000	73.067397	-31.704556	111.996898	89.077937	-0.000000	0.000000	-0.000000	-0.000000	16.511320	7.187460	-7.507920	-0.011414	0.765257	0.635252	-1.000000	-1.000000	-1.000000	-1.000000	-1.000000	-1.000000	-1.000000	139.172414	0.000000	-1.000000	-1.000000	464167.000000	1772918957.887831
-4075.335000	22258.395000	-18915.840000	-14666.760000	0.000000	0.000000	0.000000	0.000000	110.724997	-22.166383	138.487999	164.444698	-0.000000	0.000000	-0.000000	-0.000000	16.511320	7.187460	-7.507920	-0.011414	0.765257	0.635252	-1.000000	-1.000000	-1.000000	-1.000000	-1.000000	-1.000000	-1.000000	139.172414	0.000000	-1.000000	-1.000000	464168.000000	1772918957.887834
-4070.700000	22177.170000	-18940.365000	-14724.405000	0.000000	0.000000	0.000000	0.000000	84.404511	-7.253227	96.460980	159.690624	-0.000000	0.000000	-0.000000	-0.000000	16.511320	7.187460	-7.507920	-0.011414	0.765257	0.635252	-1.000000	-1.000000	-1.000000	-1.000000	-1.000000	-1.000000	-1.000000	139.172414	0.000000	-1.000000	-1.000000	464169.000000	1772918957.891019
-4115.520000	22142.520000	-19058.445000	-14830.740000	0.000000	0.000000	0.000000	0.000000	14.356390	2.523819	10.013776	76.892901	-0.000000	0.000000	-0.000000	-0.000000	16.511320	7.187460	-7.507920	-0.011414	0.765257	0.635252	-1.000000	-1.000000	-1.000000	-1.000000	-1.000000	-1.000000	-1.000000	139.172414	0.000000	-1.000000	-1.000000	464170.000000	1772918957.891022
-4168.530000	22008.330000	-19075.635000	-14874.840000	0.000000	0.000000	0.000000	0.000000	-55.000601	-0.090090	-77.572926	-37.764875	-0.000000	0.000000	-0.000000	-0.000000	16.511320	7.187460	-7.507920	-0.011414	0.765257	0.635252	-1.000000	-1.000000	-1.000000	-1.000000	-1.000000	-1.000000	-1.000000	139.172414	0.000000	-1.000000	-1.000000	464171.000000	1772918957.895017
-4067.460000	21928.680000	-18924.435000	-14782.140000	0.000000	0.000000	0.000000	0.000000	-88.315688	-13.490991	-123.535841	-122.490877	-0.000000	0.000000	-0.000000	-0.000000	16.511320	7.187460	-7.507920	-0.011414	0.765257	0.635252	-1.000000	-1.000000	-1.000000	-1.000000	-1.000000	-1.000000	-1.000000	139.172414	0.000000	-1.000000	-1.000000	464172.000000	1772918957.895020
-4017.195000	22021.245000	-18863.910000	-14738.400000	0.000000	0.000000	0.000000	0.000000	-71.945644	-24.658970	-102.941077	-134.580392	-0.000000	0.000000	-0.000000	-0.000000	19.090260	-2.685760	-11.124540	-0.021301	0.755735	0.643736	-1.000000	-1.000000	-1.000000	-1.000000	-1.000000	-1.000000	-1.000000	139.172414	0.000000	-1.000000	-1.000000	464173.000000	1772918957.899058
-4021.155000	22009.050000	-18816.930000	-14640.390000	0.000000	0.000000	0.000000	0.000000	-19.115934	-15.237024	-29.804222	-75.421310	-0.000000	0.000000	-0.000000	-0.000000	19.090260	-2.685760	-11.124540	-0.021301	0.755735	0.643736	-1.000000	-1.000000	-1.000000	-1.000000	-1.000000	-1.000000	-1.000000	139.172414	0.000000	-1.000000	-1.000000	464174.000000	1772918957.899060
-4060.710000	22063.905000	-18807.075000	-14614.020000	0.000000	0.000000	0.000000	0.000000	34.477589	17.478463	48.372688	13.757872	-0.000000	0.000000	-0.000000	-0.000000	19.090260	-2.685760	-11.124540	-0.021301	0.755735	0.643736	-1.000000	-1.000000	-1.000000	-1.000000	-1.000000	-1.000000	-1.000000	139.172414	0.000000	-1.000000	-1.000000	464175.000000	1772918957.903082
-4011.615000	22190.355000	-18794.655000	-14680.755000	0.000000	0.000000	0.000000	0.000000	57.728599	56.259481	87.360900	80.275831	-0.000000	0.000000	-0.000000	-0.000000	19.090260	-2.685760	-11.124540	-0.021301	0.755735	0.643736	-1.000000	-1.000000	-1.000000	-1.000000	-1.000000	-1.000000	-1.000000	139.172414	0.000000	-1.000000	-1.000000	464176.000000	1772918957.903084
-3934.620000	22195.125000	-18770.670000	-14656.905000	0.000000	0.000000	0.000000	0.000000	48.432329	80.883476	74.618496	90.836520	-0.000000	0.000000	-0.000000	-0.000000	19.090260	-2.685760	-11.124540	-0.021301	0.755735	0.643736	-1.000000	-1.000000	-1.000000	-1.000000	-1.000000	-1.000000	-1.000000	139.172414	0.000000	-1.000000	-1.000000	464177.000000	1772918957.907023
-3985.470000	22177.710000	-18847.350000	-14701.365000	0.000000	0.000000	0.000000	0.000000	24.412335	75.682246	27.129624	50.139763	-0.000000	0.000000	-0.000000	-0.000000	19.090260	-2.685760	-11.124540	-0.021301	0.755735	0.643736	-1.000000	-1.000000	-1.000000	-1.000000	-1.000000	-1.000000	-1.000000	139.172414	0.000000	-1.000000	-1.000000	464178.000000	1772918957.907026
-4152.735000	22162.140000	-19038.915000	-14915.115000	0.000000	0.000000	0.000000	0.000000	-4.171286	35.632989	-31.298068	-13.049589	-0.000000	0.000000	-0.000000	-0.000000	19.090260	-2.685760	-11.124540	-0.021301	0.755735	0.643736	-1.000000	-1.000000	-1.000000	-1.000000	-1.000000	-1.000000	-1.000000	139.172414	0.000000	-1.000000	-1.000000	464179.000000	1772918957.911059
-4224.420000	22225.365000	-19065.060000	-14953.725000	0.000000	0.000000	0.000000	0.000000	-38.274147	-23.042019	-81.678873	-71.450048	-0.000000	0.000000	-0.000000	-0.000000	19.090260	-2.685760	-11.124540	-0.021301	0.755735	0.643736	-1.000000	-1.000000	-1.000000	-1.000000	-1.000000	-1.000000	-1.000000	139.172414	0.000000	-1.000000	-1.000000	464180.000000	1772918957.911062
-4215.150000	22257.495000	-19000.080000	-14884.785000	0.000000	0.000000	0.000000	0.000000	-67.986555	-69.553085	-101.390034	-99.191869	-0.000000	0.000000	-0.000000	-0.000000	19.090260	-2.685760	-11.124540	-0.021301	0.755735	0.643736	-1.000000	-1.000000	-1.000000	-1.000000	-1.000000	-1.000000	-1.000000	139.172414	0.000000	-1.000000	-1.000000	464181.000000	1772918957.915092
-3956.760000	22238.550000	-18923.805000	-14705.640000	0.000000	0.000000	0.000000	0.000000	-66.026713	-83.099905	-70.459179	-72.539775	-0.000000	0.000000	-0.000000	-0.000000	19.090260	-2.685760	-11.124540	-0.021301	0.755735	0.643736	-1.000000	-1.000000	-1.000000	-1.000000	-1.000000	-1.000000	-1.000000	139.172414	0.000000	-1.000000	-1.000000	464182.000000	1772918957.915095
-3778.830000	22244.760000	-18867.105000	-14568.480000	0.000000	0.000000	0.000000	0.000000	-12.381097	-66.901726	3.618668	6.987161	-0.000000	0.000000	-0.000000	-0.000000	15.580460	-11.857020	-0.656180	-0.034363	0.814390	0.634825	-1.000000	-1.000000	-1.000000	-1.000000	-1.000000	-1.000000	-1.000000	139.172414	0.000000	-1.000000	-1.000000	464183.000000	1772918957.919072
-3980.430000	22299.030000	-18899.370000	-14631.930000	0.000000	0.000000	0.000000	0.000000	68.453832	-36.372815	81.547676	97.722423	-0.000000	0.000000	-0.000000	-0.000000	15.580460	-11.857020	-0.656180	-0.034363	0.814390	0.634825	-1.000000	-1.000000	-1.000000	-1.000000	-1.000000	-1.000000	-1.000000	139.172414	0.000000	-1.000000	-1.000000	464184.000000	1772918957.919074
-4186.530000	22264.155000	-19033.965000	-14785.155000	0.000000	0.000000	0.000000	0.000000	108.464200	-4.640846	116.621003	137.529229	-0.000000	0.000000	-0.000000	-0.000000	15.580460	-11.857020	-0.656180	-0.034363	0.814390	0.634825	-1.000000	-1.000000	-1.000000	-1.000000	-1.000000	-1.000000	-1.000000	139.172414	0.000000	-1.000000	-1.000000	464185.000000	1772918957.923051
-4216.590000	22284.585000	-19069.425000	-14846.220000	0.000000	0.000000	0.000000	0.000000	64.354596	18.402055	87.498078	93.031655	-0.000000	0.000000	-0.000000	-0.000000	15.580460	-11.857020	-0.656180	-0.034363	0.814390	0.634825	-1.000000	-1.000000	-1.000000	-1.000000	-1.000000	-1.000000	-1.000000	139.172414	0.000000	-1.000000	-1.000000	464186.000000	1772918957.923053
-4211.280000	22320.900000	-19148.670000	-14945.220000	0.000000	0.000000	0.000000	0.000000	-29.119515	28.264847	15.215562	-8.382911	-0.000000	0.000000	-0.000000	-0.000000	15.580460	-11.857020	-0.656180	-0.034363	0.814390	0.634825	-1.000000	-1.000000	-1.000000	-1.000000	-1.000000	-1.000000	-1.000000	139.172414	0.000000	-1.000000	-1.000000	464187.000000	1772918957.926106
-4116.555000	22333.320000	-19067.265000	-14870.340000	0.000000	0.000000	0.000000	0.000000	-95.921775	28.410002	-52.811407	-100.955707	-0.000000	0.000000	-0.000000	-0.000000	15.580460	-11.857020	-0.656180	-0.034363	0.814390	0.634825	-1.000000	-1.000000	-1.000000	-1.000000	-1.000000	-1.000000	-1.000000	139.172414	0.000000	-1.000000	-1.000000	464188.000000	1772918957.926108
-4114.080000	22339.125000	-19015.560000	-14802.840000	0.000000	0.000000	0.000000	0.000000	-90.708249	23.547250	-76.064855	-128.691797	-0.000000	0.000000	-0.000000	-0.000000	15.580460	-11.857020	-0.656180	-0.034363	0.814390	0.634825	-1.000000	-1.000000	-1.000000	-1.000000	-1.000000	-1.000000	-1.000000	139.172414	0.000000	-1.000000	-1.000000	464189.000000	1772918957.931017
-4083.300000	22351.905000	-18932.265000	-14755.320000	0.000000	0.000000	0.000000	0.000000	-27.879687	15.296504	-45.882185	-80.377947	-0.000000	0.000000	-0.000000	-0.000000	15.580460	-11.857020	-0.656180	-0.034363	0.814390	0.634825	-1.000000	-1.000000	-1.000000	-1.000000	-1.000000	-1.000000	-1.000000	139.172414	0.000000	-1.000000	-1.000000	464190.000000	1772918957.931019
-3868.110000	22339.710000	-18672.615000	-14512.995000	0.000000	0.000000	0.000000	0.000000	47.203597	4.745475	15.952571	10.733410	-0.000000	0.000000	-0.000000	-0.000000	15.580460	-11.857020	-0.656180	-0.034363	0.814390	0.634825	-1.000000	-1.000000	-1.000000	-1.000000	-1.000000	-1.000000	-1.000000	139.172414	0.000000	-1.000000	-1.000000	464191.000000	1772918957.980546
-3731.580000	22429.305000	-18575.415000	-14404.365000	0.000000	0.000000	0.000000	0.000000	101.021640	-4.503366	77.803506	97.970651	-0.000000	0.000000	-0.000000	-0.000000	15.580460	-11.857020	-0.656180	-0.034363	0.814390	0.634825	-1.000000	-1.000000	-1.000000	-1.000000	-1.000000	-1.000000	-1.000000	139.172414	0.000000	-1.000000	-1.000000	464192.000000	1772918957.980551
-3744.315000	22427.460000	-18598.995000	-14452.560000	0.000000	0.000000	0.000000	0.000000	116.795436	-7.086879	106.614911	140.456653	-0.000000	0.000000	-0.000000	-0.000000	-29.329720	-21.974400	15.443120	-0.039184	0.887815	0.615660	-1.000000	-1.000000	-1.000000	-1.000000	-1.000000	-1.000000	-1.000000	139.172414	0.000000	-1.000000	-1.000000	464193.000000	1772918957.980555
-3898.890000	22453.785000	-18731.925000	-14599.485000	0.000000	0.000000	0.000000	0.000000	80.970580	-2.907715	75.127327	109.941040	-0.000000	0.000000	-0.000000	-0.000000	-29.329720	-21.974400	15.443120	-0.039184	0.887815	0.615660	-1.000000	-1.000000	-1.000000	-1.000000	-1.000000	-1.000000	-1.000000	139.172414	0.000000	-1.000000	-1.000000	464194.000000	1772918957.980558
-4162.140000	22482.270000	-19022.490000	-14867.955000	0.000000	0.000000	0.000000	0.000000	-8.198568	1.845001	-17.661624	8.595374	-0.000000	0.000000	-0.000000	-0.000000	-29.329720	-21.974400	15.443120	-0.039184	0.887815	0.615660	-1.000000	-1.000000	-1.000000	-1.000000	-1.000000	-1.000000	-1.000000	139.172414	0.000000	-1.000000	-1.000000	464195.000000	1772918957.980561
-4164.390000	22491.720000	-19090.080000	-14919.120000	0.000000	0.000000	0.000000	0.000000	-119.617775	2.563474	-134.491945	-119.387205	-0.000000	0.000000	-0.000000	-0.000000	-29.329720	-21.974400	15.443120	-0.039184	0.887815	0.615660	-1.000000	-1.000000	-1.000000	-1.000000	-1.000000	-1.000000	-1.000000	139.172414	0.000000	-1.000000	-1.000000	464196.000000	1772918957.980564
-4199.940000	22440.960000	-19119.645000	-14963.400000	0.000000	0.000000	0.000000	0.000000	-191.546632	-2.235147	-210.252544	-203.428898	-0.000000	0.000000	-0.000000	-0.000000	-29.329720	-21.974400	15.443120	-0.039184	0.887815	0.615660	-1.000000	-1.000000	-1.000000	-1.000000	-1.000000	-1.000000	-1.000000	139.172414	0.000000	-1.000000	-1.000000	464197.000000	1772918957.980568
-4309.695000	22423.185000	-19085.040000	-14942.655000	0.000000	0.000000	0.000000	0.000000	-177.634809	-12.663661	-191.925897	-191.226102	-0.000000	0.000000	-0.000000	-0.000000	-29.329720	-21.974400	15.443120	-0.039184	0.887815	0.615660	-1.000000	-1.000000	-1.000000	-1.000000	-1.000000	-1.000000	-1.000000	139.172414	0.000000	-1.000000	-1.000000	464198.000000	1772918957.980570
-4076.280000	22466.745000	-18791.100000	-14697.675000	0.000000	0.000000	0.000000	0.000000	-83.549563	-23.199705	-76.416269	-83.343434	-0.000000	0.000000	-0.000000	-0.000000	-29.329720	-21.974400	15.443120	-0.039184	0.887815	0.615660	-1.000000	-1.000000	-1.000000	-1.000000	-1.000000	-1.000000	-1.000000	139.172414	0.000000	-1.000000	-1.000000	464199.000000	1772918957.980574
-4004.190000	22474.935000	-18835.740000	-14680.890000	0.000000	0.000000	0.000000	0.000000	50.025688	-23.405621	86.829869	71.369447	-0.000000	0.000000	-0.000000	-0.000000	-29.329720	-21.974400	15.443120	-0.039184	0.887815	0.615660	-1.000000	-1.000000	-1.000000	-1.000000	-1.000000	-1.000000	-1.000000	139.172414	0.000000	-1.000000	-1.000000	464200.000000	1772918957.980576
-3888.945000	22417.110000	-18797.310000	-14603.670000	0.000000	0.000000	0.000000	0.000000	169.782500	-10.788825	215.858395	198.502836	-0.000000	0.000000	-0.000000	-0.000000	-29.329720	-21.974400	15.443120	-0.039184	0.887815	0.615660	-1.000000	-1.000000	-1.000000	-1.000000	-1.000000	-1.000000	-1.000000	139.172414	0.000000	-1.000000	-1.000000	464201.000000	1772918957.980580
-3813.975000	22263.030000	-18736.020000	-14544.990000	0.000000	0.000000	0.000000	0.000000	225.304520	1.790970	245.138183	237.452761	-0.000000	0.000000	-0.000000	-0.000000	-29.329720	-21.974400	15.443120	-0.039184	0.887815	0.615660	-1.000000	-1.000000	-1.000000	-1.000000	-1.000000	-1.000000	-1.000000	139.172414	0.000000	-1.000000	-1.000000	464202.000000	1772918957.980582
-4021.380000	22311.540000	-18942.750000	-14755.140000	0.000000	0.000000	0.000000	0.000000	190.705036	1.630300	168.390890	174.698322	-0.000000	0.000000	-0.000000	-0.000000	-62.382880	-26.613440	23.576700	-0.031189	0.918760	0.632811	-1.000000	-1.000000	-1.000000	-1.000000	-1.000000	-1.000000	-1.000000	139.172414	0.000000	-1.000000	-1.000000	464203.000000	1772918957.980586
-4225.725000	22356.630000	-19148.760000	-14959.665000	0.000000	0.000000	0.000000	0.000000	72.690959	-3.353156	24.804876	37.689412	-0.000000	0.000000	-0.000000	-0.000000	-62.382880	-26.613440	23.576700	-0.031189	0.918760	0.632811	-1.000000	-1.000000	-1.000000	-1.000000	-1.000000	-1.000000	-1.000000	139.172414	0.000000	-1.000000	-1.000000	464204.000000	1772918957.980588
-4051.890000	22283.010000	-19002.915000	-14791.050000	0.000000	0.000000	0.000000	0.000000	-79.603428	3.012863	-121.931470	-113.309313	-0.000000	0.000000	-0.000000	-0.000000	-62.382880	-26.613440	23.576700	-0.031189	0.918760	0.632811	-1.000000	-1.000000	-1.000000	-1.000000	-1.000000	-1.000000	-1.000000	139.172414	0.000000	-1.000000	-1.000000	464205.000000	1772918957.980591
