Channel1	Channel2	Channel3	Channel4	Channel5	Channel6	Channel7	Channel8	FilteredChannel1	FilteredChannel2	FilteredChannel3	FilteredChannel4	FilteredChannel5	FilteredChannel6	FilteredChannel7	FilteredChannel8	GyroX	GyroY	GyroZ	AccX	AccY	AccZ	PPG1	PPG2	rawPPG1	rawPPG2	rawPPG3	Hr	Hrv	Battery	Trigger	PhysicalTrigger	AutoTrigger	NumMeasurements	Timestamp
-3722.625000	20397.915000	-21867.615000	-15205.815000	0.000000	0.000000	0.000000	0.000000	-60.889744	-11.347549	-109.863103	-97.562666	0.000000	-0.000000	-0.000000	-0.000000	6.867000	0.350980	-0.198380	-0.020386	0.877256	0.465026	-1.000000	-1.000000	-1.000000	-1.000000	-1.000000	-1.000000	-1.000000	138.827586	0.000000	-1.000000	-1.000000	650653.000000	1772919331.941507
-3635.640000	20440.935000	-21712.320000	-15067.665000	0.000000	0.000000	0.000000	0.000000	0.932316	3.732989	-2.975034	-0.830941	0.000000	-0.000000	-0.000000	-0.000000	6.867000	0.350980	-0.198380	-0.020386	0.877256	0.465026	-1.000000	-1.000000	-1.000000	-1.000000	-1.000000	-1.000000	-1.000000	138.827586	0.000000	-1.000000	-1.000000	650654.000000	1772919331.941509
-3645.225000	20512.035000	-21719.205000	-15075.720000	0.000000	0.000000	0.000000	0.000000	61.437243	19.456515	104.461749	95.151184	0.000000	-0.000000	-0.000000	-0.000000	6.867000	0.350980	-0.198380	-0.020386	0.877256	0.465026	-1.000000	-1.000000	-1.000000	-1.000000	-1.000000	-1.000000	-1.000000	138.827586	0.000000	-1.000000	-1.000000	650655.000000	1772919331.945521
-3697.020000	20558.250000	-21799.305000	-15150.555000	0.000000	0.000000	0.000000	0.000000	86.697004	36.278600	153.081046	137.187479	0.000000	-0.000000	-0.000000	-0.000000	6.867000	0.350980	-0.198380	-0.020386	0.877256	0.465026	-1.000000	-1.000000	-1.000000	-1.000000	-1.000000	-1.000000	-1.000000	138.827586	0.000000	-1.000000	-1.000000	650656.000000	1772919331.945523
-3767.355000	20612.925000	-21910.230000	-15250.545000	0.000000	0.000000	0.000000	0.000000	61.911494	48.807459	115.139814	101.287310	0.000000	-0.000000	-0.000000	-0.000000	6.867000	0.350980	-0.198380	-0.020386	0.877256	0.465026	-1.000000	-1.000000	-1.000000	-1.000000	-1.000000	-1.000000	-1.000000	138.827586	0.000000	-1.000000	-1.000000	650657.000000	1772919331.949460
-3855.465000	20612.520000	-22069.980000	-15392.925000	0.000000	0.000000	0.000000	0.000000	1.136244	48.191014	12.197257	7.929281	0.000000	-0.000000	-0.000000	-0.000000	6.867000	0.350980	-0.198380	-0.020386	0.877256	0.465026	-1.000000	-1.000000	-1.000000	-1.000000	-1.000000	-1.000000	-1.000000	138.827586	0.000000	-1.000000	-1.000000	650658.000000	1772919331.949464
-3837.060000	20467.980000	-22062.645000	-15380.190000	0.000000	0.000000	0.000000	0.000000	-60.879467	26.949698	-97.979844	-90.305239	0.000000	-0.000000	-0.000000	-0.000000	6.867000	0.350980	-0.198380	-0.020386	0.877256	0.465026	-1.000000	-1.000000	-1.000000	-1.000000	-1.000000	-1.000000	-1.000000	138.827586	0.000000	-1.000000	-1.000000	650659.000000	1772919331.953567
-3797.505000	20446.695000	-21998.205000	-15318.360000	0.000000	0.000000	0.000000	0.000000	-88.110135	-14.731303	-153.105476	-137.605145	0.000000	-0.000000	-0.000000	-0.000000	6.867000	0.350980	-0.198380	-0.020386	0.877256	0.465026	-1.000000	-1.000000	-1.000000	-1.000000	-1.000000	-1.000000	-1.000000	138.827586	0.000000	-1.000000	-1.000000	650660.000000	1772919331.953569
-3753.855000	20492.955000	-21920.760000	-15249.645000	0.000000	0.000000	0.000000	0.000000	-65.098820	-57.923920	-122.260522	-107.342579	0.000000	-0.000000	-0.000000	-0.000000	6.867000	0.350980	-0.198380	-0.020386	0.877256	0.465026	-1.000000	-1.000000	-1.000000	-1.000000	-1.000000	-1.000000	-1.000000	138.827586	0.000000	-1.000000	-1.000000	650661.000000	1772919331.957507
-3663.315000	20556.810000	-21762.765000	-15109.695000	0.000000	0.000000	0.000000	0.000000	-6.479993	-72.012731	-24.817180	-18.578613	0.000000	-0.000000	-0.000000	-0.000000	6.867000	0.350980	-0.198380	-0.020386	0.877256	0.465026	-1.000000	-1.000000	-1.000000	-1.000000	-1.000000	-1.000000	-1.000000	138.827586	0.000000	-1.000000	-1.000000	650662.000000	1772919331.957510
-3663.540000	20638.935000	-21725.640000	-15077.115000	0.000000	0.000000	0.000000	0.000000	54.632073	-43.011755	85.014787	79.105812	0.000000	-0.000000	-0.000000	-0.000000	6.668620	0.167860	0.274680	-0.021484	0.878599	0.465819	-1.000000	-1.000000	-1.000000	-1.000000	-1.000000	-1.000000	-1.000000	138.827586	0.000000	-1.000000	-1.000000	650663.000000	1772919331.961696
-3706.020000	20656.440000	-21785.490000	-15131.790000	0.000000	0.000000	0.000000	0.000000	85.058142	12.184087	148.429132	133.555919	0.000000	-0.000000	-0.000000	-0.000000	6.668620	0.167860	0.274680	-0.021484	0.878599	0.465819	-1.000000	-1.000000	-1.000000	-1.000000	-1.000000	-1.000000	-1.000000	138.827586	0.000000	-1.000000	-1.000000	650664.000000	1772919331.961699
-3732.480000	20662.335000	-21861.675000	-15200.055000	0.000000	0.000000	0.000000	0.000000	68.765608	58.923656	131.284933	115.690812	0.000000	-0.000000	-0.000000	-0.000000	6.668620	0.167860	0.274680	-0.021484	0.878599	0.465819	-1.000000	-1.000000	-1.000000	-1.000000	-1.000000	-1.000000	-1.000000	138.827586	0.000000	-1.000000	-1.000000	650665.000000	1772919331.965522
-3824.460000	20658.420000	-22023.720000	-15344.640000	0.000000	0.000000	0.000000	0.000000	16.460301	70.222733	43.605665	35.832537	0.000000	-0.000000	-0.000000	-0.000000	6.668620	0.167860	0.274680	-0.021484	0.878599	0.465819	-1.000000	-1.000000	-1.000000	-1.000000	-1.000000	-1.000000	-1.000000	138.827586	0.000000	-1.000000	-1.000000	650666.000000	1772919331.965525
-3862.305000	20662.065000	-22095.405000	-15408.585000	0.000000	0.000000	0.000000	0.000000	-43.278058	44.035796	-67.514995	-63.361595	0.000000	-0.000000	-0.000000	-0.000000	6.668620	0.167860	0.274680	-0.021484	0.878599	0.465819	-1.000000	-1.000000	-1.000000	-1.000000	-1.000000	-1.000000	-1.000000	138.827586	0.000000	-1.000000	-1.000000	650667.000000	1772919331.969563
-3814.560000	20583.540000	-22027.680000	-15340.590000	0.000000	0.000000	0.000000	0.000000	-79.647403	-1.456804	-142.752810	-129.090609	0.000000	-0.000000	-0.000000	-0.000000	6.668620	0.167860	0.274680	-0.021484	0.878599	0.465819	-1.000000	-1.000000	-1.000000	-1.000000	-1.000000	-1.000000	-1.000000	139.310345	0.000000	-1.000000	-1.000000	650668.000000	1772919331.969567
-3758.895000	20482.155000	-21941.640000	-15259.545000	0.000000	0.000000	0.000000	0.000000	-72.629156	-45.617807	-139.838915	-124.171955	0.000000	-0.000000	-0.000000	-0.000000	6.668620	0.167860	0.274680	-0.021484	0.878599	0.465819	-1.000000	-1.000000	-1.000000	-1.000000	-1.000000	-1.000000	-1.000000	139.310345	0.000000	-1.000000	-1.000000	650669.000000	1772919331.975064
-3669.615000	20427.795000	-21789.945000	-15124.995000	0.000000	0.000000	0.000000	0.000000	-25.005583	-74.163468	-59.460455	-50.216637	0.000000	-0.000000	-0.000000	-0.000000	6.668620	0.167860	0.274680	-0.021484	0.878599	0.465819	-1.000000	-1.000000	-1.000000	-1.000000	-1.000000	-1.000000	-1.000000	139.310345	0.000000	-1.000000	-1.000000	650670.000000	1772919331.975067
-3613.230000	20450.070000	-21689.775000	-15035.130000	0.000000	0.000000	0.000000	0.000000	37.604081	-75.963590	54.306637	52.118480	0.000000	-0.000000	-0.000000	-0.000000	6.668620	0.167860	0.274680	-0.021484	0.878599	0.465819	-1.000000	-1.000000	-1.000000	-1.000000	-1.000000	-1.000000	-1.000000	139.310345	0.000000	-1.000000	-1.000000	650671.000000	1772919331.977656
-3647.790000	20476.395000	-21737.880000	-15078.915000	0.000000	0.000000	0.000000	0.000000	80.796240	-45.037856	139.304488	126.767457	0.000000	-0.000000	-0.000000	-0.000000	6.668620	0.167860	0.274680	-0.021484	0.878599	0.465819	-1.000000	-1.000000	-1.000000	-1.000000	-1.000000	-1.000000	-1.000000	139.310345	0.000000	-1.000000	-1.000000	650672.000000	1772919331.977659
-3698.955000	20503.260000	-21812.040000	-15144.975000	0.000000	0.000000	0.000000	0.000000	79.435075	9.702887	147.946331	131.990519	0.000000	-0.000000	-0.000000	-0.000000	5.173140	-0.656180	0.793520	-0.022888	0.880979	0.465514	-1.000000	-1.000000	-1.000000	-1.000000	-1.000000	-1.000000	-1.000000	139.310345	0.000000	-1.000000	-1.000000	650673.000000	1772919331.981610
-3758.715000	20435.445000	-21936.105000	-15253.830000	0.000000	0.000000	0.000000	0.000000	33.252628	62.613744	75.123659	64.677008	0.000000	-0.000000	-0.000000	-0.000000	5.173140	-0.656180	0.793520	-0.022888	0.880979	0.465514	-1.000000	-1.000000	-1.000000	-1.000000	-1.000000	-1.000000	-1.000000	139.310345	0.000000	-1.000000	-1.000000	650674.000000	1772919331.981613
-3811.230000	20269.710000	-22051.620000	-15354.090000	0.000000	0.000000	0.000000	0.000000	-31.884894	83.074121	-38.744660	-37.874134	0.000000	-0.000000	-0.000000	-0.000000	5.173140	-0.656180	0.793520	-0.022888	0.880979	0.465514	-1.000000	-1.000000	-1.000000	-1.000000	-1.000000	-1.000000	-1.000000	139.310345	0.000000	-1.000000	-1.000000	650675.000000	1772919331.985590
-3786.750000	20191.815000	-22015.620000	-15317.820000	0.000000	0.000000	0.000000	0.000000	-80.117484	56.633631	-132.145644	-120.400154	0.000000	-0.000000	-0.000000	-0.000000	5.173140	-0.656180	0.793520	-0.022888	0.880979	0.465514	-1.000000	-1.000000	-1.000000	-1.000000	-1.000000	-1.000000	-1.000000	139.310345	0.000000	-1.000000	-1.000000	650676.000000	1772919331.985593
-3751.290000	20167.605000	-21949.830000	-15255.225000	0.000000	0.000000	0.000000	0.000000	-85.723181	1.774371	-154.623252	-138.453363	0.000000	-0.000000	-0.000000	-0.000000	5.173140	-0.656180	0.793520	-0.022888	0.880979	0.465514	-1.000000	-1.000000	-1.000000	-1.000000	-1.000000	-1.000000	-1.000000	139.310345	0.000000	-1.000000	-1.000000	650677.000000	1772919331.989629
-3691.215000	20219.445000	-21838.815000	-15157.845000	0.000000	0.000000	0.000000	0.000000	-46.844759	-40.896667	-94.595176	-82.894944	0.000000	-0.000000	-0.000000	-0.000000	5.173140	-0.656180	0.793520	-0.022888	0.880979	0.465514	-1.000000	-1.000000	-1.000000	-1.000000	-1.000000	-1.000000	-1.000000	139.310345	0.000000	-1.000000	-1.000000	650678.000000	1772919331.989632
-3622.995000	20327.985000	-21705.120000	-15039.765000	0.000000	0.000000	0.000000	0.000000	14.769057	-40.592720	14.315978	15.038742	0.000000	-0.000000	-0.000000	-0.000000	5.173140	-0.656180	0.793520	-0.022888	0.880979	0.465514	-1.000000	-1.000000	-1.000000	-1.000000	-1.000000	-1.000000	-1.000000	139.310345	0.000000	-1.000000	-1.000000	650679.000000	1772919331.993641
-3639.735000	20386.260000	-21723.075000	-15057.495000	0.000000	0.000000	0.000000	0.000000	66.969401	1.445200	114.008819	103.065305	0.000000	-0.000000	-0.000000	-0.000000	5.173140	-0.656180	0.793520	-0.022888	0.880979	0.465514	-1.000000	-1.000000	-1.000000	-1.000000	-1.000000	-1.000000	-1.000000	139.310345	0.000000	-1.000000	-1.000000	650680.000000	1772919331.993644
-3659.445000	20302.425000	-21771.585000	-15102.585000	0.000000	0.000000	0.000000	0.000000	83.181998	51.836469	151.810437	134.890367	0.000000	-0.000000	-0.000000	-0.000000	5.173140	-0.656180	0.793520	-0.022888	0.880979	0.465514	-1.000000	-1.000000	-1.000000	-1.000000	-1.000000	-1.000000	-1.000000	139.310345	0.000000	-1.000000	-1.000000	650681.000000	1772919331.997674
-3710.385000	20222.010000	-21867.885000	-15186.825000	0.000000	0.000000	0.000000	0.000000	56.308072	67.930717	108.673925	94.800505	0.000000	-0.000000	-0.000000	-0.000000	5.173140	-0.656180	0.793520	-0.022888	0.880979	0.465514	-1.000000	-1.000000	-1.000000	-1.000000	-1.000000	-1.000000	-1.000000	139.310345	0.000000	-1.000000	-1.000000	650682.000000	1772919331.997677
-3807.810000	20207.070000	-22036.365000	-15337.035000	0.000000	0.000000	0.000000	0.000000	1.621640	33.910935	9.165196	5.722798	0.000000	-0.000000	-0.000000	-0.000000	4.913720	-0.457800	1.342880	-0.020447	0.875059	0.466429	-1.000000	-1.000000	-1.000000	-1.000000	-1.000000	-1.000000	-1.000000	139.310345	0.000000	-1.000000	-1.000000	650683.000000	1772919332.001674
-3802.680000	20172.195000	-22037.085000	-15334.695000	0.000000	0.000000	0.000000	0.000000	-53.143200	-25.575739	-94.508392	-85.608122	0.000000	-0.000000	-0.000000	-0.000000	4.913720	-0.457800	1.342880	-0.020447	0.875059	0.466429	-1.000000	-1.000000	-1.000000	-1.000000	-1.000000	-1.000000	-1.000000	139.310345	0.000000	-1.000000	-1.000000	650684.000000	1772919332.001677
-3765.780000	20147.670000	-21974.670000	-15273.810000	0.000000	0.000000	0.000000	0.000000	-79.475940	-71.053774	-147.126680	-130.538875	0.000000	-0.000000	-0.000000	-0.000000	4.913720	-0.457800	1.342880	-0.020447	0.875059	0.466429	-1.000000	-1.000000	-1.000000	-1.000000	-1.000000	-1.000000	-1.000000	139.310345	0.000000	-1.000000	-1.000000	650685.000000	1772919332.008454
-3716.730000	20150.685000	-21887.775000	-15195.420000	0.000000	0.000000	0.000000	0.000000	-62.293319	-79.288961	-119.106470	-103.603762	0.000000	-0.000000	-0.000000	-0.000000	4.913720	-0.457800	1.342880	-0.020447	0.875059	0.466429	-1.000000	-1.000000	-1.000000	-1.000000	-1.000000	-1.000000	-1.000000	139.310345	0.000000	-1.000000	-1.000000	650686.000000	1772919332.008457
-3614.895000	20122.785000	-21713.895000	-15040.485000	0.000000	0.000000	0.000000	0.000000	-10.576261	-51.990787	-25.841531	-19.525843	0.000000	-0.000000	-0.000000	-0.000000	4.913720	-0.457800	1.342880	-0.020447	0.875059	0.466429	-1.000000	-1.000000	-1.000000	-1.000000	-1.000000	-1.000000	-1.000000	139.310345	0.000000	-1.000000	-1.000000	650687.000000	1772919332.009728
-3591.540000	20088.585000	-21669.165000	-15000.885000	0.000000	0.000000	0.000000	0.000000	48.207741	-8.736761	82.583720	76.420866	0.000000	-0.000000	-0.000000	-0.000000	4.913720	-0.457800	1.342880	-0.020447	0.875059	0.466429	-1.000000	-1.000000	-1.000000	-1.000000	-1.000000	-1.000000	-1.000000	139.310345	0.000000	-1.000000	-1.000000	650688.000000	1772919332.009730
-3625.515000	20073.285000	-21730.590000	-15058.890000	0.000000	0.000000	0.000000	0.000000	82.224296	27.427844	147.624915	132.304799	0.000000	-0.000000	-0.000000	-0.000000	4.913720	-0.457800	1.342880	-0.020447	0.875059	0.466429	-1.000000	-1.000000	-1.000000	-1.000000	-1.000000	-1.000000	-1.000000	139.310345	0.000000	-1.000000	-1.000000	650689.000000	1772919332.014459
-3674.655000	20072.205000	-21814.425000	-15133.680000	0.000000	0.000000	0.000000	0.000000	71.433268	44.213011	132.081892	115.956765	0.000000	-0.000000	-0.000000	-0.000000	4.913720	-0.457800	1.342880	-0.020447	0.875059	0.466429	-1.000000	-1.000000	-1.000000	-1.000000	-1.000000	-1.000000	-1.000000	139.310345	0.000000	-1.000000	-1.000000	650690.000000	1772919332.014462
-3767.265000	20049.570000	-21978.090000	-15278.625000	0.000000	0.000000	0.000000	0.000000	20.554703	42.615160	43.388638	35.226107	0.000000	-0.000000	-0.000000	-0.000000	4.913720	-0.457800	1.342880	-0.020447	0.875059	0.466429	-1.000000	-1.000000	-1.000000	-1.000000	-1.000000	-1.000000	-1.000000	139.310345	0.000000	-1.000000	-1.000000	650691.000000	1772919332.017671
-3801.555000	20017.890000	-22040.100000	-15334.605000	0.000000	0.000000	0.000000	0.000000	-43.324367	29.236152	-70.629750	-66.449761	0.000000	-0.000000	-0.000000	-0.000000	4.913720	-0.457800	1.342880	-0.020447	0.875059	0.466429	-1.000000	-1.000000	-1.000000	-1.000000	-1.000000	-1.000000	-1.000000	139.310345	0.000000	-1.000000	-1.000000	650692.000000	1772919332.017674
-3788.370000	20073.375000	-22000.725000	-15300.945000	0.000000	0.000000	0.000000	0.000000	-85.752851	12.051071	-148.163510	-134.161821	0.000000	-0.000000	-0.000000	-0.000000	7.980980	-0.503580	0.961380	-0.018982	0.874571	0.468199	-1.000000	-1.000000	-1.000000	-1.000000	-1.000000	-1.000000	-1.000000	139.310345	0.000000	-1.000000	-1.000000	650693.000000	1772919332.023882
-3765.015000	20166.165000	-21942.270000	-15248.070000	0.000000	0.000000	0.000000	0.000000	-83.673208	1.613231	-146.542615	-130.806220	0.000000	-0.000000	-0.000000	-0.000000	7.980980	-0.503580	0.961380	-0.018982	0.874571	0.468199	-1.000000	-1.000000	-1.000000	-1.000000	-1.000000	-1.000000	-1.000000	139.310345	0.000000	-1.000000	-1.000000	650694.000000	1772919332.023884
-3674.115000	20196.495000	-21783.735000	-15105.915000	0.000000	0.000000	0.000000	0.000000	-38.465489	4.579696	-67.069051	-58.384068	0.000000	-0.000000	-0.000000	-0.000000	7.980980	-0.503580	0.961380	-0.018982	0.874571	0.468199	-1.000000	-1.000000	-1.000000	-1.000000	-1.000000	-1.000000	-1.000000	139.310345	0.000000	-1.000000	-1.000000	650695.000000	1772919332.026871
-3621.330000	20255.715000	-21696.840000	-15028.920000	0.000000	0.000000	0.000000	0.000000	26.732164	14.574754	47.844472	44.909200	0.000000	-0.000000	-0.000000	-0.000000	7.980980	-0.503580	0.961380	-0.018982	0.874571	0.468199	-1.000000	-1.000000	-1.000000	-1.000000	-1.000000	-1.000000	-1.000000	139.310345	0.000000	-1.000000	-1.000000	650696.000000	1772919332.026874
-3654.090000	20284.335000	-21747.105000	-15077.430000	0.000000	0.000000	0.000000	0.000000	78.786665	18.313687	137.615230	124.906097	0.000000	-0.000000	-0.000000	-0.000000	7.980980	-0.503580	0.961380	-0.018982	0.874571	0.468199	-1.000000	-1.000000	-1.000000	-1.000000	-1.000000	-1.000000	-1.000000	139.310345	0.000000	-1.000000	-1.000000	650697.000000	1772919332.029894
-3706.695000	20356.695000	-21824.865000	-15148.305000	0.000000	0.000000	0.000000	0.000000	89.372579	9.335042	153.144830	137.836230	0.000000	-0.000000	-0.000000	-0.000000	7.980980	-0.503580	0.961380	-0.018982	0.874571	0.468199	-1.000000	-1.000000	-1.000000	-1.000000	-1.000000	-1.000000	-1.000000	139.310345	0.000000	-1.000000	-1.000000	650698.000000	1772919332.029896
-3791.925000	20386.125000	-21968.010000	-15273.855000	0.000000	0.000000	0.000000	0.000000	52.008086	-8.076978	85.917935	76.588121	0.000000	-0.000000	-0.000000	-0.000000	7.980980	-0.503580	0.961380	-0.018982	0.874571	0.468199	-1.000000	-1.000000	-1.000000	-1.000000	-1.000000	-1.000000	-1.000000	139.310345	0.000000	-1.000000	-1.000000	650699.000000	1772919332.033785
-3841.290000	20283.930000	-22073.220000	-15366.420000	0.000000	0.000000	0.000000	0.000000	-12.330097	-27.844434	-26.347670	-24.331069	0.000000	-0.000000	-0.000000	-0.000000	7.980980	-0.503580	0.961380	-0.018982	0.874571	0.468199	-1.000000	-1.000000	-1.000000	-1.000000	-1.000000	-1.000000	-1.000000	139.310345	0.000000	-1.000000	-1.000000	650700.000000	1772919332.033788
-3813.660000	20261.880000	-22031.595000	-15326.415000	0.000000	0.000000	0.000000	0.000000	-67.152556	-48.531519	-121.774433	-109.224031	0.000000	-0.000000	-0.000000	-0.000000	7.980980	-0.503580	0.961380	-0.018982	0.874571	0.468199	-1.000000	-1.000000	-1.000000	-1.000000	-1.000000	-1.000000	-1.000000	139.310345	0.000000	-1.000000	-1.000000	650701.000000	1772919332.037808
-3780.630000	20290.320000	-21969.045000	-15268.995000	0.000000	0.000000	0.000000	0.000000	-81.591522	-63.817763	-147.557802	-131.276251	0.000000	-0.000000	-0.000000	-0.000000	7.980980	-0.503580	0.961380	-0.018982	0.874571	0.468199	-1.000000	-1.000000	-1.000000	-1.000000	-1.000000	-1.000000	-1.000000	139.310345	0.000000	-1.000000	-1.000000	650702.000000	1772919332.037810
-3697.470000	20267.235000	-21834.270000	-15148.170000	0.000000	0.000000	0.000000	0.000000	-49.022498	-60.205129	-90.594544	-79.575657	0.000000	-0.000000	-0.000000	-0.000000	8.545600	-0.350980	0.824040	-0.019348	0.876218	0.467345	-1.000000	-1.000000	-1.000000	-1.000000	-1.000000	-1.000000	-1.000000	139.310345	0.000000	-1.000000	-1.000000	650703.000000	1772919332.041842
-3633.795000	20372.400000	-21706.830000	-15037.830000	0.000000	0.000000	0.000000	0.000000	10.626649	-31.678987	15.956410	15.541297	0.000000	-0.000000	-0.000000	-0.000000	8.545600	-0.350980	0.824040	-0.019348	0.876218	0.467345	-1.000000	-1.000000	-1.000000	-1.000000	-1.000000	-1.000000	-1.000000	139.310345	0.000000	-1.000000	-1.000000	650704.000000	1772919332.041845
-3670.740000	20549.655000	-21747.105000	-15079.905000	0.000000	0.000000	0.000000	0.000000	63.256372	16.359439	112.964429	100.965335	0.000000	-0.000000	-0.000000	-0.000000	8.545600	-0.350980	0.824040	-0.019348	0.876218	0.467345	-1.000000	-1.000000	-1.000000	-1.000000	-1.000000	-1.000000	-1.000000	139.310345	0.000000	-1.000000	-1.000000	650705.000000	1772919332.045849
-3707.820000	20548.035000	-21809.205000	-15136.335000	0.000000	0.000000	0.000000	0.000000	78.269122	68.689057	145.850894	128.384103	0.000000	-0.000000	-0.000000	-0.000000	8.545600	-0.350980	0.824040	-0.019348	0.876218	0.467345	-1.000000	-1.000000	-1.000000	-1.000000	-1.000000	-1.000000	-1.000000	139.310345	0.000000	-1.000000	-1.000000	650706.000000	1772919332.045851
-3791.565000	20630.295000	-21940.110000	-15252.795000	0.000000	0.000000	0.000000	0.000000	46.948187	99.152757	95.957282	82.349549	0.000000	-0.000000	-0.000000	-0.000000	8.545600	-0.350980	0.824040	-0.019348	0.876218	0.467345	-1.000000	-1.000000	-1.000000	-1.000000	-1.000000	-1.000000	-1.000000	139.310345	0.000000	-1.000000	-1.000000	650707.000000	1772919332.049696
-3879.495000	20674.935000	-22102.110000	-15396.570000	0.000000	0.000000	0.000000	0.000000	-12.562340	88.413076	-8.595644	-10.838738	0.000000	-0.000000	-0.000000	-0.000000	8.545600	-0.350980	0.824040	-0.019348	0.876218	0.467345	-1.000000	-1.000000	-1.000000	-1.000000	-1.000000	-1.000000	-1.000000	139.310345	0.000000	-1.000000	-1.000000	650708.000000	1772919332.049699
-3871.260000	20678.175000	-22100.940000	-15391.350000	0.000000	0.000000	0.000000	0.000000	-67.141930	41.544362	-110.952482	-100.261438	0.000000	-0.000000	-0.000000	-0.000000	8.545600	-0.350980	0.824040	-0.019348	0.876218	0.467345	-1.000000	-1.000000	-1.000000	-1.000000	-1.000000	-1.000000	-1.000000	139.310345	0.000000	-1.000000	-1.000000	650709.000000	1772919332.054012
-3818.250000	20658.240000	-22020.345000	-15313.770000	0.000000	0.000000	0.000000	0.000000	-85.279468	-20.136599	-153.845605	-135.665024	0.000000	-0.000000	-0.000000	-0.000000	8.545600	-0.350980	0.824040	-0.019348	0.876218	0.467345	-1.000000	-1.000000	-1.000000	-1.000000	-1.000000	-1.000000	-1.000000	139.310345	0.000000	-1.000000	-1.000000	650710.000000	1772919332.054015
-3762.495000	20638.260000	-21922.470000	-15226.605000	0.000000	0.000000	0.000000	0.000000	-54.847047	-73.321564	-110.999962	-94.944725	0.000000	-0.000000	-0.000000	-0.000000	8.545600	-0.350980	0.824040	-0.019348	0.876218	0.467345	-1.000000	-1.000000	-1.000000	-1.000000	-1.000000	-1.000000	-1.000000	139.310345	0.000000	-1.000000	-1.000000	650711.000000	1772919332.057875
-3661.290000	20647.035000	-21741.795000	-15068.295000	0.000000	0.000000	0.000000	0.000000	8.085050	-99.703685	-4.902952	0.439310	0.000000	-0.000000	-0.000000	-0.000000	8.545600	-0.350980	0.824040	-0.019348	0.876218	0.467345	-1.000000	-1.000000	-1.000000	-1.000000	-1.000000	-1.000000	-1.000000	139.310345	0.000000	-1.000000	-1.000000	650712.000000	1772919332.057878
-3643.740000	20660.355000	-21708.810000	-15043.905000	0.000000	0.000000	0.000000	0.000000	69.703762	-90.850042	107.614178	99.064886	0.000000	-0.000000	-0.000000	-0.000000	8.896580	0.091560	1.068200	-0.018127	0.875486	0.466185	-1.000000	-1.000000	-1.000000	-1.000000	-1.000000	-1.000000	-1.000000	139.310345	0.000000	-1.000000	-1.000000	650713.000000	1772919332.061822
-3672.765000	20655.405000	-21767.400000	-15096.465000	0.000000	0.000000	0.000000	0.000000	96.865491	-52.336486	165.654089	147.339773	0.000000	-0.000000	-0.000000	-0.000000	8.896580	0.091560	1.068200	-0.018127	0.875486	0.466185	-1.000000	-1.000000	-1.000000	-1.000000	-1.000000	-1.000000	-1.000000	139.310345	0.000000	-1.000000	-1.000000	650714.000000	1772919332.061825
-3720.870000	20617.380000	-21854.385000	-15172.695000	0.000000	0.000000	0.000000	0.000000	73.969074	-2.861496	135.908660	117.550626	0.000000	-0.000000	-0.000000	-0.000000	8.896580	0.091560	1.068200	-0.018127	0.875486	0.466185	-1.000000	-1.000000	-1.000000	-1.000000	-1.000000	-1.000000	-1.000000	139.310345	0.000000	-1.000000	-1.000000	650715.000000	1772919332.065820
-3845.880000	20601.585000	-22054.815000	-15348.015000	0.000000	0.000000	0.000000	0.000000	11.592715	35.828022	32.586757	24.299783	0.000000	-0.000000	-0.000000	-0.000000	8.896580	0.091560	1.068200	-0.018127	0.875486	0.466185	-1.000000	-1.000000	-1.000000	-1.000000	-1.000000	-1.000000	-1.000000	139.310345	0.000000	-1.000000	-1.000000	650716.000000	1772919332.065823
-3867.165000	20571.615000	-22107.195000	-15392.970000	0.000000	0.000000	0.000000	0.000000	-59.731863	51.893667	-91.375636	-84.719830	0.000000	-0.000000	-0.000000	-0.000000	8.896580	0.091560	1.068200	-0.018127	0.875486	0.466185	-1.000000	-1.000000	-1.000000	-1.000000	-1.000000	-1.000000	-1.000000	139.310345	0.000000	-1.000000	-1.000000	650717.000000	1772919332.069861
-3835.845000	20600.460000	-22041.720000	-15332.940000	0.000000	0.000000	0.000000	0.000000	-103.110002	48.035826	-170.298055	-152.110328	0.000000	-0.000000	-0.000000	-0.000000	8.896580	0.091560	1.068200	-0.018127	0.875486	0.466185	-1.000000	-1.000000	-1.000000	-1.000000	-1.000000	-1.000000	-1.000000	139.310345	0.000000	-1.000000	-1.000000	650718.000000	1772919332.069863
-3795.165000	20654.010000	-21964.815000	-15265.755000	0.000000	0.000000	0.000000	0.000000	-93.964403	36.582444	-159.417670	-139.825684	0.000000	-0.000000	-0.000000	-0.000000	8.896580	0.091560	1.068200	-0.018127	0.875486	0.466185	-1.000000	-1.000000	-1.000000	-1.000000	-1.000000	-1.000000	-1.000000	139.310345	0.000000	-1.000000	-1.000000	650719.000000	1772919332.073828
-3679.965000	20577.645000	-21779.640000	-15095.520000	0.000000	0.000000	0.000000	0.000000	-36.302069	26.992488	-63.662785	-53.504617	0.000000	-0.000000	-0.000000	-0.000000	8.896580	0.091560	1.068200	-0.018127	0.875486	0.466185	-1.000000	-1.000000	-1.000000	-1.000000	-1.000000	-1.000000	-1.000000	139.310345	0.000000	-1.000000	-1.000000	650720.000000	1772919332.073830
-3630.420000	20625.435000	-21685.770000	-15012.945000	0.000000	0.000000	0.000000	0.000000	40.222877	17.781800	66.011011	61.452161	0.000000	-0.000000	-0.000000	-0.000000	8.896580	0.091560	1.068200	-0.018127	0.875486	0.466185	-1.000000	-1.000000	-1.000000	-1.000000	-1.000000	-1.000000	-1.000000	139.310345	0.000000	-1.000000	-1.000000	650721.000000	1772919332.077889
-3658.230000	20641.815000	-21730.455000	-15058.935000	0.000000	0.000000	0.000000	0.000000	96.037839	6.437888	161.111158	144.597966	0.000000	-0.000000	-0.000000	-0.000000	8.896580	0.091560	1.068200	-0.018127	0.875486	0.466185	-1.000000	-1.000000	-1.000000	-1.000000	-1.000000	-1.000000	-1.000000	139.310345	0.000000	-1.000000	-1.000000	650722.000000	1772919332.077891
-3698.370000	20605.545000	-21802.050000	-15122.610000	0.000000	0.000000	0.000000	0.000000	101.081040	-4.226476	170.122623	150.538250	0.000000	-0.000000	-0.000000	-0.000000	8.530340	0.946120	0.244160	-0.017090	0.879453	0.466185	-1.000000	-1.000000	-1.000000	-1.000000	-1.000000	-1.000000	-1.000000	139.310345	0.000000	-1.000000	-1.000000	650723.000000	1772919332.085625
-3794.535000	20557.845000	-21956.580000	-15256.665000	0.000000	0.000000	0.000000	0.000000	52.855522	-13.891761	88.521724	76.133960	0.000000	-0.000000	-0.000000	-0.000000	8.530340	0.946120	0.244160	-0.017090	0.879453	0.466185	-1.000000	-1.000000	-1.000000	-1.000000	-1.000000	-1.000000	-1.000000	139.310345	0.000000	-1.000000	-1.000000	650724.000000	1772919332.085628
-3849.885000	20439.585000	-22074.165000	-15359.715000	0.000000	0.000000	0.000000	0.000000	-22.195194	-25.775739	-39.161946	-37.809264	0.000000	-0.000000	-0.000000	-0.000000	8.530340	0.946120	0.244160	-0.017090	0.879453	0.466185	-1.000000	-1.000000	-1.000000	-1.000000	-1.000000	-1.000000	-1.000000	139.310345	0.000000	-1.000000	-1.000000	650725.000000	1772919332.085633
-3813.120000	20407.995000	-22039.065000	-15324.120000	0.000000	0.000000	0.000000	0.000000	-83.554926	-39.151608	-145.071316	-130.607765	0.000000	-0.000000	-0.000000	-0.000000	8.530340	0.946120	0.244160	-0.017090	0.879453	0.466185	-1.000000	-1.000000	-1.000000	-1.000000	-1.000000	-1.000000	-1.000000	139.310345	0.000000	-1.000000	-1.000000	650726.000000	1772919332.085635
-3764.655000	20328.525000	-21957.390000	-15248.610000	0.000000	0.000000	0.000000	0.000000	-97.636034	-45.824408	-172.302651	-152.502878	0.000000	-0.000000	-0.000000	-0.000000	8.530340	0.946120	0.244160	-0.017090	0.879453	0.466185	-1.000000	-1.000000	-1.000000	-1.000000	-1.000000	-1.000000	-1.000000	139.310345	0.000000	-1.000000	-1.000000	650727.000000	1772919332.090032
-3683.655000	20309.580000	-21818.430000	-15124.320000	0.000000	0.000000	0.000000	0.000000	-57.861427	-36.851480	-106.668366	-92.216359	0.000000	-0.000000	-0.000000	-0.000000	8.530340	0.946120	0.244160	-0.017090	0.879453	0.466185	-1.000000	-1.000000	-1.000000	-1.000000	-1.000000	-1.000000	-1.000000	139.310345	0.000000	-1.000000	-1.000000	650728.000000	1772919332.090035
-3604.275000	20366.955000	-21669.840000	-14989.590000	0.000000	0.000000	0.000000	0.000000	11.924319	-9.886744	15.101413	16.566445	0.000000	-0.000000	-0.000000	-0.000000	8.530340	0.946120	0.244160	-0.017090	0.879453	0.466185	-1.000000	-1.000000	-1.000000	-1.000000	-1.000000	-1.000000	-1.000000	139.310345	0.000000	-1.000000	-1.000000	650729.000000	1772919332.093995
-3626.370000	20429.235000	-21692.745000	-15014.520000	0.000000	0.000000	0.000000	0.000000	72.865614	30.346720	127.187713	115.106852	0.000000	-0.000000	-0.000000	-0.000000	8.530340	0.946120	0.244160	-0.017090	0.879453	0.466185	-1.000000	-1.000000	-1.000000	-1.000000	-1.000000	-1.000000	-1.000000	139.310345	0.000000	-1.000000	-1.000000	650730.000000	1772919332.093998
-3656.655000	20392.695000	-21752.460000	-15070.995000	0.000000	0.000000	0.000000	0.000000	91.751260	69.217067	168.832430	149.852625	0.000000	-0.000000	-0.000000	-0.000000	8.530340	0.946120	0.244160	-0.017090	0.879453	0.466185	-1.000000	-1.000000	-1.000000	-1.000000	-1.000000	-1.000000	-1.000000	139.310345	0.000000	-1.000000	-1.000000	650731.000000	1772919332.097867
-3732.300000	20381.985000	-21877.830000	-15182.865000	0.000000	0.000000	0.000000	0.000000	59.219726	84.502282	118.024653	102.205516	0.000000	-0.000000	-0.000000	-0.000000	8.530340	0.946120	0.244160	-0.017090	0.879453	0.466185	-1.000000	-1.000000	-1.000000	-1.000000	-1.000000	-1.000000	-1.000000	139.310345	0.000000	-1.000000	-1.000000	650732.000000	1772919332.097870
-3833.325000	20321.910000	-22055.220000	-15342.165000	0.000000	0.000000	0.000000	0.000000	-5.975912	63.322433	3.577408	-0.951995	0.000000	-0.000000	-0.000000	-0.000000	5.829320	1.251320	0.045780	-0.016174	0.882871	0.464293	-1.000000	-1.000000	-1.000000	-1.000000	-1.000000	-1.000000	-1.000000	139.310345	0.000000	-1.000000	-1.000000	650733.000000	1772919332.101983
-3835.350000	20349.900000	-22064.715000	-15348.015000	0.000000	0.000000	0.000000	0.000000	-69.113275	15.382450	-113.385074	-104.460841	0.000000	-0.000000	-0.000000	-0.000000	5.829320	1.251320	0.045780	-0.016174	0.882871	0.464293	-1.000000	-1.000000	-1.000000	-1.000000	-1.000000	-1.000000	-1.000000	139.310345	0.000000	-1.000000	-1.000000	650734.000000	1772919332.101986
-3808.485000	20438.460000	-22012.245000	-15297.930000	0.000000	0.000000	0.000000	0.000000	-96.203317	-31.361139	-169.931776	-152.506735	0.000000	-0.000000	-0.000000	-0.000000	5.829320	1.251320	0.045780	-0.016174	0.882871	0.464293	-1.000000	-1.000000	-1.000000	-1.000000	-1.000000	-1.000000	-1.000000	139.310345	0.000000	-1.000000	-1.000000	650735.000000	1772919332.105881
-3747.465000	20452.950000	-21907.665000	-15204.645000	0.000000	0.000000	0.000000	0.000000	-71.740543	-50.802331	-134.617293	-118.131438	0.000000	-0.000000	-0.000000	-0.000000	5.829320	1.251320	0.045780	-0.016174	0.882871	0.464293	-1.000000	-1.000000	-1.000000	-1.000000	-1.000000	-1.000000	-1.000000	139.310345	0.000000	-1.000000	-1.000000	650736.000000	1772919332.105883
-3650.085000	20537.955000	-21732.030000	-15044.985000	0.000000	0.000000	0.000000	0.000000	-8.330469	-38.896118	-26.553712	-19.739930	0.000000	-0.000000	-0.000000	-0.000000	5.829320	1.251320	0.045780	-0.016174	0.882871	0.464293	-1.000000	-1.000000	-1.000000	-1.000000	-1.000000	-1.000000	-1.000000	139.310345	0.000000	-1.000000	-1.000000	650737.000000	1772919332.109964
-3646.125000	20618.190000	-21707.325000	-15024.645000	0.000000	0.000000	0.000000	0.000000	60.829607	-10.662494	96.727010	90.484791	0.000000	-0.000000	-0.000000	-0.000000	5.829320	1.251320	0.045780	-0.016174	0.882871	0.464293	-1.000000	-1.000000	-1.000000	-1.000000	-1.000000	-1.000000	-1.000000	139.310345	0.000000	-1.000000	-1.000000	650738.000000	1772919332.109966
-3673.665000	20608.020000	-21758.580000	-15073.110000	0.000000	0.000000	0.000000	0.000000	98.803536	14.548213	169.059782	153.494417	0.000000	-0.000000	-0.000000	-0.000000	5.829320	1.251320	0.045780	-0.016174	0.882871	0.464293	-1.000000	-1.000000	-1.000000	-1.000000	-1.000000	-1.000000	-1.000000	139.310345	0.000000	-1.000000	-1.000000	650739.000000	1772919332.116695
-3713.445000	20539.215000	-21836.880000	-15142.500000	0.000000	0.000000	0.000000	0.000000	85.248224	19.517931	151.235974	135.028180	0.000000	-0.000000	-0.000000	-0.000000	5.829320	1.251320	0.045780	-0.016174	0.882871	0.464293	-1.000000	-1.000000	-1.000000	-1.000000	-1.000000	-1.000000	-1.000000	139.310345	0.000000	-1.000000	-1.000000	650740.000000	1772919332.116698
-3828.690000	20508.120000	-22030.245000	-15316.245000	0.000000	0.000000	0.000000	0.000000	28.378993	-2.268319	54.091626	45.992580	0.000000	-0.000000	-0.000000	-0.000000	5.829320	1.251320	0.045780	-0.016174	0.882871	0.464293	-1.000000	-1.000000	-1.000000	-1.000000	-1.000000	-1.000000	-1.000000	139.310345	0.000000	-1.000000	-1.000000	650741.000000	1772919332.119556
-3860.955000	20525.355000	-22090.995000	-15368.805000	0.000000	0.000000	0.000000	0.000000	-42.128700	-36.704615	-70.668557	-66.382675	0.000000	-0.000000	-0.000000	-0.000000	5.829320	1.251320	0.045780	-0.016174	0.882871	0.464293	-1.000000	-1.000000	-1.000000	-1.000000	-1.000000	-1.000000	-1.000000	139.310345	0.000000	-1.000000	-1.000000	650742.000000	1772919332.119558
-3833.640000	20554.425000	-22041.090000	-15319.395000	0.000000	0.000000	0.000000	0.000000	-89.976218	-57.068980	-157.200343	-142.950819	0.000000	-0.000000	-0.000000	-0.000000	4.761120	1.693860	-0.503580	-0.015991	0.879942	0.464415	-1.000000	-1.000000	-1.000000	-1.000000	-1.000000	-1.000000	-1.000000	139.310345	0.000000	-1.000000	-1.000000	650743.000000	1772919332.122693
-3793.995000	20589.210000	-21970.530000	-15255.990000	0.000000	0.000000	0.000000	0.000000	-89.499787	-46.420336	-158.431761	-142.111480	0.000000	-0.000000	-0.000000	-0.000000	4.761120	1.693860	-0.503580	-0.015991	0.879942	0.464415	-1.000000	-1.000000	-1.000000	-1.000000	-1.000000	-1.000000	-1.000000	139.310345	0.000000	-1.000000	-1.000000	650744.000000	1772919332.122696
-3690.990000	20657.295000	-21791.160000	-15096.915000	0.000000	0.000000	0.000000	0.000000	-41.261465	-9.531276	-74.396194	-65.050431	0.000000	-0.000000	-0.000000	-0.000000	4.761120	1.693860	-0.503580	-0.015991	0.879942	0.464415	-1.000000	-1.000000	-1.000000	-1.000000	-1.000000	-1.000000	-1.000000	139.310345	0.000000	-1.000000	-1.000000	650745.000000	1772919332.126536
-3638.520000	20693.025000	-21697.200000	-15014.430000	0.000000	0.000000	0.000000	0.000000	28.738120	33.934029	49.129518	46.098783	0.000000	-0.000000	-0.000000	-0.000000	4.761120	1.693860	-0.503580	-0.015991	0.879942	0.464415	-1.000000	-1.000000	-1.000000	-1.000000	-1.000000	-1.000000	-1.000000	139.310345	0.000000	-1.000000	-1.000000	650746.000000	1772919332.126538
-3663.180000	20688.975000	-21741.165000	-15058.620000	0.000000	0.000000	0.000000	0.000000	83.141986	61.737300	145.858908	131.693216	0.000000	-0.000000	-0.000000	-0.000000	4.761120	1.693860	-0.503580	-0.015991	0.879942	0.464415	-1.000000	-1.000000	-1.000000	-1.000000	-1.000000	-1.000000	-1.000000	139.310345	0.000000	-1.000000	-1.000000	650747.000000	1772919332.130014
-3699.495000	20657.205000	-21806.505000	-15117.615000	0.000000	0.000000	0.000000	0.000000	92.051856	59.332707	162.577589	144.795639	0.000000	-0.000000	-0.000000	-0.000000	4.761120	1.693860	-0.503580	-0.015991	0.879942	0.464415	-1.000000	-1.000000	-1.000000	-1.000000	-1.000000	-1.000000	-1.000000	139.310345	0.000000	-1.000000	-1.000000	650748.000000	1772919332.130017
-3798.900000	20578.815000	-21971.655000	-15264.135000	0.000000	0.000000	0.000000	0.000000	50.601562	26.940114	90.411672	78.735785	0.000000	-0.000000	-0.000000	-0.000000	4.761120	1.693860	-0.503580	-0.015991	0.879942	0.464415	-1.000000	-1.000000	-1.000000	-1.000000	-1.000000	-1.000000	-1.000000	139.310345	0.000000	-1.000000	-1.000000	650749.000000	1772919332.133995
-3879.540000	20479.725000	-22101.750000	-15375.330000	0.000000	0.000000	0.000000	0.000000	-18.923099	-21.223928	-31.058946	-29.929543	0.000000	-0.000000	-0.000000	-0.000000	4.761120	1.693860	-0.503580	-0.015991	0.879942	0.464415	-1.000000	-1.000000	-1.000000	-1.000000	-1.000000	-1.000000	-1.000000	139.310345	0.000000	-1.000000	-1.000000	650750.000000	1772919332.133997
-3843.315000	20452.230000	-22050.495000	-15320.565000	0.000000	0.000000	0.000000	0.000000	-79.271035	-63.179131	-136.294401	-122.257941	0.000000	-0.000000	-0.000000	-0.000000	4.761120	1.693860	-0.503580	-0.015991	0.879942	0.464415	-1.000000	-1.000000	-1.000000	-1.000000	-1.000000	-1.000000	-1.000000	139.310345	0.000000	-1.000000	-1.000000	650751.000000	1772919332.138111
-3776.445000	20471.355000	-21965.715000	-15242.220000	0.000000	0.000000	0.000000	0.000000	-95.737723	-76.627906	-166.216050	-146.237814	0.000000	-0.000000	-0.000000	-0.000000	4.761120	1.693860	-0.503580	-0.015991	0.879942	0.464415	-1.000000	-1.000000	-1.000000	-1.000000	-1.000000	-1.000000	-1.000000	139.310345	0.000000	-1.000000	-1.000000	650752.000000	1772919332.138114
-3705.345000	20567.520000	-21838.230000	-15130.395000	0.000000	0.000000	0.000000	0.000000	-57.512542	-49.641917	-103.476716	-88.159087	0.000000	-0.000000	-0.000000	-0.000000	4.043900	1.663340	0.228900	-0.018127	0.880979	0.462889	-1.000000	-1.000000	-1.000000	-1.000000	-1.000000	-1.000000	-1.000000	139.310345	0.000000	-1.000000	-1.000000	650753.000000	1772919332.142069
-3653.145000	20761.920000	-21715.020000	-15022.215000	0.000000	0.000000	0.000000	0.000000	12.712826	11.679916	15.283152	17.545461	0.000000	-0.000000	-0.000000	-0.000000	4.043900	1.663340	0.228900	-0.018127	0.880979	0.462889	-1.000000	-1.000000	-1.000000	-1.000000	-1.000000	-1.000000	-1.000000	139.310345	0.000000	-1.000000	-1.000000	650754.000000	1772919332.142072
-3672.405000	20830.095000	-21742.380000	-15055.560000	0.000000	0.000000	0.000000	0.000000	73.479949	82.942154	123.121209	110.857634	0.000000	-0.000000	-0.000000	-0.000000	4.043900	1.663340	0.228900	-0.018127	0.880979	0.462889	-1.000000	-1.000000	-1.000000	-1.000000	-1.000000	-1.000000	-1.000000	139.310345	0.000000	-1.000000	-1.000000	650755.000000	1772919332.146073
-3698.145000	20772.405000	-21799.485000	-15103.890000	0.000000	0.000000	0.000000	0.000000	90.962878	125.435760	160.885447	140.475998	0.000000	-0.000000	-0.000000	-0.000000	4.043900	1.663340	0.228900	-0.018127	0.880979	0.462889	-1.000000	-1.000000	-1.000000	-1.000000	-1.000000	-1.000000	-1.000000	139.310345	0.000000	-1.000000	-1.000000	650756.000000	1772919332.146075
-3746.250000	20634.570000	-21903.525000	-15193.845000	0.000000	0.000000	0.000000	0.000000	58.633205	104.528402	110.348605	92.635576	0.000000	-0.000000	-0.000000	-0.000000	4.043900	1.663340	0.228900	-0.018127	0.880979	0.462889	-1.000000	-1.000000	-1.000000	-1.000000	-1.000000	-1.000000	-1.000000	139.310345	0.000000	-1.000000	-1.000000	650757.000000	1772919332.150251
-3797.280000	20303.235000	-22034.655000	-15304.320000	0.000000	0.000000	0.000000	0.000000	-2.055890	15.650816	2.670821	-2.940968	0.000000	-0.000000	-0.000000	-0.000000	4.043900	1.663340	0.228900	-0.018127	0.880979	0.462889	-1.000000	-1.000000	-1.000000	-1.000000	-1.000000	-1.000000	-1.000000	139.310345	0.000000	-1.000000	-1.000000	650758.000000	1772919332.150254
-3777.840000	20107.755000	-22014.450000	-15276.240000	0.000000	0.000000	0.000000	0.000000	-57.146115	-106.967702	-102.676246	-93.272641	0.000000	-0.000000	-0.000000	-0.000000	4.043900	1.663340	0.228900	-0.018127	0.880979	0.462889	-1.000000	-1.000000	-1.000000	-1.000000	-1.000000	-1.000000	-1.000000	139.310345	0.000000	-1.000000	-1.000000	650759.000000	1772919332.154211
-3745.305000	20042.955000	-21947.040000	-15210.045000	0.000000	0.000000	0.000000	0.000000	-78.299186	-200.251158	-149.042708	-129.750690	0.000000	-0.000000	-0.000000	-0.000000	4.043900	1.663340	0.228900	-0.018127	0.880979	0.462889	-1.000000	-1.000000	-1.000000	-1.000000	-1.000000	-1.000000	-1.000000	139.310345	0.000000	-1.000000	-1.000000	650760.000000	1772919332.154213
-3688.200000	20045.520000	-21840.480000	-15116.220000	0.000000	0.000000	0.000000	0.000000	-56.893650	-203.837089	-112.669116	-93.899797	0.000000	-0.000000	-0.000000	-0.000000	4.043900	1.663340	0.228900	-0.018127	0.880979	0.462889	-1.000000	-1.000000	-1.000000	-1.000000	-1.000000	-1.000000	-1.000000	139.310345	0.000000	-1.000000	-1.000000	650761.000000	1772919332.157999
-3581.100000	20095.380000	-21659.895000	-14954.355000	0.000000	0.000000	0.000000	0.000000	-6.627583	-103.942596	-15.532660	-7.392069	0.000000	-0.000000	-0.000000	-0.000000	4.043900	1.663340	0.228900	-0.018127	0.880979	0.462889	-1.000000	-1.000000	-1.000000	-1.000000	-1.000000	-1.000000	-1.000000	139.310345	0.000000	-1.000000	-1.000000	650762.000000	1772919332.158001
-3561.975000	20069.280000	-21632.490000	-14946.345000	0.000000	0.000000	0.000000	0.000000	46.168434	51.881423	89.690520	82.561044	0.000000	-0.000000	-0.000000	-0.000000	1.022420	1.480220	-0.289940	-0.017212	0.882810	0.462218	-1.000000	-1.000000	-1.000000	-1.000000	-1.000000	-1.000000	-1.000000	139.310345	0.000000	-1.000000	-1.000000	650763.000000	1772919332.162140
-3608.595000	20074.995000	-21706.515000	-15018.120000	0.000000	0.000000	0.000000	0.000000	73.371209	185.038895	145.464428	126.234978	0.000000	-0.000000	-0.000000	-0.000000	1.022420	1.480220	-0.289940	-0.017212	0.882810	0.462218	-1.000000	-1.000000	-1.000000	-1.000000	-1.000000	-1.000000	-1.000000	139.310345	0.000000	-1.000000	-1.000000	650764.000000	1772919332.162142
-3667.365000	19996.380000	-21804.030000	-15099.795000	0.000000	0.000000	0.000000	0.000000	57.913206	234.627025	118.710935	97.227257	0.000000	-0.000000	-0.000000	-0.000000	1.022420	1.480220	-0.289940	-0.017212	0.882810	0.462218	-1.000000	-1.000000	-1.000000	-1.000000	-1.000000	-1.000000	-1.000000	139.310345	0.000000	-1.000000	-1.000000	650765.000000	1772919332.166231
-3779.190000	19895.040000	-21989.700000	-15263.370000	0.000000	0.000000	0.000000	0.000000	6.072145	186.889826	22.501942	10.565130	0.000000	-0.000000	-0.000000	-0.000000	1.022420	1.480220	-0.289940	-0.017212	0.882810	0.462218	-1.000000	-1.000000	-1.000000	-1.000000	-1.000000	-1.000000	-1.000000	139.310345	0.000000	-1.000000	-1.000000	650766.000000	1772919332.166234
-3792.870000	19815.660000	-22028.265000	-15293.970000	0.000000	0.000000	0.000000	0.000000	-54.330774	73.469231	-91.055606	-86.413486	0.000000	-0.000000	-0.000000	-0.000000	1.022420	1.480220	-0.289940	-0.017212	0.882810	0.462218	-1.000000	-1.000000	-1.000000	-1.000000	-1.000000	-1.000000	-1.000000	139.310345	0.000000	-1.000000	-1.000000	650767.000000	1772919332.170250
-3761.775000	19851.075000	-21997.440000	-15250.545000	0.000000	0.000000	0.000000	0.000000	-88.312996	-47.410197	-159.008189	-139.861219	0.000000	-0.000000	-0.000000	-0.000000	1.022420	1.480220	-0.289940	-0.017212	0.882810	0.462218	-1.000000	-1.000000	-1.000000	-1.000000	-1.000000	-1.000000	-1.000000	139.310345	0.000000	-1.000000	-1.000000	650768.000000	1772919332.170252
-3724.335000	19946.070000	-21937.500000	-15193.170000	0.000000	0.000000	0.000000	0.000000	-74.231684	-118.630338	-142.498987	-118.500935	0.000000	-0.000000	-0.000000	-0.000000	1.022420	1.480220	-0.289940	-0.017212	0.882810	0.462218	-1.000000	-1.000000	-1.000000	-1.000000	-1.000000	-1.000000	-1.000000	139.310345	0.000000	-1.000000	-1.000000	650769.000000	1772919332.174411
-3633.255000	20041.695000	-21765.915000	-15047.145000	0.000000	0.000000	0.000000	0.000000	-18.635768	-114.182136	-49.955351	-32.995588	0.000000	-0.000000	-0.000000	-0.000000	1.022420	1.480220	-0.289940	-0.017212	0.882810	0.462218	-1.000000	-1.000000	-1.000000	-1.000000	-1.000000	-1.000000	-1.000000	139.310345	0.000000	-1.000000	-1.000000	650770.000000	1772919332.174414
-3615.390000	20208.735000	-21695.220000	-14994.810000	0.000000	0.000000	0.000000	0.000000	48.669517	-50.981776	70.799756	71.965516	0.000000	-0.000000	-0.000000	-0.000000	1.022420	1.480220	-0.289940	-0.017212	0.882810	0.462218	-1.000000	-1.000000	-1.000000	-1.000000	-1.000000	-1.000000	-1.000000	139.310345	0.000000	-1.000000	-1.000000	650771.000000	1772919332.178252
-3659.265000	20340.360000	-21750.795000	-15047.325000	0.000000	0.000000	0.000000	0.000000	91.454175	28.167432	157.371034	141.646173	0.000000	-0.000000	-0.000000	-0.000000	1.022420	1.480220	-0.289940	-0.017212	0.882810	0.462218	-1.000000	-1.000000	-1.000000	-1.000000	-1.000000	-1.000000	-1.000000	139.310345	0.000000	-1.000000	-1.000000	650772.000000	1772919332.178254
-3700.530000	20367.540000	-21817.755000	-15096.915000	0.000000	0.000000	0.000000	0.000000	86.255900	79.484321	162.948744	138.654024	0.000000	-0.000000	-0.000000	-0.000000	0.961380	1.724380	-1.403920	-0.015381	0.882932	0.463866	-1.000000	-1.000000	-1.000000	-1.000000	-1.000000	-1.000000	-1.000000	139.310345	0.000000	-1.000000	-1.000000	650773.000000	1772919332.182183
-3799.980000	20338.425000	-21980.475000	-15238.665000	0.000000	0.000000	0.000000	0.000000	36.664093	75.031976	84.530082	65.256172	0.000000	-0.000000	-0.000000	-0.000000	0.961380	1.724380	-1.403920	-0.015381	0.882932	0.463866	-1.000000	-1.000000	-1.000000	-1.000000	-1.000000	-1.000000	-1.000000	139.310345	0.000000	-1.000000	-1.000000	650774.000000	1772919332.182185
-3845.700000	20272.860000	-22073.715000	-15332.490000	0.000000	0.000000	0.000000	0.000000	-30.048050	15.281351	-35.512634	-39.483661	0.000000	-0.000000	-0.000000	-0.000000	0.961380	1.724380	-1.403920	-0.015381	0.882932	0.463866	-1.000000	-1.000000	-1.000000	-1.000000	-1.000000	-1.000000	-1.000000	139.310345	0.000000	-1.000000	-1.000000	650775.000000	1772919332.186210
-3827.655000	20288.835000	-22042.260000	-15308.145000	0.000000	0.000000	0.000000	0.000000	-78.570248	-67.940374	-133.464780	-121.896946	0.000000	-0.000000	-0.000000	-0.000000	0.961380	1.724380	-1.403920	-0.015381	0.882932	0.463866	-1.000000	-1.000000	-1.000000	-1.000000	-1.000000	-1.000000	-1.000000	139.310345	0.000000	-1.000000	-1.000000	650776.000000	1772919332.186213
-3810.915000	20388.825000	-21999.195000	-15274.710000	0.000000	0.000000	0.000000	0.000000	-83.561552	-126.123638	-157.464636	-139.488492	0.000000	-0.000000	-0.000000	-0.000000	0.961380	1.724380	-1.403920	-0.015381	0.882932	0.463866	-1.000000	-1.000000	-1.000000	-1.000000	-1.000000	-1.000000	-1.000000	139.310345	0.000000	-1.000000	-1.000000	650777.000000	1772919332.190143
-3729.870000	20496.105000	-21861.495000	-15149.295000	0.000000	0.000000	0.000000	0.000000	-43.918336	-122.902885	-97.156113	-84.175604	0.000000	-0.000000	-0.000000	-0.000000	0.961380	1.724380	-1.403920	-0.015381	0.882932	0.463866	-1.000000	-1.000000	-1.000000	-1.000000	-1.000000	-1.000000	-1.000000	139.310345	0.000000	-1.000000	-1.000000	650778.000000	1772919332.190145
-3666.690000	20660.355000	-21736.845000	-15039.000000	0.000000	0.000000	0.000000	0.000000	18.456616	-58.224529	12.828097	14.167451	0.000000	-0.000000	-0.000000	-0.000000	0.961380	1.724380	-1.403920	-0.015381	0.882932	0.463866	-1.000000	-1.000000	-1.000000	-1.000000	-1.000000	-1.000000	-1.000000	139.310345	0.000000	-1.000000	-1.000000	650779.000000	1772919332.194186
-3673.170000	20725.065000	-21757.680000	-15054.255000	0.000000	0.000000	0.000000	0.000000	71.467078	32.362777	113.913975	104.499166	0.000000	-0.000000	-0.000000	-0.000000	0.961380	1.724380	-1.403920	-0.015381	0.882932	0.463866	-1.000000	-1.000000	-1.000000	-1.000000	-1.000000	-1.000000	-1.000000	139.310345	0.000000	-1.000000	-1.000000	650780.000000	1772919332.194188
-3709.890000	20768.760000	-21828.600000	-15119.955000	0.000000	0.000000	0.000000	0.000000	87.270797	99.754433	151.611155	138.451183	0.000000	-0.000000	-0.000000	-0.000000	0.961380	1.724380	-1.403920	-0.015381	0.882932	0.463866	-1.000000	-1.000000	-1.000000	-1.000000	-1.000000	-1.000000	-1.000000	139.310345	0.000000	-1.000000	-1.000000	650781.000000	1772919332.198207
-3809.700000	20853.180000	-21974.715000	-15254.055000	0.000000	0.000000	0.000000	0.000000	56.478867	111.536397	104.905624	96.640915	0.000000	-0.000000	-0.000000	-0.000000	0.961380	1.724380	-1.403920	-0.015381	0.882932	0.463866	-1.000000	-1.000000	-1.000000	-1.000000	-1.000000	-1.000000	-1.000000	139.310345	0.000000	-1.000000	-1.000000	650782.000000	1772919332.198210
-3908.340000	20806.380000	-22133.295000	-15397.155000	0.000000	0.000000	0.000000	0.000000	-6.324560	69.496120	-0.897383	1.023780	0.000000	-0.000000	-0.000000	-0.000000	-1.861720	0.671440	-3.753960	-0.013916	0.882322	0.463805	-1.000000	-1.000000	-1.000000	-1.000000	-1.000000	-1.000000	-1.000000	139.310345	0.000000	-1.000000	-1.000000	650783.000000	1772919332.202209
-3865.275000	20674.620000	-22085.820000	-15345.045000	0.000000	0.000000	0.000000	0.000000	-68.130260	-2.841348	-107.366946	-95.784578	0.000000	-0.000000	-0.000000	-0.000000	-1.861720	0.671440	-3.753960	-0.013916	0.882322	0.463805	-1.000000	-1.000000	-1.000000	-1.000000	-1.000000	-1.000000	-1.000000	139.310345	0.000000	-1.000000	-1.000000	650784.000000	1772919332.202224
-3816.720000	20644.785000	-22012.245000	-15272.190000	0.000000	0.000000	0.000000	0.000000	-92.272259	-76.950987	-152.410591	-136.906012	0.000000	-0.000000	-0.000000	-0.000000	-1.861720	0.671440	-3.753960	-0.013916	0.882322	0.463805	-1.000000	-1.000000	-1.000000	-1.000000	-1.000000	-1.000000	-1.000000	139.310345	0.000000	-1.000000	-1.000000	650785.000000	1772919332.206178
-3742.875000	20648.700000	-21889.845000	-15158.205000	0.000000	0.000000	0.000000	0.000000	-62.714535	-121.341425	-108.566268	-97.075801	0.000000	-0.000000	-0.000000	-0.000000	-1.861720	0.671440	-3.753960	-0.013916	0.882322	0.463805	-1.000000	-1.000000	-1.000000	-1.000000	-1.000000	-1.000000	-1.000000	139.310345	0.000000	-1.000000	-1.000000	650786.000000	1772919332.206182
-3624.750000	20638.170000	-21703.725000	-14982.390000	0.000000	0.000000	0.000000	0.000000	3.633832	-112.798158	-1.385525	0.052153	0.000000	-0.000000	-0.000000	-0.000000	-1.861720	0.671440	-3.753960	-0.013916	0.882322	0.463805	-1.000000	-1.000000	-1.000000	-1.000000	-1.000000	-1.000000	-1.000000	139.310345	0.000000	-1.000000	-1.000000	650787.000000	1772919332.210242
-3605.490000	20541.735000	-21680.370000	-14950.755000	0.000000	0.000000	0.000000	0.000000	69.876083	-57.221554	109.392738	99.907695	0.000000	-0.000000	-0.000000	-0.000000	-1.861720	0.671440	-3.753960	-0.013916	0.882322	0.463805	-1.000000	-1.000000	-1.000000	-1.000000	-1.000000	-1.000000	-1.000000	139.310345	0.000000	-1.000000	-1.000000	650788.000000	1772919332.210246
-3653.415000	20480.535000	-21749.310000	-15002.640000	0.000000	0.000000	0.000000	0.000000	99.164147	11.929524	161.872857	146.716056	0.000000	-0.000000	-0.000000	-0.000000	-1.861720	0.671440	-3.753960	-0.013916	0.882322	0.463805	-1.000000	-1.000000	-1.000000	-1.000000	-1.000000	-1.000000	-1.000000	139.310345	0.000000	-1.000000	-1.000000	650789.000000	1772919332.214294
-3732.165000	20440.485000	-21877.290000	-15123.915000	0.000000	0.000000	0.000000	0.000000	72.974294	61.385219	123.935301	111.567179	0.000000	-0.000000	-0.000000	-0.000000	-1.861720	0.671440	-3.753960	-0.013916	0.882322	0.463805	-1.000000	-1.000000	-1.000000	-1.000000	-1.000000	-1.000000	-1.000000	139.310345	0.000000	-1.000000	-1.000000	650790.000000	1772919332.214297
-3827.475000	20369.925000	-22073.400000	-15360.570000	0.000000	0.000000	0.000000	0.000000	3.477282	78.916351	13.240089	8.835520	0.000000	-0.000000	-0.000000	-0.000000	-1.861720	0.671440	-3.753960	-0.013916	0.882322	0.463805	-1.000000	-1.000000	-1.000000	-1.000000	-1.000000	-1.000000	-1.000000	139.310345	0.000000	-1.000000	-1.000000	650791.000000	1772919332.219553
-3811.500000	20319.570000	-22074.165000	-15353.370000	0.000000	0.000000	0.000000	0.000000	-71.331169	69.956078	-111.192562	-109.666680	0.000000	-0.000000	-0.000000	-0.000000	-1.861720	0.671440	-3.753960	-0.013916	0.882322	0.463805	-1.000000	-1.000000	-1.000000	-1.000000	-1.000000	-1.000000	-1.000000	139.310345	0.000000	-1.000000	-1.000000	650792.000000	1772919332.219557
-3728.295000	20280.645000	-21964.230000	-15249.915000	0.000000	0.000000	0.000000	0.000000	-107.767789	47.064819	-178.154035	-175.810616	0.000000	-0.000000	-0.000000	-0.000000	-1.938020	2.914660	-3.967600	-0.014832	0.883665	0.465575	-1.000000	-1.000000	-1.000000	-1.000000	-1.000000	-1.000000	-1.000000	139.310345	0.000000	-1.000000	-1.000000	650793.000000	1772919332.222326
-3688.155000	20316.105000	-21880.665000	-15177.420000	0.000000	0.000000	0.000000	0.000000	-83.774653	24.504774	-146.162880	-145.411754	0.000000	-0.000000	-0.000000	-0.000000	-1.938020	2.914660	-3.967600	-0.014832	0.883665	0.465575	-1.000000	-1.000000	-1.000000	-1.000000	-1.000000	-1.000000	-1.000000	139.310345	0.000000	-1.000000	-1.000000	650794.000000	1772919332.222329
-3665.790000	20472.705000	-21763.080000	-15060.465000	0.000000	0.000000	0.000000	0.000000	-16.387234	15.704002	-34.600666	-34.771308	0.000000	-0.000000	-0.000000	-0.000000	-1.938020	2.914660	-3.967600	-0.014832	0.883665	0.465575	-1.000000	-1.000000	-1.000000	-1.000000	-1.000000	-1.000000	-1.000000	139.310345	0.000000	-1.000000	-1.000000	650795.000000	1772919332.229084
-3681.405000	20652.120000	-21740.580000	-15040.395000	0.000000	0.000000	0.000000	0.000000	51.218000	28.372018	90.456570	91.144078	0.000000	-0.000000	-0.000000	-0.000000	-1.938020	2.914660	-3.967600	-0.014832	0.883665	0.465575	-1.000000	-1.000000	-1.000000	-1.000000	-1.000000	-1.000000	-1.000000	139.310345	0.000000	-1.000000	-1.000000	650796.000000	1772919332.229087
-3703.275000	20647.575000	-21785.580000	-15086.160000	0.000000	0.000000	0.000000	0.000000	81.884108	52.395769	160.594942	163.599425	0.000000	-0.000000	-0.000000	-0.000000	-1.938020	2.914660	-3.967600	-0.014832	0.883665	0.465575	-1.000000	-1.000000	-1.000000	-1.000000	-1.000000	-1.000000	-1.000000	139.310345	0.000000	-1.000000	-1.000000	650797.000000	1772919332.232987
-3735.945000	20556.315000	-21850.740000	-15140.430000	0.000000	0.000000	0.000000	0.000000	66.047131	56.503700	143.127363	148.764188	0.000000	-0.000000	-0.000000	-0.000000	-1.938020	2.914660	-3.967600	-0.014832	0.883665	0.465575	-1.000000	-1.000000	-1.000000	-1.000000	-1.000000	-1.000000	-1.000000	139.310345	0.000000	-1.000000	-1.000000	650798.000000	1772919332.232990
-3830.355000	20455.110000	-22020.930000	-15289.470000	0.000000	0.000000	0.000000	0.000000	19.643769	14.505966	53.752601	61.602496	0.000000	-0.000000	-0.000000	-0.000000	-1.938020	2.914660	-3.967600	-0.014832	0.883665	0.465575	-1.000000	-1.000000	-1.000000	-1.000000	-1.000000	-1.000000	-1.000000	139.310345	0.000000	-1.000000	-1.000000	650799.000000	1772919332.234258
-3769.965000	20275.560000	-22016.340000	-15295.815000	0.000000	0.000000	0.000000	0.000000	-29.662971	-65.000649	-57.368157	-48.374307	0.000000	-0.000000	-0.000000	-0.000000	-1.938020	2.914660	-3.967600	-0.014832	0.883665	0.465575	-1.000000	-1.000000	-1.000000	-1.000000	-1.000000	-1.000000	-1.000000	139.310345	0.000000	-1.000000	-1.000000	650800.000000	1772919332.234266
-3686.040000	20323.935000	-21948.165000	-15237.180000	0.000000	0.000000	0.000000	0.000000	-53.284870	-139.936543	-130.082188	-122.970603	0.000000	-0.000000	-0.000000	-0.000000	-1.938020	2.914660	-3.967600	-0.014832	0.883665	0.465575	-1.000000	-1.000000	-1.000000	-1.000000	-1.000000	-1.000000	-1.000000	139.310345	0.000000	-1.000000	-1.000000	650801.000000	1772919332.238351
-3687.480000	20455.920000	-21920.760000	-15217.110000	0.000000	0.000000	0.000000	0.000000	-37.954675	-158.716801	-126.330762	-125.457354	0.000000	-0.000000	-0.000000	-0.000000	-1.938020	2.914660	-3.967600	-0.014832	0.883665	0.465575	-1.000000	-1.000000	-1.000000	-1.000000	-1.000000	-1.000000	-1.000000	139.310345	0.000000	-1.000000	-1.000000	650802.000000	1772919332.238355
-3698.145000	20486.160000	-21848.220000	-15131.430000	0.000000	0.000000	0.000000	0.000000	0.209942	-97.581248	-55.831239	-62.959637	0.000000	-0.000000	-0.000000	-0.000000	1.297100	4.654300	-1.388660	-0.019531	0.874082	0.467589	-1.000000	-1.000000	-1.000000	-1.000000	-1.000000	-1.000000	-1.000000	139.310345	0.000000	-1.000000	-1.000000	650803.000000	1772919332.243838
-3646.305000	20424.105000	-21734.055000	-15004.305000	0.000000	0.000000	0.000000	0.000000	31.401403	10.736929	36.561486	24.988441	0.000000	-0.000000	-0.000000	-0.000000	1.297100	4.654300	-1.388660	-0.019531	0.874082	0.467589	-1.000000	-1.000000	-1.000000	-1.000000	-1.000000	-1.000000	-1.000000	139.310345	0.000000	-1.000000	-1.000000	650804.000000	1772919332.243841
-3674.655000	20418.840000	-21790.260000	-15039.360000	0.000000	0.000000	0.000000	0.000000	39.124116	100.076436	103.202371	94.056316	0.000000	-0.000000	-0.000000	-0.000000	1.297100	4.654300	-1.388660	-0.019531	0.874082	0.467589	-1.000000	-1.000000	-1.000000	-1.000000	-1.000000	-1.000000	-1.000000	139.310345	0.000000	-1.000000	-1.000000	650805.000000	1772919332.246360
-3709.080000	20388.195000	-21868.695000	-15095.925000	0.000000	0.000000	0.000000	0.000000	24.007056	126.421830	112.010045	110.787818	0.000000	-0.000000	-0.000000	-0.000000	1.297100	4.654300	-1.388660	-0.019531	0.874082	0.467589	-1.000000	-1.000000	-1.000000	-1.000000	-1.000000	-1.000000	-1.000000	139.310345	0.000000	-1.000000	-1.000000	650806.000000	1772919332.246363
-3740.355000	20334.915000	-21957.615000	-15208.335000	0.000000	0.000000	0.000000	0.000000	-4.473814	91.861783	59.274911	66.064022	0.000000	-0.000000	-0.000000	-0.000000	1.297100	4.654300	-1.388660	-0.019531	0.874082	0.467589	-1.000000	-1.000000	-1.000000	-1.000000	-1.000000	-1.000000	-1.000000	139.310345	0.000000	-1.000000	-1.000000	650807.000000	1772919332.252511
-3748.140000	20172.105000	-22040.775000	-15324.345000	0.000000	0.000000	0.000000	0.000000	-31.688218	25.160633	-24.950023	-16.925887	0.000000	-0.000000	-0.000000	-0.000000	1.297100	4.654300	-1.388660	-0.019531	0.874082	0.467589	-1.000000	-1.000000	-1.000000	-1.000000	-1.000000	-1.000000	-1.000000	139.310345	0.000000	-1.000000	-1.000000	650808.000000	1772919332.252515
-3745.530000	20076.435000	-22013.055000	-15308.100000	0.000000	0.000000	0.000000	0.000000	-43.357885	-42.879939	-93.391257	-93.526401	0.000000	-0.000000	-0.000000	-0.000000	1.297100	4.654300	-1.388660	-0.019531	0.874082	0.467589	-1.000000	-1.000000	-1.000000	-1.000000	-1.000000	-1.000000	-1.000000	139.310345	0.000000	-1.000000	-1.000000	650809.000000	1772919332.254463
-3797.820000	20036.745000	-21981.150000	-15241.095000	0.000000	0.000000	0.000000	0.000000	-34.819499	-86.078203	-108.698851	-119.917823	0.000000	-0.000000	-0.000000	-0.000000	1.297100	4.654300	-1.388660	-0.019531	0.874082	0.467589	-1.000000	-1.000000	-1.000000	-1.000000	-1.000000	-1.000000	-1.000000	139.310345	0.000000	-1.000000	-1.000000	650810.000000	1772919332.254467
-3768.075000	20054.385000	-21882.555000	-15126.255000	0.000000	0.000000	0.000000	0.000000	-13.339041	-85.419507	-64.022049	-78.398317	0.000000	-0.000000	-0.000000	-0.000000	1.297100	4.654300	-1.388660	-0.019531	0.874082	0.467589	-1.000000	-1.000000	-1.000000	-1.000000	-1.000000	-1.000000	-1.000000	139.310345	0.000000	-1.000000	-1.000000	650811.000000	1772919332.258492
-3684.780000	20139.480000	-21729.015000	-15003.225000	0.000000	0.000000	0.000000	0.000000	12.074858	-38.758379	16.345022	9.926776	0.000000	-0.000000	-0.000000	-0.000000	1.297100	4.654300	-1.388660	-0.019531	0.874082	0.467589	-1.000000	-1.000000	-1.000000	-1.000000	-1.000000	-1.000000	-1.000000	139.310345	0.000000	-1.000000	-1.000000	650812.000000	1772919332.258495
-3681.270000	20191.140000	-21722.355000	-15011.595000	0.000000	0.000000	0.000000	0.000000	36.055264	33.922772	92.176510	96.576675	0.000000	-0.000000	-0.000000	-0.000000	8.896580	2.563680	-1.220800	-0.020996	0.866697	0.471862	-1.000000	-1.000000	-1.000000	-1.000000	-1.000000	-1.000000	-1.000000	139.310345	0.000000	-1.000000	-1.000000	650813.000000	1772919332.262427
-3705.570000	20287.710000	-21793.455000	-15043.455000	0.000000	0.000000	0.000000	0.000000	49.580018	98.650650	122.623437	132.334361	0.000000	-0.000000	-0.000000	-0.000000	8.896580	2.563680	-1.220800	-0.020996	0.866697	0.471862	-1.000000	-1.000000	-1.000000	-1.000000	-1.000000	-1.000000	-1.000000	139.310345	0.000000	-1.000000	-1.000000	650814.000000	1772919332.262430
-3765.420000	20357.235000	-21890.610000	-15082.110000	0.000000	0.000000	0.000000	0.000000	41.298550	126.028245	86.309374	97.369416	0.000000	-0.000000	-0.000000	-0.000000	8.896580	2.563680	-1.220800	-0.020996	0.866697	0.471862	-1.000000	-1.000000	-1.000000	-1.000000	-1.000000	-1.000000	-1.000000	139.310345	0.000000	-1.000000	-1.000000	650815.000000	1772919332.266480
-3877.200000	20372.715000	-22064.040000	-15211.710000	0.000000	0.000000	0.000000	0.000000	9.265419	105.289215	-1.750529	12.623488	0.000000	-0.000000	-0.000000	-0.000000	8.896580	2.563680	-1.220800	-0.020996	0.866697	0.471862	-1.000000	-1.000000	-1.000000	-1.000000	-1.000000	-1.000000	-1.000000	139.310345	0.000000	-1.000000	-1.000000	650816.000000	1772919332.266482
-3893.670000	20403.405000	-22106.790000	-15282.360000	0.000000	0.000000	0.000000	0.000000	-33.315965	45.490443	-96.809560	-78.381968	0.000000	-0.000000	-0.000000	-0.000000	8.896580	2.563680	-1.220800	-0.020996	0.866697	0.471862	-1.000000	-1.000000	-1.000000	-1.000000	-1.000000	-1.000000	-1.000000	139.310345	0.000000	-1.000000	-1.000000	650817.000000	1772919332.270414
-3799.890000	20512.665000	-22037.895000	-15364.575000	0.000000	0.000000	0.000000	0.000000	-60.620824	-27.487919	-146.483703	-134.405853	0.000000	-0.000000	-0.000000	-0.000000	8.896580	2.563680	-1.220800	-0.020996	0.866697	0.471862	-1.000000	-1.000000	-1.000000	-1.000000	-1.000000	-1.000000	-1.000000	139.310345	0.000000	-1.000000	-1.000000	650818.000000	1772919332.270416
-3749.985000	20513.205000	-21934.620000	-15204.330000	0.000000	0.000000	0.000000	0.000000	-49.913786	-82.255206	-118.422613	-129.903399	0.000000	-0.000000	-0.000000	-0.000000	8.896580	2.563680	-1.220800	-0.020996	0.866697	0.471862	-1.000000	-1.000000	-1.000000	-1.000000	-1.000000	-1.000000	-1.000000	139.310345	0.000000	-1.000000	-1.000000	650819.000000	1772919332.274511
-3617.460000	20510.910000	-21695.940000	-14879.340000	0.000000	0.000000	0.000000	0.000000	-2.860103	-102.969924	-21.600418	-57.812672	0.000000	-0.000000	-0.000000	-0.000000	8.896580	2.563680	-1.220800	-0.020996	0.866697	0.471862	-1.000000	-1.000000	-1.000000	-1.000000	-1.000000	-1.000000	-1.000000	139.310345	0.000000	-1.000000	-1.000000	650820.000000	1772919332.274514
-3591.045000	20512.485000	-21629.205000	-14796.135000	0.000000	0.000000	0.000000	0.000000	53.499831	-94.827388	96.837821	60.252734	0.000000	-0.000000	-0.000000	-0.000000	8.896580	2.563680	-1.220800	-0.020996	0.866697	0.471862	-1.000000	-1.000000	-1.000000	-1.000000	-1.000000	-1.000000	-1.000000	139.310345	0.000000	-1.000000	-1.000000	650821.000000	1772919332.278498
-3672.135000	20500.560000	-21739.590000	-14946.030000	0.000000	0.000000	0.000000	0.000000	83.233610	-70.160580	171.544157	160.346053	0.000000	-0.000000	-0.000000	-0.000000	8.896580	2.563680	-1.220800	-0.020996	0.866697	0.471862	-1.000000	-1.000000	-1.000000	-1.000000	-1.000000	-1.000000	-1.000000	139.310345	0.000000	-1.000000	-1.000000	650822.000000	1772919332.278501
-3747.195000	20479.905000	-21886.875000	-15197.220000	0.000000	0.000000	0.000000	0.000000	62.400987	-39.165945	152.373693	166.968815	0.000000	-0.000000	-0.000000	-0.000000	15.717800	-0.793520	-0.686700	-0.027039	0.874265	0.468627	-1.000000	-1.000000	-1.000000	-1.000000	-1.000000	-1.000000	-1.000000	139.310345	0.000000	-1.000000	-1.000000	650823.000000	1772919332.282478
-3843.315000	20441.790000	-22061.340000	-15385.725000	0.000000	0.000000	0.000000	0.000000	-1.820658	-9.665195	42.551810	60.656466	0.000000	-0.000000	-0.000000	-0.000000	15.717800	-0.793520	-0.686700	-0.027039	0.874265	0.468627	-1.000000	-1.000000	-1.000000	-1.000000	-1.000000	-1.000000	-1.000000	139.310345	0.000000	-1.000000	-1.000000	650824.000000	1772919332.282482
-3865.185000	20450.655000	-22113.540000	-15373.665000	0.000000	0.000000	0.000000	0.000000	-72.864744	13.582964	-96.914135	-93.567436	0.000000	-0.000000	-0.000000	-0.000000	15.717800	-0.793520	-0.686700	-0.027039	0.874265	0.468627	-1.000000	-1.000000	-1.000000	-1.000000	-1.000000	-1.000000	-1.000000	139.310345	0.000000	-1.000000	-1.000000	650825.000000	1772919332.286416
-3806.640000	20500.155000	-22119.480000	-15268.725000	0.000000	0.000000	0.000000	0.000000	-108.077418	31.159390	-186.086071	-191.264799	0.000000	-0.000000	-0.000000	-0.000000	15.717800	-0.793520	-0.686700	-0.027039	0.874265	0.468627	-1.000000	-1.000000	-1.000000	-1.000000	-1.000000	-1.000000	-1.000000	139.310345	0.000000	-1.000000	-1.000000	650826.000000	1772919332.286418
-3757.500000	20491.110000	-22081.770000	-15200.955000	0.000000	0.000000	0.000000	0.000000	-85.095487	45.510707	-177.045212	-168.753179	0.000000	-0.000000	-0.000000	-0.000000	15.717800	-0.793520	-0.686700	-0.027039	0.874265	0.468627	-1.000000	-1.000000	-1.000000	-1.000000	-1.000000	-1.000000	-1.000000	139.310345	0.000000	-1.000000	-1.000000	650827.000000	1772919332.290598
-3678.840000	20535.435000	-21879.720000	-15063.840000	0.000000	0.000000	0.000000	0.000000	-16.254567	54.215457	-77.866361	-46.575252	0.000000	-0.000000	-0.000000	-0.000000	15.717800	-0.793520	-0.686700	-0.027039	0.874265	0.468627	-1.000000	-1.000000	-1.000000	-1.000000	-1.000000	-1.000000	-1.000000	139.310345	0.000000	-1.000000	-1.000000	650828.000000	1772919332.290601
-3620.655000	20557.440000	-21719.115000	-14970.330000	0.000000	0.000000	0.000000	0.000000	60.803792	52.544308	62.182743	98.050310	0.000000	-0.000000	-0.000000	-0.000000	15.717800	-0.793520	-0.686700	-0.027039	0.874265	0.468627	-1.000000	-1.000000	-1.000000	-1.000000	-1.000000	-1.000000	-1.000000	139.310345	0.000000	-1.000000	-1.000000	650829.000000	1772919332.296338
-3682.845000	20587.095000	-21769.380000	-15054.030000	0.000000	0.000000	0.000000	0.000000	106.023379	39.707224	176.209375	185.964434	0.000000	-0.000000	-0.000000	-0.000000	15.717800	-0.793520	-0.686700	-0.027039	0.874265	0.468627	-1.000000	-1.000000	-1.000000	-1.000000	-1.000000	-1.000000	-1.000000	139.310345	0.000000	-1.000000	-1.000000	650830.000000	1772919332.296341
-3728.520000	20618.460000	-21761.370000	-15066.675000	0.000000	0.000000	0.000000	0.000000	96.157485	19.312931	205.440906	174.921654	0.000000	-0.000000	-0.000000	-0.000000	15.717800	-0.793520	-0.686700	-0.027039	0.874265	0.468627	-1.000000	-1.000000	-1.000000	-1.000000	-1.000000	-1.000000	-1.000000	139.310345	0.000000	-1.000000	-1.000000	650831.000000	1772919332.298413
-3931.065000	20597.760000	-21958.380000	-15283.305000	0.000000	0.000000	0.000000	0.000000	35.221672	-3.387651	133.346080	76.347548	0.000000	-0.000000	-0.000000	-0.000000	15.717800	-0.793520	-0.686700	-0.027039	0.874265	0.468627	-1.000000	-1.000000	-1.000000	-1.000000	-1.000000	-1.000000	-1.000000	139.310345	0.000000	-1.000000	-1.000000	650832.000000	1772919332.298416
-3938.535000	20596.140000	-21987.900000	-15355.665000	0.000000	0.000000	0.000000	0.000000	-46.892798	-24.277892	-2.490974	-57.077334	0.000000	-0.000000	-0.000000	-0.000000	-13.581400	1.999060	1.510740	-0.021301	0.882749	0.440368	-1.000000	-1.000000	-1.000000	-1.000000	-1.000000	-1.000000	-1.000000	139.310345	0.000000	-1.000000	-1.000000	650833.000000	1772919332.302524
-3897.495000	20557.980000	-21816.180000	-15299.685000	0.000000	0.000000	0.000000	0.000000	-104.736568	-40.075083	-127.724012	-158.017953	0.000000	-0.000000	-0.000000	-0.000000	-13.581400	1.999060	1.510740	-0.021301	0.882749	0.440368	-1.000000	-1.000000	-1.000000	-1.000000	-1.000000	-1.000000	-1.000000	139.310345	0.000000	-1.000000	-1.000000	650834.000000	1772919332.302527
-3884.670000	20498.085000	-21757.995000	-15245.280000	0.000000	0.000000	0.000000	0.000000	-102.701202	-48.080040	-171.769016	-174.205498	0.000000	-0.000000	-0.000000	-0.000000	-13.581400	1.999060	1.510740	-0.021301	0.882749	0.440368	-1.000000	-1.000000	-1.000000	-1.000000	-1.000000	-1.000000	-1.000000	139.310345	0.000000	-1.000000	-1.000000	650835.000000	1772919332.306673
-3756.645000	20479.680000	-21483.990000	-15049.080000	0.000000	0.000000	0.000000	0.000000	-42.255409	-46.872888	-116.262678	-98.812512	0.000000	-0.000000	-0.000000	-0.000000	-13.581400	1.999060	1.510740	-0.021301	0.882749	0.440368	-1.000000	-1.000000	-1.000000	-1.000000	-1.000000	-1.000000	-1.000000	139.310345	0.000000	-1.000000	-1.000000	650836.000000	1772919332.306675
-3569.670000	20517.210000	-21392.640000	-14882.220000	0.000000	0.000000	0.000000	0.000000	44.487819	-33.952658	-2.470560	27.410022	0.000000	-0.000000	-0.000000	-0.000000	-13.581400	1.999060	1.510740	-0.021301	0.882749	0.440368	-1.000000	-1.000000	-1.000000	-1.000000	-1.000000	-1.000000	-1.000000	139.310345	0.000000	-1.000000	-1.000000	650837.000000	1772919332.310943
-3583.665000	20527.920000	-21680.550000	-15031.260000	0.000000	0.000000	0.000000	0.000000	116.483231	-7.607151	93.891863	136.865218	0.000000	-0.000000	-0.000000	-0.000000	-13.581400	1.999060	1.510740	-0.021301	0.882749	0.440368	-1.000000	-1.000000	-1.000000	-1.000000	-1.000000	-1.000000	-1.000000	139.310345	0.000000	-1.000000	-1.000000	650838.000000	1772919332.310946
-3659.085000	20549.655000	-21662.010000	-15093.855000	0.000000	0.000000	0.000000	0.000000	134.525023	25.615319	105.472699	164.989781	0.000000	-0.000000	-0.000000	-0.000000	-13.581400	1.999060	1.510740	-0.021301	0.882749	0.440368	-1.000000	-1.000000	-1.000000	-1.000000	-1.000000	-1.000000	-1.000000	139.310345	0.000000	-1.000000	-1.000000	650839.000000	1772919332.314653
-3713.490000	20588.130000	-21593.340000	-15158.430000	0.000000	0.000000	0.000000	0.000000	81.545184	52.091109	34.055764	95.885861	0.000000	-0.000000	-0.000000	-0.000000	-13.581400	1.999060	1.510740	-0.021301	0.882749	0.440368	-1.000000	-1.000000	-1.000000	-1.000000	-1.000000	-1.000000	-1.000000	139.310345	0.000000	-1.000000	-1.000000	650840.000000	1772919332.314655
-3767.265000	20426.760000	-21723.885000	-15227.685000	0.000000	0.000000	0.000000	0.000000	-16.989591	57.898736	-53.814721	-22.273763	0.000000	-0.000000	-0.000000	-0.000000	-13.581400	1.999060	1.510740	-0.021301	0.882749	0.440368	-1.000000	-1.000000	-1.000000	-1.000000	-1.000000	-1.000000	-1.000000	139.310345	0.000000	-1.000000	-1.000000	650841.000000	1772919332.318612
-3741.120000	20341.620000	-21721.905000	-15158.970000	0.000000	0.000000	0.000000	0.000000	-106.700504	33.710629	-100.991747	-117.147264	0.000000	-0.000000	-0.000000	-0.000000	-13.581400	1.999060	1.510740	-0.021301	0.882749	0.440368	-1.000000	-1.000000	-1.000000	-1.000000	-1.000000	-1.000000	-1.000000	139.310345	0.000000	-1.000000	-1.000000	650842.000000	1772919332.318615
-3695.715000	20406.060000	-21545.640000	-15089.625000	0.000000	0.000000	0.000000	0.000000	-140.371213	-10.724926	-90.012606	-138.785768	0.000000	-0.000000	-0.000000	-0.000000	-50.388520	-5.524120	2.975700	-0.022705	0.925901	0.432616	-1.000000	-1.000000	-1.000000	-1.000000	-1.000000	-1.000000	-1.000000	139.310345	0.000000	-1.000000	-1.000000	650843.000000	1772919332.324847
-3624.480000	20431.395000	-21352.455000	-15046.920000	0.000000	0.000000	0.000000	0.000000	-105.025080	-43.172310	-25.852524	-84.210382	0.000000	-0.000000	-0.000000	-0.000000	-50.388520	-5.524120	2.975700	-0.022705	0.925901	0.432616	-1.000000	-1.000000	-1.000000	-1.000000	-1.000000	-1.000000	-1.000000	139.310345	0.000000	-1.000000	-1.000000	650844.000000	1772919332.324851
-3491.550000	20440.845000	-21371.895000	-14914.620000	0.000000	0.000000	0.000000	0.000000	-23.967349	-39.643784	62.593557	7.495214	0.000000	-0.000000	-0.000000	-0.000000	-50.388520	-5.524120	2.975700	-0.022705	0.925901	0.432616	-1.000000	-1.000000	-1.000000	-1.000000	-1.000000	-1.000000	-1.000000	139.310345	0.000000	-1.000000	-1.000000	650845.000000	1772919332.327862
-3721.815000	20529.855000	-21605.490000	-15025.005000	0.000000	0.000000	0.000000	0.000000	56.446384	-6.548273	118.530944	83.769568	0.000000	-0.000000	-0.000000	-0.000000	-50.388520	-5.524120	2.975700	-0.022705	0.925901	0.432616	-1.000000	-1.000000	-1.000000	-1.000000	-1.000000	-1.000000	-1.000000	139.310345	0.000000	-1.000000	-1.000000	650846.000000	1772919332.327864
-3879.990000	20510.595000	-21801.330000	-15149.835000	0.000000	0.000000	0.000000	0.000000	85.585230	31.800092	93.007316	103.066231	0.000000	-0.000000	-0.000000	-0.000000	-50.388520	-5.524120	2.975700	-0.022705	0.925901	0.432616	-1.000000	-1.000000	-1.000000	-1.000000	-1.000000	-1.000000	-1.000000	139.310345	0.000000	-1.000000	-1.000000	650847.000000	1772919332.334901
-3688.425000	20548.350000	-21653.505000	-15021.855000	0.000000	0.000000	0.000000	0.000000	50.933188	51.879351	-0.283962	59.571606	0.000000	-0.000000	-0.000000	-0.000000	-50.388520	-5.524120	2.975700	-0.022705	0.925901	0.432616	-1.000000	-1.000000	-1.000000	-1.000000	-1.000000	-1.000000	-1.000000	139.310345	0.000000	-1.000000	-1.000000	650848.000000	1772919332.334904
-3667.095000	20560.905000	-21891.690000	-15133.095000	0.000000	0.000000	0.000000	0.000000	-1.089612	43.736646	-90.087814	-8.301809	0.000000	-0.000000	-0.000000	-0.000000	-50.388520	-5.524120	2.975700	-0.022705	0.925901	0.432616	-1.000000	-1.000000	-1.000000	-1.000000	-1.000000	-1.000000	-1.000000	139.310345	0.000000	-1.000000	-1.000000	650849.000000	1772919332.334909
-3783.915000	20578.320000	-22017.330000	-15296.985000	0.000000	0.000000	0.000000	0.000000	-22.885528	15.158683	-122.970089	-59.500870	0.000000	-0.000000	-0.000000	-0.000000	-50.388520	-5.524120	2.975700	-0.022705	0.925901	0.432616	-1.000000	-1.000000	-1.000000	-1.000000	-1.000000	-1.000000	-1.000000	139.310345	0.000000	-1.000000	-1.000000	650850.000000	1772919332.334911
-3963.510000	20657.835000	-22138.830000	-15401.115000	0.000000	0.000000	0.000000	0.000000	-19.033650	-16.198097	-99.847710	-83.356663	0.000000	-0.000000	-0.000000	-0.000000	-50.388520	-5.524120	2.975700	-0.022705	0.925901	0.432616	-1.000000	-1.000000	-1.000000	-1.000000	-1.000000	-1.000000	-1.000000	139.310345	0.000000	-1.000000	-1.000000	650851.000000	1772919332.338705
-3771.405000	20703.195000	-21985.695000	-15205.545000	0.000000	0.000000	0.000000	0.000000	-13.974908	-33.789080	-40.663694	-77.316610	0.000000	-0.000000	-0.000000	-0.000000	-50.388520	-5.524120	2.975700	-0.022705	0.925901	0.432616	-1.000000	-1.000000	-1.000000	-1.000000	-1.000000	-1.000000	-1.000000	139.310345	0.000000	-1.000000	-1.000000	650852.000000	1772919332.338708
-3509.190000	20828.160000	-21764.655000	-14992.605000	0.000000	0.000000	0.000000	0.000000	-1.148406	-30.760220	43.375381	-28.841816	0.000000	-0.000000	-0.000000	-0.000000	-91.193760	-14.252840	29.741740	-0.057190	1.036679	0.470092	-1.000000	-1.000000	-1.000000	-1.000000	-1.000000	-1.000000	-1.000000	139.310345	0.000000	-1.000000	-1.000000	650853.000000	1772919332.345770
-3642.435000	20900.835000	-21876.120000	-15112.755000	0.000000	0.000000	0.000000	0.000000	34.195187	-11.913827	132.019229	53.508991	0.000000	-0.000000	-0.000000	-0.000000	-91.193760	-14.252840	29.741740	-0.057190	1.036679	0.470092	-1.000000	-1.000000	-1.000000	-1.000000	-1.000000	-1.000000	-1.000000	139.310345	0.000000	-1.000000	-1.000000	650854.000000	1772919332.345773
-3880.620000	20836.260000	-21977.235000	-15260.760000	0.000000	0.000000	0.000000	0.000000	62.903163	7.449701	177.121552	115.877064	0.000000	-0.000000	-0.000000	-0.000000	-91.193760	-14.252840	29.741740	-0.057190	1.036679	0.470092	-1.000000	-1.000000	-1.000000	-1.000000	-1.000000	-1.000000	-1.000000	139.310345	0.000000	-1.000000	-1.000000	650855.000000	1772919332.346660
-3905.190000	20876.760000	-22073.175000	-15279.750000	0.000000	0.000000	0.000000	0.000000	40.326768	9.166844	138.822243	106.407082	0.000000	-0.000000	-0.000000	-0.000000	-91.193760	-14.252840	29.741740	-0.057190	1.036679	0.470092	-1.000000	-1.000000	-1.000000	-1.000000	-1.000000	-1.000000	-1.000000	139.310345	0.000000	-1.000000	-1.000000	650856.000000	1772919332.346662
-3913.650000	20804.580000	-22163.670000	-15326.640000	0.000000	0.000000	0.000000	0.000000	-25.111738	-10.517847	32.588729	33.790228	0.000000	-0.000000	-0.000000	-0.000000	-91.193760	-14.252840	29.741740	-0.057190	1.036679	0.470092	-1.000000	-1.000000	-1.000000	-1.000000	-1.000000	-1.000000	-1.000000	139.310345	0.000000	-1.000000	-1.000000	650857.000000	1772919332.350671
-4016.250000	20713.275000	-22170.780000	-15400.395000	0.000000	0.000000	0.000000	0.000000	-80.972907	-39.325671	-81.339799	-48.448317	0.000000	-0.000000	-0.000000	-0.000000	-91.193760	-14.252840	29.741740	-0.057190	1.036679	0.470092	-1.000000	-1.000000	-1.000000	-1.000000	-1.000000	-1.000000	-1.000000	139.310345	0.000000	-1.000000	-1.000000	650858.000000	1772919332.350673
-3940.155000	20724.795000	-22135.365000	-15367.500000	0.000000	0.000000	0.000000	0.000000	-89.361267	-60.647883	-142.662823	-93.517469	0.000000	-0.000000	-0.000000	-0.000000	-91.193760	-14.252840	29.741740	-0.057190	1.036679	0.470092	-1.000000	-1.000000	-1.000000	-1.000000	-1.000000	-1.000000	-1.000000	139.310345	0.000000	-1.000000	-1.000000	650859.000000	1772919332.354654
-3823.740000	20688.480000	-22101.885000	-15322.860000	0.000000	0.000000	0.000000	0.000000	-46.035896	-59.260475	-126.655902	-83.844275	0.000000	-0.000000	-0.000000	-0.000000	-91.193760	-14.252840	29.741740	-0.057190	1.036679	0.470092	-1.000000	-1.000000	-1.000000	-1.000000	-1.000000	-1.000000	-1.000000	139.310345	0.000000	-1.000000	-1.000000	650860.000000	1772919332.354657
-3714.120000	20692.080000	-21990.510000	-15137.730000	0.000000	0.000000	0.000000	0.000000	29.326308	-30.427466	-52.369172	-28.118432	0.000000	-0.000000	-0.000000	-0.000000	-91.193760	-14.252840	29.741740	-0.057190	1.036679	0.470092	-1.000000	-1.000000	-1.000000	-1.000000	-1.000000	-1.000000	-1.000000	139.310345	0.000000	-1.000000	-1.000000	650861.000000	1772919332.358918
-3682.530000	20664.360000	-21887.910000	-15034.770000	0.000000	0.000000	0.000000	0.000000	99.610642	13.842023	37.515702	47.147152	0.000000	-0.000000	-0.000000	-0.000000	-91.193760	-14.252840	29.741740	-0.057190	1.036679	0.470092	-1.000000	-1.000000	-1.000000	-1.000000	-1.000000	-1.000000	-1.000000	139.310345	0.000000	-1.000000	-1.000000	650862.000000	1772919332.358921
-3771.540000	20627.055000	-21963.105000	-15162.390000	0.000000	0.000000	0.000000	0.000000	124.246431	52.678879	99.292874	102.263416	0.000000	-0.000000	-0.000000	-0.000000	-10.941420	-69.936580	37.783760	-0.106567	0.980649	0.591124	-1.000000	-1.000000	-1.000000	-1.000000	-1.000000	-1.000000	-1.000000	139.310345	0.000000	-1.000000	-1.000000	650863.000000	1772919332.362728
-3789.270000	20619.180000	-22000.320000	-15129.180000	0.000000	0.000000	0.000000	0.000000	84.434771	69.705252	102.476431	100.065317	0.000000	-0.000000	-0.000000	-0.000000	-10.941420	-69.936580	37.783760	-0.106567	0.980649	0.591124	-1.000000	-1.000000	-1.000000	-1.000000	-1.000000	-1.000000	-1.000000	139.310345	0.000000	-1.000000	-1.000000	650864.000000	1772919332.362731
-3705.480000	20624.085000	-21998.880000	-15113.745000	0.000000	0.000000	0.000000	0.000000	2.756889	62.646033	48.191829	40.268082	0.000000	-0.000000	-0.000000	-0.000000	-10.941420	-69.936580	37.783760	-0.106567	0.980649	0.591124	-1.000000	-1.000000	-1.000000	-1.000000	-1.000000	-1.000000	-1.000000	139.310345	0.000000	-1.000000	-1.000000	650865.000000	1772919332.366700
-3830.220000	20624.040000	-22193.505000	-15405.480000	0.000000	0.000000	0.000000	0.000000	-72.731419	41.403403	-30.674597	-41.985636	0.000000	-0.000000	-0.000000	-0.000000	-10.941420	-69.936580	37.783760	-0.106567	0.980649	0.591124	-1.000000	-1.000000	-1.000000	-1.000000	-1.000000	-1.000000	-1.000000	139.310345	0.000000	-1.000000	-1.000000	650866.000000	1772919332.366703
-3930.615000	20710.080000	-22240.755000	-15546.330000	0.000000	0.000000	0.000000	0.000000	-111.563776	19.196880	-96.870219	-114.621974	0.000000	-0.000000	-0.000000	-0.000000	-10.941420	-69.936580	37.783760	-0.106567	0.980649	0.591124	-1.000000	-1.000000	-1.000000	-1.000000	-1.000000	-1.000000	-1.000000	139.310345	0.000000	-1.000000	-1.000000	650867.000000	1772919332.370683
-3865.095000	20761.695000	-22171.815000	-15431.895000	0.000000	0.000000	0.000000	0.000000	-110.810551	6.231602	-122.063466	-151.275523	0.000000	-0.000000	-0.000000	-0.000000	-10.941420	-69.936580	37.783760	-0.106567	0.980649	0.591124	-1.000000	-1.000000	-1.000000	-1.000000	-1.000000	-1.000000	-1.000000	139.310345	0.000000	-1.000000	-1.000000	650868.000000	1772919332.370686
-3751.065000	20746.845000	-22034.745000	-15177.915000	0.000000	0.000000	0.000000	0.000000	-72.341824	2.768550	-88.249848	-119.070325	0.000000	-0.000000	-0.000000	-0.000000	-10.941420	-69.936580	37.783760	-0.106567	0.980649	0.591124	-1.000000	-1.000000	-1.000000	-1.000000	-1.000000	-1.000000	-1.000000	139.310345	0.000000	-1.000000	-1.000000	650869.000000	1772919332.374794
-3722.220000	20775.510000	-21934.215000	-14969.160000	0.000000	0.000000	0.000000	0.000000	-3.663503	-1.160591	-3.662941	-9.416769	0.000000	-0.000000	-0.000000	-0.000000	-10.941420	-69.936580	37.783760	-0.106567	0.980649	0.591124	-1.000000	-1.000000	-1.000000	-1.000000	-1.000000	-1.000000	-1.000000	139.310345	0.000000	-1.000000	-1.000000	650870.000000	1772919332.374797
-3756.780000	20742.660000	-21978.495000	-15076.395000	0.000000	0.000000	0.000000	0.000000	66.222775	-13.232764	88.591600	125.973526	0.000000	-0.000000	-0.000000	-0.000000	-10.941420	-69.936580	37.783760	-0.106567	0.980649	0.591124	-1.000000	-1.000000	-1.000000	-1.000000	-1.000000	-1.000000	-1.000000	139.310345	0.000000	-1.000000	-1.000000	650871.000000	1772919332.378834
-3618.045000	20711.385000	-21966.390000	-15272.685000	0.000000	0.000000	0.000000	0.000000	102.580323	-31.589035	134.538924	196.175614	0.000000	-0.000000	-0.000000	-0.000000	-10.941420	-69.936580	37.783760	-0.106567	0.980649	0.591124	-1.000000	-1.000000	-1.000000	-1.000000	-1.000000	-1.000000	-1.000000	139.310345	0.000000	-1.000000	-1.000000	650872.000000	1772919332.378837
-3634.200000	20711.610000	-21975.120000	-15298.740000	0.000000	0.000000	0.000000	0.000000	94.963246	-47.828605	110.495077	147.791575	0.000000	-0.000000	-0.000000	-0.000000	101.280620	-75.170760	56.706160	-0.039856	0.876035	0.601866	-1.000000	-1.000000	-1.000000	-1.000000	-1.000000	-1.000000	-1.000000	139.310345	0.000000	-1.000000	-1.000000	650873.000000	1772919332.382718
-3784.140000	20731.545000	-22112.190000	-15388.290000	0.000000	0.000000	0.000000	0.000000	52.609268	-51.130652	35.472247	16.488303	0.000000	-0.000000	-0.000000	-0.000000	101.280620	-75.170760	56.706160	-0.039856	0.876035	0.601866	-1.000000	-1.000000	-1.000000	-1.000000	-1.000000	-1.000000	-1.000000	139.310345	0.000000	-1.000000	-1.000000	650874.000000	1772919332.382720
-3764.880000	20742.615000	-22102.470000	-15416.100000	0.000000	0.000000	0.000000	0.000000	-10.586071	-35.504898	-50.809044	-110.290933	0.000000	-0.000000	-0.000000	-0.000000	101.280620	-75.170760	56.706160	-0.039856	0.876035	0.601866	-1.000000	-1.000000	-1.000000	-1.000000	-1.000000	-1.000000	-1.000000	139.310345	0.000000	-1.000000	-1.000000	650875.000000	1772919332.386741
-3844.080000	20814.750000	-22209.390000	-15496.020000	0.000000	0.000000	0.000000	0.000000	-70.276004	-5.219155	-109.582246	-166.115326	0.000000	-0.000000	-0.000000	-0.000000	101.280620	-75.170760	56.706160	-0.039856	0.876035	0.601866	-1.000000	-1.000000	-1.000000	-1.000000	-1.000000	-1.000000	-1.000000	139.310345	0.000000	-1.000000	-1.000000	650876.000000	1772919332.386745
-3780.315000	20894.040000	-22057.065000	-15312.465000	0.000000	0.000000	0.000000	0.000000	-97.563825	29.123243	-116.324170	-135.192429	0.000000	-0.000000	-0.000000	-0.000000	101.280620	-75.170760	56.706160	-0.039856	0.876035	0.601866	-1.000000	-1.000000	-1.000000	-1.000000	-1.000000	-1.000000	-1.000000	139.310345	0.000000	-1.000000	-1.000000	650877.000000	1772919332.390874
-3567.240000	20944.485000	-21728.700000	-14962.005000	0.000000	0.000000	0.000000	0.000000	-75.436891	55.678289	-63.100415	-35.304875	0.000000	-0.000000	-0.000000	-0.000000	101.280620	-75.170760	56.706160	-0.039856	0.876035	0.601866	-1.000000	-1.000000	-1.000000	-1.000000	-1.000000	-1.000000	-1.000000	139.310345	0.000000	-1.000000	-1.000000	650878.000000	1772919332.390877
-3453.165000	21020.940000	-21660.660000	-14852.745000	0.000000	0.000000	0.000000	0.000000	-7.744646	64.081591	35.256624	94.735580	0.000000	-0.000000	-0.000000	-0.000000	101.280620	-75.170760	56.706160	-0.039856	0.876035	0.601866	-1.000000	-1.000000	-1.000000	-1.000000	-1.000000	-1.000000	-1.000000	139.310345	0.000000	-1.000000	-1.000000	650879.000000	1772919332.394778
-3508.380000	20896.155000	-21836.925000	-15005.565000	0.000000	0.000000	0.000000	0.000000	70.504234	47.668549	123.342679	187.696112	0.000000	-0.000000	-0.000000	-0.000000	101.280620	-75.170760	56.706160	-0.039856	0.876035	0.601866	-1.000000	-1.000000	-1.000000	-1.000000	-1.000000	-1.000000	-1.000000	139.310345	0.000000	-1.000000	-1.000000	650880.000000	1772919332.394781
-3582.225000	20780.460000	-21935.115000	-15117.660000	0.000000	0.000000	0.000000	0.000000	105.917627	4.293398	132.380949	176.390480	0.000000	-0.000000	-0.000000	-0.000000	101.280620	-75.170760	56.706160	-0.039856	0.876035	0.601866	-1.000000	-1.000000	-1.000000	-1.000000	-1.000000	-1.000000	-1.000000	139.310345	0.000000	-1.000000	-1.000000	650881.000000	1772919332.398615
-3765.240000	20765.970000	-22131.585000	-15283.530000	0.000000	0.000000	0.000000	0.000000	69.114565	-54.179746	46.714125	55.563554	0.000000	-0.000000	-0.000000	-0.000000	101.280620	-75.170760	56.706160	-0.039856	0.876035	0.601866	-1.000000	-1.000000	-1.000000	-1.000000	-1.000000	-1.000000	-1.000000	139.310345	0.000000	-1.000000	-1.000000	650882.000000	1772919332.398618
-3779.730000	20725.785000	-22212.045000	-15295.500000	0.000000	0.000000	0.000000	0.000000	-18.943145	-96.965502	-79.722122	-104.476128	0.000000	-0.000000	-0.000000	-0.000000	95.649680	-60.887400	73.431120	-0.003479	0.878172	0.524718	-1.000000	-1.000000	-1.000000	-1.000000	-1.000000	-1.000000	-1.000000	139.310345	0.000000	-1.000000	-1.000000	650883.000000	1772919332.403188
-3682.125000	20696.580000	-22255.560000	-15278.265000	0.000000	0.000000	0.000000	0.000000	-98.545309	-97.139263	-168.312766	-209.110266	0.000000	-0.000000	-0.000000	-0.000000	95.649680	-60.887400	73.431120	-0.003479	0.878172	0.524718	-1.000000	-1.000000	-1.000000	-1.000000	-1.000000	-1.000000	-1.000000	139.310345	0.000000	-1.000000	-1.000000	650884.000000	1772919332.403191
-3673.350000	20705.310000	-22086.180000	-15361.965000	0.000000	0.000000	0.000000	0.000000	-114.508609	-54.311281	-165.223339	-205.316793	0.000000	-0.000000	-0.000000	-0.000000	95.649680	-60.887400	73.431120	-0.003479	0.878172	0.524718	-1.000000	-1.000000	-1.000000	-1.000000	-1.000000	-1.000000	-1.000000	139.310345	0.000000	-1.000000	-1.000000	650885.000000	1772919332.407123
-3627.765000	20762.460000	-21793.860000	-15307.965000	0.000000	0.000000	0.000000	0.000000	-60.695212	10.648564	-64.643724	-110.228634	0.000000	-0.000000	-0.000000	-0.000000	95.649680	-60.887400	73.431120	-0.003479	0.878172	0.524718	-1.000000	-1.000000	-1.000000	-1.000000	-1.000000	-1.000000	-1.000000	139.310345	0.000000	-1.000000	-1.000000	650886.000000	1772919332.407125
-3602.520000	20886.525000	-21707.055000	-15158.520000	0.000000	0.000000	0.000000	0.000000	22.071322	73.145643	87.858026	19.921152	0.000000	-0.000000	-0.000000	-0.000000	95.649680	-60.887400	73.431120	-0.003479	0.878172	0.524718	-1.000000	-1.000000	-1.000000	-1.000000	-1.000000	-1.000000	-1.000000	139.310345	0.000000	-1.000000	-1.000000	650887.000000	1772919332.410877
-3519.630000	20956.770000	-22012.470000	-15237.945000	0.000000	0.000000	0.000000	0.000000	86.060841	114.331302	203.576811	129.897908	0.000000	-0.000000	-0.000000	-0.000000	95.649680	-60.887400	73.431120	-0.003479	0.878172	0.524718	-1.000000	-1.000000	-1.000000	-1.000000	-1.000000	-1.000000	-1.000000	139.310345	0.000000	-1.000000	-1.000000	650888.000000	1772919332.410880
-3670.245000	20963.610000	-22271.490000	-15372.495000	0.000000	0.000000	0.000000	0.000000	103.224528	120.306798	196.958751	175.012778	0.000000	-0.000000	-0.000000	-0.000000	95.649680	-60.887400	73.431120	-0.003479	0.878172	0.524718	-1.000000	-1.000000	-1.000000	-1.000000	-1.000000	-1.000000	-1.000000	139.310345	0.000000	-1.000000	-1.000000	650889.000000	1772919332.415089
-3849.705000	20887.200000	-22137.570000	-15209.505000	0.000000	0.000000	0.000000	0.000000	65.463829	83.140683	66.653424	140.406692	0.000000	-0.000000	-0.000000	-0.000000	95.649680	-60.887400	73.431120	-0.003479	0.878172	0.524718	-1.000000	-1.000000	-1.000000	-1.000000	-1.000000	-1.000000	-1.000000	139.310345	0.000000	-1.000000	-1.000000	650890.000000	1772919332.415091
-3777.570000	20776.410000	-22092.570000	-15202.845000	0.000000	0.000000	0.000000	0.000000	-9.451283	9.035163	-87.352548	61.337193	0.000000	-0.000000	-0.000000	-0.000000	95.649680	-60.887400	73.431120	-0.003479	0.878172	0.524718	-1.000000	-1.000000	-1.000000	-1.000000	-1.000000	-1.000000	-1.000000	139.310345	0.000000	-1.000000	-1.000000	650891.000000	1772919332.418817
-3799.440000	20671.920000	-22272.570000	-15302.295000	0.000000	0.000000	0.000000	0.000000	-74.298063	-76.970976	-162.464999	-12.631008	0.000000	-0.000000	-0.000000	-0.000000	95.649680	-60.887400	73.431120	-0.003479	0.878172	0.524718	-1.000000	-1.000000	-1.000000	-1.000000	-1.000000	-1.000000	-1.000000	139.310345	0.000000	-1.000000	-1.000000	650892.000000	1772919332.418819
-3703.905000	20680.065000	-22173.120000	-15287.265000	0.000000	0.000000	0.000000	0.000000	-86.443113	-137.615234	-139.692563	-60.595207	0.000000	-0.000000	-0.000000	-0.000000	-12.787880	-47.382300	95.573380	0.034363	1.009641	0.460509	-1.000000	-1.000000	-1.000000	-1.000000	-1.000000	-1.000000	-1.000000	139.310345	0.000000	-1.000000	-1.000000	650893.000000	1772919332.427928
-3652.830000	20748.735000	-22031.100000	-15186.240000	0.000000	0.000000	0.000000	0.000000	-42.427269	-140.283336	-56.486292	-78.843667	0.000000	-0.000000	-0.000000	-0.000000	-12.787880	-47.382300	95.573380	0.034363	1.009641	0.460509	-1.000000	-1.000000	-1.000000	-1.000000	-1.000000	-1.000000	-1.000000	139.310345	0.000000	-1.000000	-1.000000	650894.000000	1772919332.427932
-3637.080000	20931.570000	-21937.815000	-15185.025000	0.000000	0.000000	0.000000	0.000000	25.587099	-76.415852	44.164890	-64.993058	0.000000	-0.000000	-0.000000	-0.000000	-12.787880	-47.382300	95.573380	0.034363	1.009641	0.460509	-1.000000	-1.000000	-1.000000	-1.000000	-1.000000	-1.000000	-1.000000	139.310345	0.000000	-1.000000	-1.000000	650895.000000	1772919332.435562
-3738.690000	21179.160000	-22073.265000	-15195.780000	0.000000	0.000000	0.000000	0.000000	72.919074	31.410161	117.656216	-29.763453	0.000000	-0.000000	-0.000000	-0.000000	-12.787880	-47.382300	95.573380	0.034363	1.009641	0.460509	-1.000000	-1.000000	-1.000000	-1.000000	-1.000000	-1.000000	-1.000000	139.310345	0.000000	-1.000000	-1.000000	650896.000000	1772919332.435564
-3755.700000	21205.395000	-22233.015000	-15200.055000	0.000000	0.000000	0.000000	0.000000	70.613427	135.623772	122.616967	3.381301	0.000000	-0.000000	-0.000000	-0.000000	-12.787880	-47.382300	95.573380	0.034363	1.009641	0.460509	-1.000000	-1.000000	-1.000000	-1.000000	-1.000000	-1.000000	-1.000000	139.310345	0.000000	-1.000000	-1.000000	650897.000000	1772919332.435568
-3890.070000	21199.095000	-22349.790000	-15234.030000	0.000000	0.000000	0.000000	0.000000	23.818096	179.872400	52.232230	17.636346	0.000000	-0.000000	-0.000000	-0.000000	-12.787880	-47.382300	95.573380	0.034363	1.009641	0.460509	-1.000000	-1.000000	-1.000000	-1.000000	-1.000000	-1.000000	-1.000000	139.310345	0.000000	-1.000000	-1.000000	650898.000000	1772919332.435570
-4056.120000	21171.870000	-22523.040000	-15411.195000	0.000000	0.000000	0.000000	0.000000	-39.177295	133.792250	-52.034520	9.403735	0.000000	-0.000000	-0.000000	-0.000000	-12.787880	-47.382300	95.573380	0.034363	1.009641	0.460509	-1.000000	-1.000000	-1.000000	-1.000000	-1.000000	-1.000000	-1.000000	139.310345	0.000000	-1.000000	-1.000000	650899.000000	1772919332.435573
-3955.725000	21150.720000	-22452.525000	-15312.780000	0.000000	0.000000	0.000000	0.000000	-85.129732	20.374359	-127.718717	-13.219108	0.000000	-0.000000	-0.000000	-0.000000	-12.787880	-47.382300	95.573380	0.034363	1.009641	0.460509	-1.000000	-1.000000	-1.000000	-1.000000	-1.000000	-1.000000	-1.000000	139.310345	0.000000	-1.000000	-1.000000	650900.000000	1772919332.435575
-4054.770000	21204.405000	-22472.370000	-15336.090000	0.000000	0.000000	0.000000	0.000000	-86.414457	-98.551259	-129.867811	-28.603693	0.000000	-0.000000	-0.000000	-0.000000	-12.787880	-47.382300	95.573380	0.034363	1.009641	0.460509	-1.000000	-1.000000	-1.000000	-1.000000	-1.000000	-1.000000	-1.000000	139.310345	0.000000	-1.000000	-1.000000	650901.000000	1772919332.441735
-4122.765000	21227.760000	-22462.245000	-15496.605000	0.000000	0.000000	0.000000	0.000000	-42.708296	-163.492853	-59.060672	-22.028129	0.000000	-0.000000	-0.000000	-0.000000	-12.787880	-47.382300	95.573380	0.034363	1.009641	0.460509	-1.000000	-1.000000	-1.000000	-1.000000	-1.000000	-1.000000	-1.000000	139.310345	0.000000	-1.000000	-1.000000	650902.000000	1772919332.441738
-3795.570000	21318.885000	-22061.160000	-15262.155000	0.000000	0.000000	0.000000	0.000000	22.058458	-150.890584	47.085183	0.013891	0.000000	-0.000000	-0.000000	-0.000000	-222.170340	-36.089900	51.319380	0.078308	1.075009	0.433898	-1.000000	-1.000000	-1.000000	-1.000000	-1.000000	-1.000000	-1.000000	139.310345	0.000000	-1.000000	-1.000000	650903.000000	1772919332.443067
-3721.815000	21441.060000	-21964.500000	-15063.165000	0.000000	0.000000	0.000000	0.000000	89.404764	-77.583817	147.777384	33.809250	0.000000	-0.000000	-0.000000	-0.000000	-222.170340	-36.089900	51.319380	0.078308	1.075009	0.433898	-1.000000	-1.000000	-1.000000	-1.000000	-1.000000	-1.000000	-1.000000	139.310345	0.000000	-1.000000	-1.000000	650904.000000	1772919332.443070
-3998.250000	21511.350000	-22261.770000	-15171.210000	0.000000	0.000000	0.000000	0.000000	133.050560	16.674643	196.080298	74.585059	0.000000	-0.000000	-0.000000	-0.000000	-222.170340	-36.089900	51.319380	0.078308	1.075009	0.433898	-1.000000	-1.000000	-1.000000	-1.000000	-1.000000	-1.000000	-1.000000	139.310345	0.000000	-1.000000	-1.000000	650905.000000	1772919332.446951
-4083.030000	21562.470000	-22247.955000	-15274.620000	0.000000	0.000000	0.000000	0.000000	110.783228	88.630671	145.950521	90.014521	0.000000	-0.000000	-0.000000	-0.000000	-222.170340	-36.089900	51.319380	0.078308	1.075009	0.433898	-1.000000	-1.000000	-1.000000	-1.000000	-1.000000	-1.000000	-1.000000	139.310345	0.000000	-1.000000	-1.000000	650906.000000	1772919332.446954
-4151.385000	21619.395000	-22225.590000	-15314.085000	0.000000	0.000000	0.000000	0.000000	18.685114	110.491188	12.928280	50.487192	0.000000	-0.000000	-0.000000	-0.000000	-222.170340	-36.089900	51.319380	0.078308	1.075009	0.433898	-1.000000	-1.000000	-1.000000	-1.000000	-1.000000	-1.000000	-1.000000	139.310345	0.000000	-1.000000	-1.000000	650907.000000	1772919332.452402
-4003.155000	21589.560000	-22035.555000	-15197.760000	0.000000	0.000000	0.000000	0.000000	-83.759239	81.205074	-117.892778	-24.242035	0.000000	-0.000000	-0.000000	-0.000000	-222.170340	-36.089900	51.319380	0.078308	1.075009	0.433898	-1.000000	-1.000000	-1.000000	-1.000000	-1.000000	-1.000000	-1.000000	139.310345	0.000000	-1.000000	-1.000000	650908.000000	1772919332.452404
-4042.620000	21578.355000	-22119.705000	-15321.375000	0.000000	0.000000	0.000000	0.000000	-127.534212	20.569190	-170.357211	-83.143896	0.000000	-0.000000	-0.000000	-0.000000	-222.170340	-36.089900	51.319380	0.078308	1.075009	0.433898	-1.000000	-1.000000	-1.000000	-1.000000	-1.000000	-1.000000	-1.000000	139.310345	0.000000	-1.000000	-1.000000	650909.000000	1772919332.455085
-4216.140000	21613.095000	-22291.335000	-15383.025000	0.000000	0.000000	0.000000	0.000000	-98.936798	-41.838881	-141.731828	-98.637103	0.000000	-0.000000	-0.000000	-0.000000	-222.170340	-36.089900	51.319380	0.078308	1.075009	0.433898	-1.000000	-1.000000	-1.000000	-1.000000	-1.000000	-1.000000	-1.000000	139.310345	0.000000	-1.000000	-1.000000	650910.000000	1772919332.455087
-4101.345000	21620.835000	-22205.475000	-15204.510000	0.000000	0.000000	0.000000	0.000000	-37.849680	-77.812212	-80.963617	-75.221451	0.000000	-0.000000	-0.000000	-0.000000	-222.170340	-36.089900	51.319380	0.078308	1.075009	0.433898	-1.000000	-1.000000	-1.000000	-1.000000	-1.000000	-1.000000	-1.000000	139.310345	0.000000	-1.000000	-1.000000	650911.000000	1772919332.459032
-4132.440000	21666.375000	-22206.825000	-15261.615000	0.000000	0.000000	0.000000	0.000000	17.896799	-74.662261	-23.171797	-24.666713	0.000000	-0.000000	-0.000000	-0.000000	-222.170340	-36.089900	51.319380	0.078308	1.075009	0.433898	-1.000000	-1.000000	-1.000000	-1.000000	-1.000000	-1.000000	-1.000000	139.310345	0.000000	-1.000000	-1.000000	650912.000000	1772919332.459035
-4233.690000	21643.560000	-22271.355000	-15299.685000	0.000000	0.000000	0.000000	0.000000	52.232758	-41.116750	23.627053	31.208711	0.000000	-0.000000	-0.000000	-0.000000	-358.075900	-13.718740	-41.110440	0.125366	0.930479	0.398314	-1.000000	-1.000000	-1.000000	-1.000000	-1.000000	-1.000000	-1.000000	139.310345	0.000000	-1.000000	-1.000000	650913.000000	1772919332.462964
-4135.770000	21596.805000	-22169.340000	-15118.830000	0.000000	0.000000	0.000000	0.000000	58.913905	-0.297521	55.404681	65.858266	0.000000	-0.000000	-0.000000	-0.000000	-358.075900	-13.718740	-41.110440	0.125366	0.930479	0.398314	-1.000000	-1.000000	-1.000000	-1.000000	-1.000000	-1.000000	-1.000000	139.310345	0.000000	-1.000000	-1.000000	650914.000000	1772919332.462966
-4074.255000	21604.545000	-22066.155000	-14994.225000	0.000000	0.000000	0.000000	0.000000	47.209949	26.189351	72.798669	75.709986	0.000000	-0.000000	-0.000000	-0.000000	-358.075900	-13.718740	-41.110440	0.125366	0.930479	0.398314	-1.000000	-1.000000	-1.000000	-1.000000	-1.000000	-1.000000	-1.000000	139.310345	0.000000	-1.000000	-1.000000	650915.000000	1772919332.466789
-4177.080000	21545.685000	-22148.325000	-15166.170000	0.000000	0.000000	0.000000	0.000000	32.238613	31.926753	78.464215	67.835315	0.000000	-0.000000	-0.000000	-0.000000	-358.075900	-13.718740	-41.110440	0.125366	0.930479	0.398314	-1.000000	-1.000000	-1.000000	-1.000000	-1.000000	-1.000000	-1.000000	139.310345	0.000000	-1.000000	-1.000000	650916.000000	1772919332.466791
-4240.845000	21523.770000	-22211.820000	-15342.435000	0.000000	0.000000	0.000000	0.000000	13.178664	23.262427	63.741308	32.472849	0.000000	-0.000000	-0.000000	-0.000000	-358.075900	-13.718740	-41.110440	0.125366	0.930479	0.398314	-1.000000	-1.000000	-1.000000	-1.000000	-1.000000	-1.000000	-1.000000	139.310345	0.000000	-1.000000	-1.000000	650917.000000	1772919332.471087
-4332.195000	21513.465000	-22285.260000	-15459.795000	0.000000	0.000000	0.000000	0.000000	-16.214298	10.590091	21.582637	-35.411827	0.000000	-0.000000	-0.000000	-0.000000	-358.075900	-13.718740	-41.110440	0.125366	0.930479	0.398314	-1.000000	-1.000000	-1.000000	-1.000000	-1.000000	-1.000000	-1.000000	139.310345	0.000000	-1.000000	-1.000000	650918.000000	1772919332.471096
-4184.280000	21507.435000	-22105.530000	-15453.765000	0.000000	0.000000	0.000000	0.000000	-44.723073	3.396485	-29.769220	-104.949386	0.000000	-0.000000	-0.000000	-0.000000	-358.075900	-13.718740	-41.110440	0.125366	0.930479	0.398314	-1.000000	-1.000000	-1.000000	-1.000000	-1.000000	-1.000000	-1.000000	139.310345	0.000000	-1.000000	-1.000000	650919.000000	1772919332.475060
-4158.540000	21540.285000	-21933.225000	-15337.395000	0.000000	0.000000	0.000000	0.000000	-48.055167	5.962903	-52.396631	-125.944666	0.000000	-0.000000	-0.000000	-0.000000	-358.075900	-13.718740	-41.110440	0.125366	0.930479	0.398314	-1.000000	-1.000000	-1.000000	-1.000000	-1.000000	-1.000000	-1.000000	139.310345	0.000000	-1.000000	-1.000000	650920.000000	1772919332.475062
-4264.965000	21601.440000	-21931.740000	-15286.230000	0.000000	0.000000	0.000000	0.000000	-20.982329	16.821194	-28.073828	-73.993440	0.000000	-0.000000	-0.000000	-0.000000	-358.075900	-13.718740	-41.110440	0.125366	0.930479	0.398314	-1.000000	-1.000000	-1.000000	-1.000000	-1.000000	-1.000000	-1.000000	139.310345	0.000000	-1.000000	-1.000000	650921.000000	1772919332.479057
-4168.665000	21571.650000	-21971.745000	-15271.290000	0.000000	0.000000	0.000000	0.000000	12.496971	29.276822	15.206087	23.673052	0.000000	-0.000000	-0.000000	-0.000000	-358.075900	-13.718740	-41.110440	0.125366	0.930479	0.398314	-1.000000	-1.000000	-1.000000	-1.000000	-1.000000	-1.000000	-1.000000	139.310345	0.000000	-1.000000	-1.000000	650922.000000	1772919332.479059
-4244.490000	21506.670000	-22247.820000	-15395.805000	0.000000	0.000000	0.000000	0.000000	29.834894	30.941856	28.351483	105.859480	0.000000	-0.000000	-0.000000	-0.000000	-198.135840	17.152240	-73.537940	0.125976	0.662657	0.392943	-1.000000	-1.000000	-1.000000	-1.000000	-1.000000	-1.000000	-1.000000	139.310345	0.000000	-1.000000	-1.000000	650923.000000	1772919332.483008
-4282.605000	21482.775000	-22414.815000	-15509.295000	0.000000	0.000000	0.000000	0.000000	25.680467	13.025500	-13.084437	122.081437	0.000000	-0.000000	-0.000000	-0.000000	-198.135840	17.152240	-73.537940	0.125976	0.662657	0.392943	-1.000000	-1.000000	-1.000000	-1.000000	-1.000000	-1.000000	-1.000000	139.310345	0.000000	-1.000000	-1.000000	650924.000000	1772919332.483011
-4341.420000	21466.080000	-22324.365000	-15499.665000	0.000000	0.000000	0.000000	0.000000	4.644170	-17.070858	-80.901245	69.477427	0.000000	-0.000000	-0.000000	-0.000000	-198.135840	17.152240	-73.537940	0.125976	0.662657	0.392943	-1.000000	-1.000000	-1.000000	-1.000000	-1.000000	-1.000000	-1.000000	139.310345	0.000000	-1.000000	-1.000000	650925.000000	1772919332.487001
-4317.885000	21314.565000	-22131.720000	-15312.465000	0.000000	0.000000	0.000000	0.000000	-19.873708	-42.990252	-108.530146	-4.034667	0.000000	-0.000000	-0.000000	-0.000000	-198.135840	17.152240	-73.537940	0.125976	0.662657	0.392943	-1.000000	-1.000000	-1.000000	-1.000000	-1.000000	-1.000000	-1.000000	139.310345	0.000000	-1.000000	-1.000000	650926.000000	1772919332.487004
-4181.490000	21199.680000	-22076.865000	-15170.985000	0.000000	0.000000	0.000000	0.000000	-28.379833	-56.984413	-54.253445	-39.411973	0.000000	-0.000000	-0.000000	-0.000000	-198.135840	17.152240	-73.537940	0.125976	0.662657	0.392943	-1.000000	-1.000000	-1.000000	-1.000000	-1.000000	-1.000000	-1.000000	139.310345	0.000000	-1.000000	-1.000000	650927.000000	1772919332.491039
-4069.800000	21156.750000	-22001.040000	-15077.970000	0.000000	0.000000	0.000000	0.000000	-7.818548	-57.922688	52.455223	-18.217047	0.000000	-0.000000	-0.000000	-0.000000	-198.135840	17.152240	-73.537940	0.125976	0.662657	0.392943	-1.000000	-1.000000	-1.000000	-1.000000	-1.000000	-1.000000	-1.000000	139.310345	0.000000	-1.000000	-1.000000	650928.000000	1772919332.491042
-3942.405000	21129.165000	-21953.970000	-15001.605000	0.000000	0.000000	0.000000	0.000000	34.089951	-41.092651	140.470025	27.370543	0.000000	-0.000000	-0.000000	-0.000000	-198.135840	17.152240	-73.537940	0.125976	0.662657	0.392943	-1.000000	-1.000000	-1.000000	-1.000000	-1.000000	-1.000000	-1.000000	139.310345	0.000000	-1.000000	-1.000000	650929.000000	1772919332.495081
-4015.530000	21081.780000	-21975.930000	-15024.690000	0.000000	0.000000	0.000000	0.000000	68.069969	-5.302332	157.754762	50.703421	0.000000	-0.000000	-0.000000	-0.000000	-198.135840	17.152240	-73.537940	0.125976	0.662657	0.392943	-1.000000	-1.000000	-1.000000	-1.000000	-1.000000	-1.000000	-1.000000	139.310345	0.000000	-1.000000	-1.000000	650930.000000	1772919332.495083
-4100.625000	21103.110000	-21984.345000	-15103.980000	0.000000	0.000000	0.000000	0.000000	61.352517	38.298540	99.355633	26.623968	0.000000	-0.000000	-0.000000	-0.000000	-198.135840	17.152240	-73.537940	0.125976	0.662657	0.392943	-1.000000	-1.000000	-1.000000	-1.000000	-1.000000	-1.000000	-1.000000	139.310345	0.000000	-1.000000	-1.000000	650931.000000	1772919332.498989
-4122.045000	21048.075000	-22071.195000	-15263.415000	0.000000	0.000000	0.000000	0.000000	6.681551	72.238619	-0.914858	-37.904572	0.000000	-0.000000	-0.000000	-0.000000	-198.135840	17.152240	-73.537940	0.125976	0.662657	0.392943	-1.000000	-1.000000	-1.000000	-1.000000	-1.000000	-1.000000	-1.000000	139.310345	0.000000	-1.000000	-1.000000	650932.000000	1772919332.498992
-4276.395000	20910.960000	-22222.620000	-15534.810000	0.000000	0.000000	0.000000	0.000000	-67.115242	80.123160	-97.489533	-114.156188	0.000000	-0.000000	-0.000000	-0.000000	5.020540	25.041660	12.208000	0.059936	0.516905	0.481871	-1.000000	-1.000000	-1.000000	-1.000000	-1.000000	-1.000000	-1.000000	139.310345	0.000000	-1.000000	-1.000000	650933.000000	1772919332.503125
-4161.240000	20875.320000	-22073.850000	-15405.255000	0.000000	0.000000	0.000000	0.000000	-117.056525	54.782190	-152.233045	-163.032775	0.000000	-0.000000	-0.000000	-0.000000	5.020540	25.041660	12.208000	0.059936	0.516905	0.481871	-1.000000	-1.000000	-1.000000	-1.000000	-1.000000	-1.000000	-1.000000	139.310345	0.000000	-1.000000	-1.000000	650934.000000	1772919332.503128
-4052.340000	20855.610000	-21927.825000	-15256.710000	0.000000	0.000000	0.000000	0.000000	-109.866537	9.940043	-137.595190	-142.197250	0.000000	-0.000000	-0.000000	-0.000000	5.020540	25.041660	12.208000	0.059936	0.516905	0.481871	-1.000000	-1.000000	-1.000000	-1.000000	-1.000000	-1.000000	-1.000000	139.310345	0.000000	-1.000000	-1.000000	650935.000000	1772919332.507155
-3882.600000	20821.320000	-21721.320000	-15076.395000	0.000000	0.000000	0.000000	0.000000	-40.170628	-27.234534	-52.085267	-37.230606	0.000000	-0.000000	-0.000000	-0.000000	5.020540	25.041660	12.208000	0.059936	0.516905	0.481871	-1.000000	-1.000000	-1.000000	-1.000000	-1.000000	-1.000000	-1.000000	139.310345	0.000000	-1.000000	-1.000000	650936.000000	1772919332.507157
-4062.735000	20824.920000	-21860.955000	-15157.215000	0.000000	0.000000	0.000000	0.000000	54.208496	-39.252692	59.849701	104.905968	0.000000	-0.000000	-0.000000	-0.000000	5.020540	25.041660	12.208000	0.059936	0.516905	0.481871	-1.000000	-1.000000	-1.000000	-1.000000	-1.000000	-1.000000	-1.000000	139.310345	0.000000	-1.000000	-1.000000	650937.000000	1772919332.511258
-4100.895000	20855.385000	-21967.065000	-15162.795000	0.000000	0.000000	0.000000	0.000000	109.868410	-26.516391	125.511290	199.537568	0.000000	-0.000000	-0.000000	-0.000000	5.020540	25.041660	12.208000	0.059936	0.516905	0.481871	-1.000000	-1.000000	-1.000000	-1.000000	-1.000000	-1.000000	-1.000000	139.310345	0.000000	-1.000000	-1.000000	650938.000000	1772919332.511260
-4111.425000	20870.010000	-22145.670000	-15203.790000	0.000000	0.000000	0.000000	0.000000	92.970429	-0.594278	100.296934	192.562442	0.000000	-0.000000	-0.000000	-0.000000	5.020540	25.041660	12.208000	0.059936	0.516905	0.481871	-1.000000	-1.000000	-1.000000	-1.000000	-1.000000	-1.000000	-1.000000	139.310345	0.000000	-1.000000	-1.000000	650939.000000	1772919332.515125
-4145.940000	20919.330000	-22222.485000	-15300.315000	0.000000	0.000000	0.000000	0.000000	27.823233	23.518353	5.922921	97.493725	0.000000	-0.000000	-0.000000	-0.000000	5.020540	25.041660	12.208000	0.059936	0.516905	0.481871	-1.000000	-1.000000	-1.000000	-1.000000	-1.000000	-1.000000	-1.000000	139.310345	0.000000	-1.000000	-1.000000	650940.000000	1772919332.515127
-4233.690000	20995.020000	-22263.795000	-15390.045000	0.000000	0.000000	0.000000	0.000000	-37.530636	35.522748	-89.947745	-28.752764	0.000000	-0.000000	-0.000000	-0.000000	5.020540	25.041660	12.208000	0.059936	0.516905	0.481871	-1.000000	-1.000000	-1.000000	-1.000000	-1.000000	-1.000000	-1.000000	139.310345	0.000000	-1.000000	-1.000000	650941.000000	1772919332.519254
-4210.065000	20874.420000	-22267.305000	-15383.385000	0.000000	0.000000	0.000000	0.000000	-71.250401	30.645513	-125.884958	-125.472558	0.000000	-0.000000	-0.000000	-0.000000	5.020540	25.041660	12.208000	0.059936	0.516905	0.481871	-1.000000	-1.000000	-1.000000	-1.000000	-1.000000	-1.000000	-1.000000	139.310345	0.000000	-1.000000	-1.000000	650942.000000	1772919332.519256
-4134.285000	20856.825000	-22211.145000	-15286.995000	0.000000	0.000000	0.000000	0.000000	-62.802913	5.623679	-84.385824	-151.643952	0.000000	-0.000000	-0.000000	-0.000000	7.217980	31.633980	67.494980	0.034668	0.687925	0.531737	-1.000000	-1.000000	-1.000000	-1.000000	-1.000000	-1.000000	-1.000000	139.310345	0.000000	-1.000000	-1.000000	650943.000000	1772919332.523246
-4076.505000	20820.645000	-22076.415000	-15130.305000	0.000000	0.000000	0.000000	0.000000	-18.507100	-32.765093	8.177737	-99.401491	0.000000	-0.000000	-0.000000	-0.000000	7.217980	31.633980	67.494980	0.034668	0.687925	0.531737	-1.000000	-1.000000	-1.000000	-1.000000	-1.000000	-1.000000	-1.000000	139.310345	0.000000	-1.000000	-1.000000	650944.000000	1772919332.523249
-3957.480000	20796.930000	-21874.680000	-15012.990000	0.000000	0.000000	0.000000	0.000000	39.591469	-63.994625	107.245489	1.852124	0.000000	-0.000000	-0.000000	-0.000000	7.217980	31.633980	67.494980	0.034668	0.687925	0.531737	-1.000000	-1.000000	-1.000000	-1.000000	-1.000000	-1.000000	-1.000000	139.310345	0.000000	-1.000000	-1.000000	650945.000000	1772919332.529244
-4010.985000	20904.705000	-21913.830000	-15108.030000	0.000000	0.000000	0.000000	0.000000	81.575815	-67.845322	169.495244	95.193560	0.000000	-0.000000	-0.000000	-0.000000	7.217980	31.633980	67.494980	0.034668	0.687925	0.531737	-1.000000	-1.000000	-1.000000	-1.000000	-1.000000	-1.000000	-1.000000	139.310345	0.000000	-1.000000	-1.000000	650946.000000	1772919332.529246
-4037.580000	20963.340000	-22012.470000	-15184.845000	0.000000	0.000000	0.000000	0.000000	82.537276	-37.071819	160.320108	124.340358	0.000000	-0.000000	-0.000000	-0.000000	7.217980	31.633980	67.494980	0.034668	0.687925	0.531737	-1.000000	-1.000000	-1.000000	-1.000000	-1.000000	-1.000000	-1.000000	139.310345	0.000000	-1.000000	-1.000000	650947.000000	1772919332.532204
-4121.955000	20978.010000	-22214.340000	-15322.770000	0.000000	0.000000	0.000000	0.000000	37.741338	14.653607	70.800140	72.096656	0.000000	-0.000000	-0.000000	-0.000000	7.217980	31.633980	67.494980	0.034668	0.687925	0.531737	-1.000000	-1.000000	-1.000000	-1.000000	-1.000000	-1.000000	-1.000000	139.310345	0.000000	-1.000000	-1.000000	650948.000000	1772919332.532207
-4137.075000	20893.140000	-22265.820000	-15394.995000	0.000000	0.000000	0.000000	0.000000	-30.128439	55.478331	-63.517916	-26.461666	0.000000	-0.000000	-0.000000	-0.000000	7.217980	31.633980	67.494980	0.034668	0.687925	0.531737	-1.000000	-1.000000	-1.000000	-1.000000	-1.000000	-1.000000	-1.000000	139.310345	0.000000	-1.000000	-1.000000	650949.000000	1772919332.535520
-4064.130000	20834.730000	-22116.960000	-15263.190000	0.000000	0.000000	0.000000	0.000000	-82.486531	57.779744	-170.557292	-107.534425	0.000000	-0.000000	-0.000000	-0.000000	7.217980	31.633980	67.494980	0.034668	0.687925	0.531737	-1.000000	-1.000000	-1.000000	-1.000000	-1.000000	-1.000000	-1.000000	139.310345	0.000000	-1.000000	-1.000000	650950.000000	1772919332.535523
-4070.745000	20841.345000	-22084.830000	-15210.000000	0.000000	0.000000	0.000000	0.000000	-89.526327	22.435515	-186.174292	-118.531136	0.000000	-0.000000	-0.000000	-0.000000	7.217980	31.633980	67.494980	0.034668	0.687925	0.531737	-1.000000	-1.000000	-1.000000	-1.000000	-1.000000	-1.000000	-1.000000	139.310345	0.000000	-1.000000	-1.000000	650951.000000	1772919332.541874
-4150.440000	20902.230000	-22149.090000	-15297.480000	0.000000	0.000000	0.000000	0.000000	-53.968847	-20.592448	-108.357142	-58.066705	0.000000	-0.000000	-0.000000	-0.000000	7.217980	31.633980	67.494980	0.034668	0.687925	0.531737	-1.000000	-1.000000	-1.000000	-1.000000	-1.000000	-1.000000	-1.000000	139.310345	0.000000	-1.000000	-1.000000	650952.000000	1772919332.541877
-4018.905000	20890.395000	-21921.975000	-15137.460000	0.000000	0.000000	0.000000	0.000000	-3.953879	-39.641626	6.580534	26.360590	0.000000	-0.000000	-0.000000	-0.000000	-57.347080	35.647360	26.216680	0.072265	0.875852	0.532408	-1.000000	-1.000000	-1.000000	-1.000000	-1.000000	-1.000000	-1.000000	139.310345	0.000000	-1.000000	-1.000000	650953.000000	1772919332.543234
-3983.310000	20872.170000	-21909.015000	-15129.540000	0.000000	0.000000	0.000000	0.000000	38.495283	-28.742010	100.910613	87.624401	0.000000	-0.000000	-0.000000	-0.000000	-57.347080	35.647360	26.216680	0.072265	0.875852	0.532408	-1.000000	-1.000000	-1.000000	-1.000000	-1.000000	-1.000000	-1.000000	139.310345	0.000000	-1.000000	-1.000000	650954.000000	1772919332.543236
-3980.115000	20908.035000	-21959.370000	-15199.965000	0.000000	0.000000	0.000000	0.000000	63.956923	-4.465443	140.683867	103.655966	0.000000	-0.000000	-0.000000	-0.000000	-57.347080	35.647360	26.216680	0.072265	0.875852	0.532408	-1.000000	-1.000000	-1.000000	-1.000000	-1.000000	-1.000000	-1.000000	139.310345	0.000000	-1.000000	-1.000000	650955.000000	1772919332.547237
-4054.725000	20933.550000	-22119.840000	-15325.155000	0.000000	0.000000	0.000000	0.000000	63.345815	16.525240	110.651778	69.269568	0.000000	-0.000000	-0.000000	-0.000000	-57.347080	35.647360	26.216680	0.072265	0.875852	0.532408	-1.000000	-1.000000	-1.000000	-1.000000	-1.000000	-1.000000	-1.000000	139.310345	0.000000	-1.000000	-1.000000	650956.000000	1772919332.547239
-4066.470000	20912.085000	-22169.115000	-15344.550000	0.000000	0.000000	0.000000	0.000000	33.443639	26.555306	24.466716	-0.203185	0.000000	-0.000000	-0.000000	-0.000000	-57.347080	35.647360	26.216680	0.072265	0.875852	0.532408	-1.000000	-1.000000	-1.000000	-1.000000	-1.000000	-1.000000	-1.000000	139.310345	0.000000	-1.000000	-1.000000	650957.000000	1772919332.551289
-4174.875000	20956.995000	-22182.930000	-15325.155000	0.000000	0.000000	0.000000	0.000000	-13.146869	23.826823	-70.710025	-66.314714	0.000000	-0.000000	-0.000000	-0.000000	-57.347080	35.647360	26.216680	0.072265	0.875852	0.532408	-1.000000	-1.000000	-1.000000	-1.000000	-1.000000	-1.000000	-1.000000	139.310345	0.000000	-1.000000	-1.000000	650958.000000	1772919332.551292
-4118.310000	20998.395000	-22061.115000	-15204.690000	0.000000	0.000000	0.000000	0.000000	-53.164001	13.095372	-119.267871	-88.931448	0.000000	-0.000000	-0.000000	-0.000000	-57.347080	35.647360	26.216680	0.072265	0.875852	0.532408	-1.000000	-1.000000	-1.000000	-1.000000	-1.000000	-1.000000	-1.000000	139.310345	0.000000	-1.000000	-1.000000	650959.000000	1772919332.555242
-3891.735000	20919.960000	-21899.115000	-15074.190000	0.000000	0.000000	0.000000	0.000000	-60.707494	0.940200	-92.409155	-53.749425	0.000000	-0.000000	-0.000000	-0.000000	-57.347080	35.647360	26.216680	0.072265	0.875852	0.532408	-1.000000	-1.000000	-1.000000	-1.000000	-1.000000	-1.000000	-1.000000	139.310345	0.000000	-1.000000	-1.000000	650960.000000	1772919332.555245
-3896.280000	20879.775000	-21926.655000	-15112.395000	0.000000	0.000000	0.000000	0.000000	-23.482792	-12.809199	-9.138182	15.427036	0.000000	-0.000000	-0.000000	-0.000000	-57.347080	35.647360	26.216680	0.072265	0.875852	0.532408	-1.000000	-1.000000	-1.000000	-1.000000	-1.000000	-1.000000	-1.000000	139.310345	0.000000	-1.000000	-1.000000	650961.000000	1772919332.559286
-3943.845000	20862.810000	-21898.575000	-15111.945000	0.000000	0.000000	0.000000	0.000000	33.309519	-28.493769	73.406906	70.069690	0.000000	-0.000000	-0.000000	-0.000000	-57.347080	35.647360	26.216680	0.072265	0.875852	0.532408	-1.000000	-1.000000	-1.000000	-1.000000	-1.000000	-1.000000	-1.000000	139.310345	0.000000	-1.000000	-1.000000	650962.000000	1772919332.559288
-3971.385000	20887.515000	-21923.865000	-15169.545000	0.000000	0.000000	0.000000	0.000000	62.860352	-37.381348	103.639796	74.063262	0.000000	-0.000000	-0.000000	-0.000000	-97.557180	34.350260	-15.488900	0.085632	0.851927	0.528563	-1.000000	-1.000000	-1.000000	-1.000000	-1.000000	-1.000000	-1.000000	139.310345	0.000000	-1.000000	-1.000000	650963.000000	1772919332.563231
-4004.055000	21043.755000	-21954.105000	-15167.655000	0.000000	0.000000	0.000000	0.000000	43.993580	-26.747796	71.542809	30.184678	0.000000	-0.000000	-0.000000	-0.000000	-97.557180	34.350260	-15.488900	0.085632	0.851927	0.528563	-1.000000	-1.000000	-1.000000	-1.000000	-1.000000	-1.000000	-1.000000	139.310345	0.000000	-1.000000	-1.000000	650964.000000	1772919332.563234
-4040.415000	21153.510000	-21974.445000	-15260.580000	0.000000	0.000000	0.000000	0.000000	-5.071948	8.201277	4.427020	-29.983149	0.000000	-0.000000	-0.000000	-0.000000	-97.557180	34.350260	-15.488900	0.085632	0.851927	0.528563	-1.000000	-1.000000	-1.000000	-1.000000	-1.000000	-1.000000	-1.000000	139.310345	0.000000	-1.000000	-1.000000	650965.000000	1772919332.567257
-4180.545000	21182.310000	-22052.340000	-15414.030000	0.000000	0.000000	0.000000	0.000000	-52.575488	52.705973	-58.926847	-75.897969	0.000000	-0.000000	-0.000000	-0.000000	-97.557180	34.350260	-15.488900	0.085632	0.851927	0.528563	-1.000000	-1.000000	-1.000000	-1.000000	-1.000000	-1.000000	-1.000000	139.310345	0.000000	-1.000000	-1.000000	650966.000000	1772919332.567260
-4202.505000	21201.840000	-22167.900000	-15409.485000	0.000000	0.000000	0.000000	0.000000	-77.307766	76.540548	-92.978000	-92.783152	0.000000	-0.000000	-0.000000	-0.000000	-97.557180	34.350260	-15.488900	0.085632	0.851927	0.528563	-1.000000	-1.000000	-1.000000	-1.000000	-1.000000	-1.000000	-1.000000	139.310345	0.000000	-1.000000	-1.000000	650967.000000	1772919332.571418
-4092.570000	21182.535000	-22160.340000	-15308.505000	0.000000	0.000000	0.000000	0.000000	-68.196912	59.057338	-91.695888	-72.442183	0.000000	-0.000000	-0.000000	-0.000000	-97.557180	34.350260	-15.488900	0.085632	0.851927	0.528563	-1.000000	-1.000000	-1.000000	-1.000000	-1.000000	-1.000000	-1.000000	139.310345	0.000000	-1.000000	-1.000000	650968.000000	1772919332.571421
-3982.455000	21134.430000	-22094.865000	-15177.825000	0.000000	0.000000	0.000000	0.000000	-20.955803	6.231866	-57.161061	-12.528731	0.000000	-0.000000	-0.000000	-0.000000	-97.557180	34.350260	-15.488900	0.085632	0.851927	0.528563	-1.000000	-1.000000	-1.000000	-1.000000	-1.000000	-1.000000	-1.000000	139.310345	0.000000	-1.000000	-1.000000	650969.000000	1772919332.575385
-3743.370000	21145.815000	-21848.580000	-15038.820000	0.000000	0.000000	0.000000	0.000000	52.538261	-55.005069	6.484917	69.163043	0.000000	-0.000000	-0.000000	-0.000000	-97.557180	34.350260	-15.488900	0.085632	0.851927	0.528563	-1.000000	-1.000000	-1.000000	-1.000000	-1.000000	-1.000000	-1.000000	139.310345	0.000000	-1.000000	-1.000000	650970.000000	1772919332.575388
-3832.200000	21245.985000	-21907.170000	-15052.140000	0.000000	0.000000	0.000000	0.000000	118.788829	-91.342884	81.956004	133.726179	0.000000	-0.000000	-0.000000	-0.000000	-97.557180	34.350260	-15.488900	0.085632	0.851927	0.528563	-1.000000	-1.000000	-1.000000	-1.000000	-1.000000	-1.000000	-1.000000	139.310345	0.000000	-1.000000	-1.000000	650971.000000	1772919332.579419
-4035.825000	21256.335000	-22081.545000	-15246.630000	0.000000	0.000000	0.000000	0.000000	130.718124	-82.189615	127.099151	138.563814	0.000000	-0.000000	-0.000000	-0.000000	-97.557180	34.350260	-15.488900	0.085632	0.851927	0.528563	-1.000000	-1.000000	-1.000000	-1.000000	-1.000000	-1.000000	-1.000000	139.310345	0.000000	-1.000000	-1.000000	650972.000000	1772919332.579422
-4019.130000	21240.270000	-22069.035000	-15354.720000	0.000000	0.000000	0.000000	0.000000	64.333558	-37.002008	103.458157	66.588853	0.000000	-0.000000	-0.000000	-0.000000	-62.459180	31.725540	2.685760	0.058288	0.789976	0.567870	-1.000000	-1.000000	-1.000000	-1.000000	-1.000000	-1.000000	-1.000000	139.310345	0.000000	-1.000000	-1.000000	650973.000000	1772919332.583357
-4076.640000	21151.890000	-22112.280000	-15355.170000	0.000000	0.000000	0.000000	0.000000	-44.427537	10.996093	23.623850	-48.178745	0.000000	-0.000000	-0.000000	-0.000000	-62.459180	31.725540	2.685760	0.058288	0.789976	0.567870	-1.000000	-1.000000	-1.000000	-1.000000	-1.000000	-1.000000	-1.000000	139.310345	0.000000	-1.000000	-1.000000	650974.000000	1772919332.583360
