Channel1	Channel2	Channel3	Channel4	Channel5	Channel6	Channel7	Channel8	FilteredChannel1	FilteredChannel2	FilteredChannel3	FilteredChannel4	FilteredChannel5	FilteredChannel6	FilteredChannel7	FilteredChannel8	GyroX	GyroY	GyroZ	AccX	AccY	AccZ	PPG1	PPG2	rawPPG1	rawPPG2	rawPPG3	Hr	Hrv	Battery	Trigger	PhysicalTrigger	AutoTrigger	NumMeasurements	Timestamp
-3304.845000	20079.405000	-19955.835000	-14859.135000	0.000000	0.000000	0.000000	0.000000	23.506042	-3.239344	28.470889	36.408170	-0.000000	0.000000	0.000000	-0.000000	-0.778260	1.815940	-0.503580	-0.036621	0.840818	0.538756	-1.000000	-1.000000	-1.000000	-1.000000	-1.000000	-1.000000	-1.000000	138.827586	0.000000	-1.000000	-1.000000	511422.000000	1772919052.668648
-3313.080000	19913.310000	-19970.955000	-14884.290000	0.000000	0.000000	0.000000	0.000000	-27.836322	-65.390389	-56.401906	-56.427033	-0.000000	0.000000	0.000000	-0.000000	-0.778260	1.815940	-0.503580	-0.036621	0.840818	0.538756	-1.000000	-1.000000	-1.000000	-1.000000	-1.000000	-1.000000	-1.000000	138.827586	0.000000	-1.000000	-1.000000	511423.000000	1772919052.668651
-3282.615000	19886.670000	-19919.250000	-14831.595000	0.000000	0.000000	0.000000	0.000000	-61.474469	-113.222978	-108.374214	-116.072495	-0.000000	0.000000	0.000000	-0.000000	-0.778260	1.815940	-0.503580	-0.036621	0.840818	0.538756	-1.000000	-1.000000	-1.000000	-1.000000	-1.000000	-1.000000	-1.000000	138.827586	0.000000	-1.000000	-1.000000	511424.000000	1772919052.686281
-3241.755000	19868.310000	-19853.280000	-14760.270000	0.000000	0.000000	0.000000	0.000000	-61.149877	-107.455181	-100.520575	-111.470955	-0.000000	0.000000	0.000000	-0.000000	-0.778260	1.815940	-0.503580	-0.036621	0.840818	0.538756	-1.000000	-1.000000	-1.000000	-1.000000	-1.000000	-1.000000	-1.000000	138.827586	0.000000	-1.000000	-1.000000	511425.000000	1772919052.686284
-3153.870000	19829.745000	-19715.895000	-14611.995000	0.000000	0.000000	0.000000	0.000000	-28.808544	-39.295328	-38.869013	-46.904305	-0.000000	0.000000	0.000000	-0.000000	-0.778260	1.815940	-0.503580	-0.036621	0.840818	0.538756	-1.000000	-1.000000	-1.000000	-1.000000	-1.000000	-1.000000	-1.000000	138.827586	0.000000	-1.000000	-1.000000	511426.000000	1772919052.686758
-3133.890000	19910.745000	-19678.635000	-14561.865000	0.000000	0.000000	0.000000	0.000000	17.174994	59.060318	42.192960	41.647276	-0.000000	0.000000	0.000000	-0.000000	-0.778260	1.815940	-0.503580	-0.036621	0.840818	0.538756	-1.000000	-1.000000	-1.000000	-1.000000	-1.000000	-1.000000	-1.000000	138.827586	0.000000	-1.000000	-1.000000	511427.000000	1772919052.686761
-3175.740000	19997.955000	-19741.320000	-14627.790000	0.000000	0.000000	0.000000	0.000000	50.471370	142.560711	97.358153	104.716282	-0.000000	0.000000	0.000000	-0.000000	-0.778260	1.815940	-0.503580	-0.036621	0.840818	0.538756	-1.000000	-1.000000	-1.000000	-1.000000	-1.000000	-1.000000	-1.000000	138.827586	0.000000	-1.000000	-1.000000	511428.000000	1772919052.686765
-3220.920000	20018.115000	-19802.925000	-14696.145000	0.000000	0.000000	0.000000	0.000000	50.589847	179.268306	94.097559	105.067805	-0.000000	0.000000	0.000000	-0.000000	-0.778260	1.815940	-0.503580	-0.036621	0.840818	0.538756	-1.000000	-1.000000	-1.000000	-1.000000	-1.000000	-1.000000	-1.000000	138.827586	0.000000	-1.000000	-1.000000	511429.000000	1772919052.686767
-3299.940000	19962.135000	-19928.655000	-14827.950000	0.000000	0.000000	0.000000	0.000000	17.200662	154.825203	34.230063	42.241462	-0.000000	0.000000	0.000000	-0.000000	-0.595140	1.754900	-1.617560	-0.036743	0.839292	0.540526	-1.000000	-1.000000	-1.000000	-1.000000	-1.000000	-1.000000	-1.000000	138.827586	0.000000	-1.000000	-1.000000	511430.000000	1772919052.686770
-3351.105000	19958.265000	-20009.520000	-14922.990000	0.000000	0.000000	0.000000	0.000000	-29.646078	75.879634	-47.823578	-47.529390	-0.000000	0.000000	0.000000	-0.000000	-0.595140	1.754900	-1.617560	-0.036743	0.839292	0.540526	-1.000000	-1.000000	-1.000000	-1.000000	-1.000000	-1.000000	-1.000000	138.827586	0.000000	-1.000000	-1.000000	511431.000000	1772919052.686772
-3346.470000	20092.050000	-19984.230000	-14899.680000	0.000000	0.000000	0.000000	0.000000	-62.452055	-23.383681	-106.174566	-113.949322	-0.000000	0.000000	0.000000	-0.000000	-0.595140	1.754900	-1.617560	-0.036743	0.839292	0.540526	-1.000000	-1.000000	-1.000000	-1.000000	-1.000000	-1.000000	-1.000000	138.827586	0.000000	-1.000000	-1.000000	511432.000000	1772919052.687296
-3322.170000	20174.490000	-19937.115000	-14848.605000	0.000000	0.000000	0.000000	0.000000	-61.304825	-94.735086	-107.121945	-118.869334	-0.000000	0.000000	0.000000	-0.000000	-0.595140	1.754900	-1.617560	-0.036743	0.839292	0.540526	-1.000000	-1.000000	-1.000000	-1.000000	-1.000000	-1.000000	-1.000000	138.827586	0.000000	-1.000000	-1.000000	511433.000000	1772919052.687299
-3263.220000	20280.645000	-19837.080000	-14743.170000	0.000000	0.000000	0.000000	0.000000	-25.062879	-110.219531	-48.344163	-57.699197	-0.000000	0.000000	0.000000	-0.000000	-0.595140	1.754900	-1.617560	-0.036743	0.839292	0.540526	-1.000000	-1.000000	-1.000000	-1.000000	-1.000000	-1.000000	-1.000000	138.827586	0.000000	-1.000000	-1.000000	511434.000000	1772919052.689890
-3224.025000	20527.380000	-19763.010000	-14656.500000	0.000000	0.000000	0.000000	0.000000	28.049515	-76.143299	39.424152	37.589644	-0.000000	0.000000	0.000000	-0.000000	-0.595140	1.754900	-1.617560	-0.036743	0.839292	0.540526	-1.000000	-1.000000	-1.000000	-1.000000	-1.000000	-1.000000	-1.000000	138.827586	0.000000	-1.000000	-1.000000	511435.000000	1772919052.689893
-3245.490000	20653.470000	-19798.605000	-14690.475000	0.000000	0.000000	0.000000	0.000000	70.201428	-17.744591	109.578597	116.432214	-0.000000	0.000000	0.000000	-0.000000	-0.595140	1.754900	-1.617560	-0.036743	0.839292	0.540526	-1.000000	-1.000000	-1.000000	-1.000000	-1.000000	-1.000000	-1.000000	138.827586	0.000000	-1.000000	-1.000000	511436.000000	1772919052.693731
-3287.115000	20716.020000	-19862.145000	-14757.525000	0.000000	0.000000	0.000000	0.000000	78.187148	32.069457	123.642286	135.746454	-0.000000	0.000000	0.000000	-0.000000	-0.595140	1.754900	-1.617560	-0.036743	0.839292	0.540526	-1.000000	-1.000000	-1.000000	-1.000000	-1.000000	-1.000000	-1.000000	138.827586	0.000000	-1.000000	-1.000000	511437.000000	1772919052.693734
-3345.210000	20724.615000	-19958.265000	-14859.090000	0.000000	0.000000	0.000000	0.000000	47.099783	43.167857	73.524638	84.613323	-0.000000	0.000000	0.000000	-0.000000	-0.595140	1.754900	-1.617560	-0.036743	0.839292	0.540526	-1.000000	-1.000000	-1.000000	-1.000000	-1.000000	-1.000000	-1.000000	138.827586	0.000000	-1.000000	-1.000000	511438.000000	1772919052.697961
-3401.595000	20632.635000	-20059.605000	-14975.370000	0.000000	0.000000	0.000000	0.000000	-6.356855	6.629452	-13.368566	-8.979331	-0.000000	0.000000	0.000000	-0.000000	-0.595140	1.754900	-1.617560	-0.036743	0.839292	0.540526	-1.000000	-1.000000	-1.000000	-1.000000	-1.000000	-1.000000	-1.000000	138.827586	0.000000	-1.000000	-1.000000	511439.000000	1772919052.697964
-3388.590000	20626.605000	-20034.855000	-14954.715000	0.000000	0.000000	0.000000	0.000000	-53.788125	-57.841255	-90.520480	-95.027673	-0.000000	0.000000	0.000000	-0.000000	1.846460	0.747740	-1.464960	-0.038452	0.830930	0.543578	-1.000000	-1.000000	-1.000000	-1.000000	-1.000000	-1.000000	-1.000000	138.827586	0.000000	-1.000000	-1.000000	511440.000000	1772919052.701808
-3363.255000	20669.580000	-19985.895000	-14900.130000	0.000000	0.000000	0.000000	0.000000	-70.340867	-110.531706	-116.579612	-127.461151	-0.000000	0.000000	0.000000	-0.000000	1.846460	0.747740	-1.464960	-0.038452	0.830930	0.543578	-1.000000	-1.000000	-1.000000	-1.000000	-1.000000	-1.000000	-1.000000	138.827586	0.000000	-1.000000	-1.000000	511441.000000	1772919052.701811
-3301.830000	20692.845000	-19893.780000	-14804.010000	0.000000	0.000000	0.000000	0.000000	-48.322477	-115.356303	-78.283650	-89.447513	-0.000000	0.000000	0.000000	-0.000000	1.846460	0.747740	-1.464960	-0.038452	0.830930	0.543578	-1.000000	-1.000000	-1.000000	-1.000000	-1.000000	-1.000000	-1.000000	138.827586	0.000000	-1.000000	-1.000000	511442.000000	1772919052.705544
-3210.930000	20726.820000	-19758.690000	-14656.680000	0.000000	0.000000	0.000000	0.000000	-0.465566	-66.510267	2.373017	-2.935786	-0.000000	0.000000	0.000000	-0.000000	1.846460	0.747740	-1.464960	-0.038452	0.830930	0.543578	-1.000000	-1.000000	-1.000000	-1.000000	-1.000000	-1.000000	-1.000000	138.827586	0.000000	-1.000000	-1.000000	511443.000000	1772919052.705547
-3213.945000	20763.945000	-19765.890000	-14654.520000	0.000000	0.000000	0.000000	0.000000	47.878925	9.721194	81.949315	85.292701	-0.000000	0.000000	0.000000	-0.000000	1.846460	0.747740	-1.464960	-0.038452	0.830930	0.543578	-1.000000	-1.000000	-1.000000	-1.000000	-1.000000	-1.000000	-1.000000	138.827586	0.000000	-1.000000	-1.000000	511444.000000	1772919052.709878
-3233.655000	20693.070000	-19807.695000	-14700.240000	0.000000	0.000000	0.000000	0.000000	70.005818	74.994194	116.673886	126.819212	-0.000000	0.000000	0.000000	-0.000000	1.846460	0.747740	-1.464960	-0.038452	0.830930	0.543578	-1.000000	-1.000000	-1.000000	-1.000000	-1.000000	-1.000000	-1.000000	138.827586	0.000000	-1.000000	-1.000000	511445.000000	1772919052.709881
-3293.370000	20710.530000	-19895.670000	-14792.940000	0.000000	0.000000	0.000000	0.000000	52.186780	100.624684	85.946108	97.292115	-0.000000	0.000000	0.000000	-0.000000	1.846460	0.747740	-1.464960	-0.038452	0.830930	0.543578	-1.000000	-1.000000	-1.000000	-1.000000	-1.000000	-1.000000	-1.000000	138.827586	0.000000	-1.000000	-1.000000	511446.000000	1772919052.713949
-3405.375000	20798.370000	-20057.310000	-14963.985000	0.000000	0.000000	0.000000	0.000000	2.467825	85.272647	5.201062	11.433073	-0.000000	0.000000	0.000000	-0.000000	1.846460	0.747740	-1.464960	-0.038452	0.830930	0.543578	-1.000000	-1.000000	-1.000000	-1.000000	-1.000000	-1.000000	-1.000000	138.827586	0.000000	-1.000000	-1.000000	511447.000000	1772919052.713952
-3432.330000	20898.180000	-20084.400000	-15001.875000	0.000000	0.000000	0.000000	0.000000	-54.185630	53.308431	-83.741865	-86.125187	-0.000000	0.000000	0.000000	-0.000000	1.846460	0.747740	-1.464960	-0.038452	0.830930	0.543578	-1.000000	-1.000000	-1.000000	-1.000000	-1.000000	-1.000000	-1.000000	138.827586	0.000000	-1.000000	-1.000000	511448.000000	1772919052.717868
-3392.145000	20935.485000	-20023.515000	-14938.380000	0.000000	0.000000	0.000000	0.000000	-86.599192	28.399859	-132.174406	-142.061992	-0.000000	0.000000	0.000000	-0.000000	1.846460	0.747740	-1.464960	-0.038452	0.830930	0.543578	-1.000000	-1.000000	-1.000000	-1.000000	-1.000000	-1.000000	-1.000000	138.827586	0.000000	-1.000000	-1.000000	511449.000000	1772919052.717871
-3340.575000	20923.830000	-19947.870000	-14857.740000	0.000000	0.000000	0.000000	0.000000	-73.367521	12.950683	-109.837635	-122.032913	-0.000000	0.000000	0.000000	-0.000000	4.440660	0.061040	0.305200	-0.039490	0.830015	0.544371	-1.000000	-1.000000	-1.000000	-1.000000	-1.000000	-1.000000	-1.000000	138.827586	0.000000	-1.000000	-1.000000	511450.000000	1772919052.721987
-3250.080000	20969.505000	-19810.395000	-14710.590000	0.000000	0.000000	0.000000	0.000000	-18.703008	-3.494973	-26.365529	-34.336221	-0.000000	0.000000	0.000000	-0.000000	4.440660	0.061040	0.305200	-0.039490	0.830015	0.544371	-1.000000	-1.000000	-1.000000	-1.000000	-1.000000	-1.000000	-1.000000	138.827586	0.000000	-1.000000	-1.000000	511451.000000	1772919052.721990
-3236.400000	21106.125000	-19784.205000	-14671.755000	0.000000	0.000000	0.000000	0.000000	48.414366	-21.984678	73.417009	73.957221	-0.000000	0.000000	0.000000	-0.000000	4.440660	0.061040	0.305200	-0.039490	0.830015	0.544371	-1.000000	-1.000000	-1.000000	-1.000000	-1.000000	-1.000000	-1.000000	138.827586	0.000000	-1.000000	-1.000000	511452.000000	1772919052.725889
-3260.700000	21115.170000	-19829.565000	-14720.355000	0.000000	0.000000	0.000000	0.000000	90.909796	-31.842409	134.882155	143.678589	-0.000000	0.000000	0.000000	-0.000000	4.440660	0.061040	0.305200	-0.039490	0.830015	0.544371	-1.000000	-1.000000	-1.000000	-1.000000	-1.000000	-1.000000	-1.000000	138.827586	0.000000	-1.000000	-1.000000	511453.000000	1772919052.725891
-3298.455000	21099.780000	-19892.925000	-14788.215000	0.000000	0.000000	0.000000	0.000000	85.430976	-30.464435	124.219002	136.447507	-0.000000	0.000000	0.000000	-0.000000	4.440660	0.061040	0.305200	-0.039490	0.830015	0.544371	-1.000000	-1.000000	-1.000000	-1.000000	-1.000000	-1.000000	-1.000000	138.827586	0.000000	-1.000000	-1.000000	511454.000000	1772919052.729889
-3399.165000	21164.355000	-20042.145000	-14944.995000	0.000000	0.000000	0.000000	0.000000	35.945353	-26.596179	48.239446	57.147765	-0.000000	0.000000	0.000000	-0.000000	4.440660	0.061040	0.305200	-0.039490	0.830015	0.544371	-1.000000	-1.000000	-1.000000	-1.000000	-1.000000	-1.000000	-1.000000	138.827586	0.000000	-1.000000	-1.000000	511455.000000	1772919052.729892
-3437.595000	21158.775000	-20101.095000	-15017.940000	0.000000	0.000000	0.000000	0.000000	-30.948038	-24.290572	-52.051791	-51.260593	-0.000000	0.000000	0.000000	-0.000000	4.440660	0.061040	0.305200	-0.039490	0.830015	0.544371	-1.000000	-1.000000	-1.000000	-1.000000	-1.000000	-1.000000	-1.000000	138.827586	0.000000	-1.000000	-1.000000	511456.000000	1772919052.733811
-3393.180000	21094.470000	-20038.230000	-14953.725000	0.000000	0.000000	0.000000	0.000000	-79.846624	-22.381654	-123.100667	-130.780337	-0.000000	0.000000	0.000000	-0.000000	4.440660	0.061040	0.305200	-0.039490	0.830015	0.544371	-1.000000	-1.000000	-1.000000	-1.000000	-1.000000	-1.000000	-1.000000	138.827586	0.000000	-1.000000	-1.000000	511457.000000	1772919052.733813
-3351.060000	21083.940000	-19974.420000	-14884.110000	0.000000	0.000000	0.000000	0.000000	-83.740909	-21.789071	-125.431027	-137.277731	-0.000000	0.000000	0.000000	-0.000000	4.440660	0.061040	0.305200	-0.039490	0.830015	0.544371	-1.000000	-1.000000	-1.000000	-1.000000	-1.000000	-1.000000	-1.000000	138.827586	0.000000	-1.000000	-1.000000	511458.000000	1772919052.739407
-3263.805000	21055.725000	-19843.785000	-14746.545000	0.000000	0.000000	0.000000	0.000000	-41.136725	-20.926122	-58.349290	-67.682692	-0.000000	0.000000	0.000000	-0.000000	4.440660	0.061040	0.305200	-0.039490	0.830015	0.544371	-1.000000	-1.000000	-1.000000	-1.000000	-1.000000	-1.000000	-1.000000	138.827586	0.000000	-1.000000	-1.000000	511459.000000	1772919052.739410
-3203.640000	21069.585000	-19754.550000	-14642.055000	0.000000	0.000000	0.000000	0.000000	23.194551	-13.949425	39.953948	38.359131	-0.000000	0.000000	0.000000	-0.000000	3.296160	0.991900	-0.457800	-0.037903	0.833555	0.543944	-1.000000	-1.000000	-1.000000	-1.000000	-1.000000	-1.000000	-1.000000	138.827586	0.000000	-1.000000	-1.000000	511460.000000	1772919052.741908
-3245.445000	21182.535000	-19811.520000	-14698.980000	0.000000	0.000000	0.000000	0.000000	73.267104	4.333131	115.235507	122.326008	-0.000000	0.000000	0.000000	-0.000000	3.296160	0.991900	-0.457800	-0.037903	0.833555	0.543944	-1.000000	-1.000000	-1.000000	-1.000000	-1.000000	-1.000000	-1.000000	138.827586	0.000000	-1.000000	-1.000000	511461.000000	1772919052.741910
-3281.355000	21197.970000	-19870.290000	-14763.060000	0.000000	0.000000	0.000000	0.000000	80.663822	33.161405	125.227846	137.101373	-0.000000	0.000000	0.000000	-0.000000	3.296160	0.991900	-0.457800	-0.037903	0.833555	0.543944	-1.000000	-1.000000	-1.000000	-1.000000	-1.000000	-1.000000	-1.000000	138.827586	0.000000	-1.000000	-1.000000	511462.000000	1772919052.745984
-3351.330000	21176.595000	-19981.440000	-14878.710000	0.000000	0.000000	0.000000	0.000000	41.678521	58.981921	64.668617	74.663414	-0.000000	0.000000	0.000000	-0.000000	3.296160	0.991900	-0.457800	-0.037903	0.833555	0.543944	-1.000000	-1.000000	-1.000000	-1.000000	-1.000000	-1.000000	-1.000000	138.827586	0.000000	-1.000000	-1.000000	511463.000000	1772919052.745987
-3420.270000	21118.095000	-20088.315000	-14998.905000	0.000000	0.000000	0.000000	0.000000	-20.695645	61.248665	-31.744479	-29.129022	-0.000000	0.000000	0.000000	-0.000000	3.296160	0.991900	-0.457800	-0.037903	0.833555	0.543944	-1.000000	-1.000000	-1.000000	-1.000000	-1.000000	-1.000000	-1.000000	138.827586	0.000000	-1.000000	-1.000000	511464.000000	1772919052.749881
-3403.440000	21156.795000	-20057.445000	-14972.040000	0.000000	0.000000	0.000000	0.000000	-71.997982	33.708267	-111.285643	-117.455413	-0.000000	0.000000	0.000000	-0.000000	3.296160	0.991900	-0.457800	-0.037903	0.833555	0.543944	-1.000000	-1.000000	-1.000000	-1.000000	-1.000000	-1.000000	-1.000000	138.827586	0.000000	-1.000000	-1.000000	511465.000000	1772919052.749884
-3365.460000	21184.785000	-19997.370000	-14907.645000	0.000000	0.000000	0.000000	0.000000	-84.292775	-5.865899	-130.431559	-142.120509	-0.000000	0.000000	0.000000	-0.000000	3.296160	0.991900	-0.457800	-0.037903	0.833555	0.543944	-1.000000	-1.000000	-1.000000	-1.000000	-1.000000	-1.000000	-1.000000	138.827586	0.000000	-1.000000	-1.000000	511466.000000	1772919052.754178
-3316.905000	21280.860000	-19913.895000	-14819.265000	0.000000	0.000000	0.000000	0.000000	-51.122768	-31.099980	-78.819352	-89.784264	-0.000000	0.000000	0.000000	-0.000000	3.296160	0.991900	-0.457800	-0.037903	0.833555	0.543944	-1.000000	-1.000000	-1.000000	-1.000000	-1.000000	-1.000000	-1.000000	138.827586	0.000000	-1.000000	-1.000000	511467.000000	1772919052.754181
-3230.865000	21326.850000	-19784.745000	-14676.570000	0.000000	0.000000	0.000000	0.000000	8.939557	-28.911756	14.622625	10.213657	-0.000000	0.000000	0.000000	-0.000000	3.296160	0.991900	-0.457800	-0.037903	0.833555	0.543944	-1.000000	-1.000000	-1.000000	-1.000000	-1.000000	-1.000000	-1.000000	138.827586	0.000000	-1.000000	-1.000000	511468.000000	1772919052.758014
-3210.705000	21238.470000	-19775.610000	-14660.955000	0.000000	0.000000	0.000000	0.000000	64.781766	-9.835733	100.595886	105.109711	-0.000000	0.000000	0.000000	-0.000000	3.296160	0.991900	-0.457800	-0.037903	0.833555	0.543944	-1.000000	-1.000000	-1.000000	-1.000000	-1.000000	-1.000000	-1.000000	138.827586	0.000000	-1.000000	-1.000000	511469.000000	1772919052.758017
-3224.160000	21080.745000	-19812.690000	-14701.005000	0.000000	0.000000	0.000000	0.000000	88.665345	-0.802743	134.776406	145.899022	-0.000000	0.000000	0.000000	-0.000000	3.448760	0.442540	-1.159760	-0.036316	0.833250	0.542723	-1.000000	-1.000000	-1.000000	-1.000000	-1.000000	-1.000000	-1.000000	138.827586	0.000000	-1.000000	-1.000000	511470.000000	1772919052.762091
-3291.030000	21095.010000	-19909.350000	-14801.355000	0.000000	0.000000	0.000000	0.000000	68.251242	-17.311827	99.093403	110.930323	-0.000000	0.000000	0.000000	-0.000000	3.448760	0.442540	-1.159760	-0.036316	0.833250	0.542723	-1.000000	-1.000000	-1.000000	-1.000000	-1.000000	-1.000000	-1.000000	138.827586	0.000000	-1.000000	-1.000000	511471.000000	1772919052.762094
-3405.870000	21205.035000	-20071.170000	-14976.945000	0.000000	0.000000	0.000000	0.000000	12.130118	-40.336221	10.983402	17.236027	-0.000000	0.000000	0.000000	-0.000000	3.448760	0.442540	-1.159760	-0.036316	0.833250	0.542723	-1.000000	-1.000000	-1.000000	-1.000000	-1.000000	-1.000000	-1.000000	138.827586	0.000000	-1.000000	-1.000000	511472.000000	1772919052.771076
-3414.780000	21245.175000	-20078.775000	-14993.550000	0.000000	0.000000	0.000000	0.000000	-53.170935	-36.212849	-85.460203	-88.186211	-0.000000	0.000000	0.000000	-0.000000	3.448760	0.442540	-1.159760	-0.036316	0.833250	0.542723	-1.000000	-1.000000	-1.000000	-1.000000	-1.000000	-1.000000	-1.000000	138.827586	0.000000	-1.000000	-1.000000	511473.000000	1772919052.771079
-3391.605000	21344.670000	-20035.305000	-14946.795000	0.000000	0.000000	0.000000	0.000000	-93.031461	2.898235	-138.725681	-149.122376	-0.000000	0.000000	0.000000	-0.000000	3.448760	0.442540	-1.159760	-0.036316	0.833250	0.542723	-1.000000	-1.000000	-1.000000	-1.000000	-1.000000	-1.000000	-1.000000	138.827586	0.000000	-1.000000	-1.000000	511474.000000	1772919052.771083
-3354.930000	21484.665000	-19973.160000	-14883.030000	0.000000	0.000000	0.000000	0.000000	-84.212425	54.466139	-118.255562	-130.802190	-0.000000	0.000000	0.000000	-0.000000	3.448760	0.442540	-1.159760	-0.036316	0.833250	0.542723	-1.000000	-1.000000	-1.000000	-1.000000	-1.000000	-1.000000	-1.000000	138.827586	0.000000	-1.000000	-1.000000	511475.000000	1772919052.771085
-3269.385000	21550.185000	-19836.405000	-14732.730000	0.000000	0.000000	0.000000	0.000000	-31.436766	89.795143	-35.390214	-43.367532	-0.000000	0.000000	0.000000	-0.000000	3.448760	0.442540	-1.159760	-0.036316	0.833250	0.542723	-1.000000	-1.000000	-1.000000	-1.000000	-1.000000	-1.000000	-1.000000	138.827586	0.000000	-1.000000	-1.000000	511476.000000	1772919052.785562
-3257.280000	21627.000000	-19810.125000	-14696.820000	0.000000	0.000000	0.000000	0.000000	36.429366	89.854560	64.991283	65.868348	-0.000000	0.000000	0.000000	-0.000000	3.448760	0.442540	-1.159760	-0.036316	0.833250	0.542723	-1.000000	-1.000000	-1.000000	-1.000000	-1.000000	-1.000000	-1.000000	138.827586	0.000000	-1.000000	-1.000000	511477.000000	1772919052.785568
-3287.880000	21727.080000	-19867.590000	-14758.695000	0.000000	0.000000	0.000000	0.000000	83.017790	53.433468	129.256549	138.555440	-0.000000	0.000000	0.000000	-0.000000	3.448760	0.442540	-1.159760	-0.036316	0.833250	0.542723	-1.000000	-1.000000	-1.000000	-1.000000	-1.000000	-1.000000	-1.000000	138.827586	0.000000	-1.000000	-1.000000	511478.000000	1772919052.785572
-3326.265000	21748.455000	-19931.895000	-14826.645000	0.000000	0.000000	0.000000	0.000000	84.101289	-2.437966	122.973545	135.540807	-0.000000	0.000000	0.000000	-0.000000	3.448760	0.442540	-1.159760	-0.036316	0.833250	0.542723	-1.000000	-1.000000	-1.000000	-1.000000	-1.000000	-1.000000	-1.000000	138.827586	0.000000	-1.000000	-1.000000	511479.000000	1772919052.785574
-3442.320000	21833.595000	-20091.150000	-14992.380000	0.000000	0.000000	0.000000	0.000000	41.046537	-54.850001	51.154916	60.110914	-0.000000	0.000000	0.000000	-0.000000	5.310480	0.808780	-1.388660	-0.036499	0.833128	0.543700	-1.000000	-1.000000	-1.000000	-1.000000	-1.000000	-1.000000	-1.000000	138.827586	0.000000	-1.000000	-1.000000	511480.000000	1772919052.785578
-3490.740000	21961.935000	-20154.780000	-15070.185000	0.000000	0.000000	0.000000	0.000000	-22.376785	-84.366167	-46.610860	-45.852743	-0.000000	0.000000	0.000000	-0.000000	5.310480	0.808780	-1.388660	-0.036499	0.833128	0.543700	-1.000000	-1.000000	-1.000000	-1.000000	-1.000000	-1.000000	-1.000000	138.827586	0.000000	-1.000000	-1.000000	511481.000000	1772919052.785580
-3458.970000	22016.880000	-20101.635000	-15016.950000	0.000000	0.000000	0.000000	0.000000	-71.940632	-80.988966	-117.278016	-124.874872	-0.000000	0.000000	0.000000	-0.000000	5.310480	0.808780	-1.388660	-0.036499	0.833128	0.543700	-1.000000	-1.000000	-1.000000	-1.000000	-1.000000	-1.000000	-1.000000	138.827586	0.000000	-1.000000	-1.000000	511482.000000	1772919052.785730
-3419.415000	22050.990000	-20039.220000	-14950.530000	0.000000	0.000000	0.000000	0.000000	-79.235711	-52.733190	-120.891445	-132.649363	-0.000000	0.000000	0.000000	-0.000000	5.310480	0.808780	-1.388660	-0.036499	0.833128	0.543700	-1.000000	-1.000000	-1.000000	-1.000000	-1.000000	-1.000000	-1.000000	138.827586	0.000000	-1.000000	-1.000000	511483.000000	1772919052.785732
-3342.510000	22151.295000	-19918.395000	-14821.740000	0.000000	0.000000	0.000000	0.000000	-40.071564	-19.179561	-55.694872	-65.188696	-0.000000	0.000000	0.000000	-0.000000	5.310480	0.808780	-1.388660	-0.036499	0.833128	0.543700	-1.000000	-1.000000	-1.000000	-1.000000	-1.000000	-1.000000	-1.000000	138.827586	0.000000	-1.000000	-1.000000	511484.000000	1772919052.790048
-3264.075000	22091.760000	-19816.380000	-14705.820000	0.000000	0.000000	0.000000	0.000000	22.962340	4.296262	41.240730	39.199368	-0.000000	0.000000	0.000000	-0.000000	5.310480	0.808780	-1.388660	-0.036499	0.833128	0.543700	-1.000000	-1.000000	-1.000000	-1.000000	-1.000000	-1.000000	-1.000000	138.827586	0.000000	-1.000000	-1.000000	511485.000000	1772919052.790051
-3278.520000	22063.860000	-19854.180000	-14743.080000	0.000000	0.000000	0.000000	0.000000	75.182061	9.571852	116.900072	123.490296	-0.000000	0.000000	0.000000	-0.000000	5.310480	0.808780	-1.388660	-0.036499	0.833128	0.543700	-1.000000	-1.000000	-1.000000	-1.000000	-1.000000	-1.000000	-1.000000	138.827586	0.000000	-1.000000	-1.000000	511486.000000	1772919052.794060
-3318.435000	22076.955000	-19922.175000	-14813.460000	0.000000	0.000000	0.000000	0.000000	87.401833	-1.787878	129.097179	140.752924	-0.000000	0.000000	0.000000	-0.000000	5.310480	0.808780	-1.388660	-0.036499	0.833128	0.543700	-1.000000	-1.000000	-1.000000	-1.000000	-1.000000	-1.000000	-1.000000	138.827586	0.000000	-1.000000	-1.000000	511487.000000	1772919052.794062
-3427.290000	22203.045000	-20078.640000	-14962.410000	0.000000	0.000000	0.000000	0.000000	51.003776	-13.061705	69.162767	79.726332	-0.000000	0.000000	0.000000	-0.000000	5.310480	0.808780	-1.388660	-0.036499	0.833128	0.543700	-1.000000	-1.000000	-1.000000	-1.000000	-1.000000	-1.000000	-1.000000	138.827586	0.000000	-1.000000	-1.000000	511488.000000	1772919052.798024
-3490.245000	22198.725000	-20159.415000	-15070.140000	0.000000	0.000000	0.000000	0.000000	-16.201528	-5.786947	-31.677368	-27.424196	-0.000000	0.000000	0.000000	-0.000000	5.310480	0.808780	-1.388660	-0.036499	0.833128	0.543700	-1.000000	-1.000000	-1.000000	-1.000000	-1.000000	-1.000000	-1.000000	138.827586	0.000000	-1.000000	-1.000000	511489.000000	1772919052.798027
-3460.095000	22206.555000	-20117.025000	-15031.215000	0.000000	0.000000	0.000000	0.000000	-77.483304	17.785397	-117.500419	-121.924236	-0.000000	0.000000	0.000000	-0.000000	4.516960	0.946120	-0.991900	-0.036011	0.835081	0.543944	-1.000000	-1.000000	-1.000000	-1.000000	-1.000000	-1.000000	-1.000000	138.827586	0.000000	-1.000000	-1.000000	511490.000000	1772919052.802114
-3412.170000	22196.295000	-20049.345000	-14957.370000	0.000000	0.000000	0.000000	0.000000	-96.624020	37.458738	-138.195480	-149.671725	-0.000000	0.000000	0.000000	-0.000000	4.516960	0.946120	-0.991900	-0.036011	0.835081	0.543944	-1.000000	-1.000000	-1.000000	-1.000000	-1.000000	-1.000000	-1.000000	138.827586	0.000000	-1.000000	-1.000000	511491.000000	1772919052.802116
-3327.705000	22125.870000	-19928.790000	-14831.325000	0.000000	0.000000	0.000000	0.000000	-61.714700	37.014915	-81.585376	-94.270998	-0.000000	0.000000	0.000000	-0.000000	4.516960	0.946120	-0.991900	-0.036011	0.835081	0.543944	-1.000000	-1.000000	-1.000000	-1.000000	-1.000000	-1.000000	-1.000000	138.827586	0.000000	-1.000000	-1.000000	511492.000000	1772919052.806160
-3239.730000	22092.885000	-19802.430000	-14692.005000	0.000000	0.000000	0.000000	0.000000	7.192679	15.565031	19.854977	12.922728	-0.000000	0.000000	0.000000	-0.000000	4.516960	0.946120	-0.991900	-0.036011	0.835081	0.543944	-1.000000	-1.000000	-1.000000	-1.000000	-1.000000	-1.000000	-1.000000	138.827586	0.000000	-1.000000	-1.000000	511493.000000	1772919052.806162
-3256.380000	22130.145000	-19829.655000	-14716.620000	0.000000	0.000000	0.000000	0.000000	71.536813	-12.463050	110.255573	112.765575	-0.000000	0.000000	0.000000	-0.000000	4.516960	0.946120	-0.991900	-0.036011	0.835081	0.543944	-1.000000	-1.000000	-1.000000	-1.000000	-1.000000	-1.000000	-1.000000	138.827586	0.000000	-1.000000	-1.000000	511494.000000	1772919052.810109
-3280.950000	22059.045000	-19877.355000	-14765.805000	0.000000	0.000000	0.000000	0.000000	95.454801	-27.825397	139.719297	149.924267	-0.000000	0.000000	0.000000	-0.000000	4.516960	0.946120	-0.991900	-0.036011	0.835081	0.543944	-1.000000	-1.000000	-1.000000	-1.000000	-1.000000	-1.000000	-1.000000	138.827586	0.000000	-1.000000	-1.000000	511495.000000	1772919052.810112
-3344.445000	22072.545000	-19977.750000	-14868.945000	0.000000	0.000000	0.000000	0.000000	66.370365	-23.614304	92.257822	104.239728	-0.000000	0.000000	0.000000	-0.000000	4.516960	0.946120	-0.991900	-0.036011	0.835081	0.543944	-1.000000	-1.000000	-1.000000	-1.000000	-1.000000	-1.000000	-1.000000	138.827586	0.000000	-1.000000	-1.000000	511496.000000	1772919052.814157
-3436.920000	22070.475000	-20116.980000	-15017.445000	0.000000	0.000000	0.000000	0.000000	1.507914	-6.271774	-5.312204	2.063556	-0.000000	0.000000	0.000000	-0.000000	4.516960	0.946120	-0.991900	-0.036011	0.835081	0.543944	-1.000000	-1.000000	-1.000000	-1.000000	-1.000000	-1.000000	-1.000000	138.827586	0.000000	-1.000000	-1.000000	511497.000000	1772919052.814160
-3406.590000	21914.235000	-20076.435000	-14983.335000	0.000000	0.000000	0.000000	0.000000	-63.646618	11.785424	-100.179824	-100.863300	-0.000000	0.000000	0.000000	-0.000000	4.516960	0.946120	-0.991900	-0.036011	0.835081	0.543944	-1.000000	-1.000000	-1.000000	-1.000000	-1.000000	-1.000000	-1.000000	138.827586	0.000000	-1.000000	-1.000000	511498.000000	1772919052.818119
-3366.360000	21856.320000	-20010.870000	-14918.310000	0.000000	0.000000	0.000000	0.000000	-93.116690	16.264837	-139.852625	-147.720517	-0.000000	0.000000	0.000000	-0.000000	4.516960	0.946120	-0.991900	-0.036011	0.835081	0.543944	-1.000000	-1.000000	-1.000000	-1.000000	-1.000000	-1.000000	-1.000000	138.827586	0.000000	-1.000000	-1.000000	511499.000000	1772919052.818122
-3308.580000	21827.070000	-19929.195000	-14831.550000	0.000000	0.000000	0.000000	0.000000	-70.835819	4.911358	-102.142501	-112.678489	-0.000000	0.000000	0.000000	-0.000000	5.310480	0.167860	-2.029580	-0.036133	0.832456	0.546080	-1.000000	-1.000000	-1.000000	-1.000000	-1.000000	-1.000000	-1.000000	138.827586	0.000000	-1.000000	-1.000000	511500.000000	1772919052.822503
-3215.565000	21844.890000	-19787.265000	-14680.485000	0.000000	0.000000	0.000000	0.000000	-11.054909	-6.482360	-10.062736	-17.531351	-0.000000	0.000000	0.000000	-0.000000	5.310480	0.167860	-2.029580	-0.036133	0.832456	0.546080	-1.000000	-1.000000	-1.000000	-1.000000	-1.000000	-1.000000	-1.000000	138.827586	0.000000	-1.000000	-1.000000	511501.000000	1772919052.822506
-3209.400000	21896.325000	-19776.375000	-14659.785000	0.000000	0.000000	0.000000	0.000000	52.480545	-1.127111	85.105641	84.676735	-0.000000	0.000000	0.000000	-0.000000	5.310480	0.167860	-2.029580	-0.036133	0.832456	0.546080	-1.000000	-1.000000	-1.000000	-1.000000	-1.000000	-1.000000	-1.000000	138.827586	0.000000	-1.000000	-1.000000	511502.000000	1772919052.826145
-3253.455000	21934.980000	-19844.055000	-14731.335000	0.000000	0.000000	0.000000	0.000000	85.151518	22.286363	131.993479	138.686966	-0.000000	0.000000	0.000000	-0.000000	5.310480	0.167860	-2.029580	-0.036133	0.832456	0.546080	-1.000000	-1.000000	-1.000000	-1.000000	-1.000000	-1.000000	-1.000000	138.827586	0.000000	-1.000000	-1.000000	511503.000000	1772919052.826147
-3309.840000	21992.310000	-19925.820000	-14815.620000	0.000000	0.000000	0.000000	0.000000	69.194847	49.343070	105.060864	114.892424	-0.000000	0.000000	0.000000	-0.000000	5.310480	0.167860	-2.029580	-0.036133	0.832456	0.546080	-1.000000	-1.000000	-1.000000	-1.000000	-1.000000	-1.000000	-1.000000	138.827586	0.000000	-1.000000	-1.000000	511504.000000	1772919052.830117
-3417.885000	22061.655000	-20081.430000	-14980.005000	0.000000	0.000000	0.000000	0.000000	14.092986	62.460322	19.753998	27.012823	-0.000000	0.000000	0.000000	-0.000000	5.310480	0.167860	-2.029580	-0.036133	0.832456	0.546080	-1.000000	-1.000000	-1.000000	-1.000000	-1.000000	-1.000000	-1.000000	138.827586	0.000000	-1.000000	-1.000000	511505.000000	1772919052.830119
-3442.230000	22063.770000	-20117.205000	-15029.280000	0.000000	0.000000	0.000000	0.000000	-49.744024	52.491689	-77.341103	-76.795425	-0.000000	0.000000	0.000000	-0.000000	5.310480	0.167860	-2.029580	-0.036133	0.832456	0.546080	-1.000000	-1.000000	-1.000000	-1.000000	-1.000000	-1.000000	-1.000000	138.827586	0.000000	-1.000000	-1.000000	511506.000000	1772919052.834201
-3407.805000	22095.945000	-20061.450000	-14972.040000	0.000000	0.000000	0.000000	0.000000	-86.891602	20.929288	-133.057220	-139.668523	-0.000000	0.000000	0.000000	-0.000000	5.310480	0.167860	-2.029580	-0.036133	0.832456	0.546080	-1.000000	-1.000000	-1.000000	-1.000000	-1.000000	-1.000000	-1.000000	138.827586	0.000000	-1.000000	-1.000000	511507.000000	1772919052.834204
-3347.640000	22027.950000	-19980.180000	-14886.900000	0.000000	0.000000	0.000000	0.000000	-75.270228	-22.399676	-115.175010	-125.303501	-0.000000	0.000000	0.000000	-0.000000	5.310480	0.167860	-2.029580	-0.036133	0.832456	0.546080	-1.000000	-1.000000	-1.000000	-1.000000	-1.000000	-1.000000	-1.000000	138.827586	0.000000	-1.000000	-1.000000	511508.000000	1772919052.838201
-3239.640000	21931.335000	-19828.080000	-14727.240000	0.000000	0.000000	0.000000	0.000000	-19.846276	-65.080148	-32.321943	-40.121932	-0.000000	0.000000	0.000000	-0.000000	5.310480	0.167860	-2.029580	-0.036133	0.832456	0.546080	-1.000000	-1.000000	-1.000000	-1.000000	-1.000000	-1.000000	-1.000000	138.827586	0.000000	-1.000000	-1.000000	511509.000000	1772919052.838204
-3190.410000	21888.360000	-19758.555000	-14640.750000	0.000000	0.000000	0.000000	0.000000	50.164905	-95.366973	71.339913	70.576267	-0.000000	0.000000	0.000000	-0.000000	7.965720	0.763000	-1.266580	-0.036926	0.830320	0.547118	-1.000000	-1.000000	-1.000000	-1.000000	-1.000000	-1.000000	-1.000000	138.827586	0.000000	-1.000000	-1.000000	511510.000000	1772919052.842227
-3228.030000	21920.580000	-19814.715000	-14695.965000	0.000000	0.000000	0.000000	0.000000	96.525825	-99.508383	139.762517	147.047100	-0.000000	0.000000	0.000000	-0.000000	7.965720	0.763000	-1.266580	-0.036926	0.830320	0.547118	-1.000000	-1.000000	-1.000000	-1.000000	-1.000000	-1.000000	-1.000000	138.827586	0.000000	-1.000000	-1.000000	511511.000000	1772919052.842230
-3262.365000	21899.745000	-19872.720000	-14759.145000	0.000000	0.000000	0.000000	0.000000	92.158882	-68.397211	134.037790	145.835060	-0.000000	0.000000	0.000000	-0.000000	7.965720	0.763000	-1.266580	-0.036926	0.830320	0.547118	-1.000000	-1.000000	-1.000000	-1.000000	-1.000000	-1.000000	-1.000000	138.827586	0.000000	-1.000000	-1.000000	511512.000000	1772919052.846216
-3334.680000	21818.340000	-19989.855000	-14882.445000	0.000000	0.000000	0.000000	0.000000	38.781923	-12.907314	56.749829	66.585658	-0.000000	0.000000	0.000000	-0.000000	7.965720	0.763000	-1.266580	-0.036926	0.830320	0.547118	-1.000000	-1.000000	-1.000000	-1.000000	-1.000000	-1.000000	-1.000000	138.827586	0.000000	-1.000000	-1.000000	511513.000000	1772919052.846219
-3384.180000	21720.555000	-20070.720000	-14978.115000	0.000000	0.000000	0.000000	0.000000	-34.336140	37.753873	-49.852228	-47.627702	-0.000000	0.000000	0.000000	-0.000000	7.965720	0.763000	-1.266580	-0.036926	0.830320	0.547118	-1.000000	-1.000000	-1.000000	-1.000000	-1.000000	-1.000000	-1.000000	138.827586	0.000000	-1.000000	-1.000000	511514.000000	1772919052.850201
-3368.115000	21745.080000	-20036.970000	-14946.075000	0.000000	0.000000	0.000000	0.000000	-88.892924	61.151991	-129.508916	-136.464423	-0.000000	0.000000	0.000000	-0.000000	7.965720	0.763000	-1.266580	-0.036926	0.830320	0.547118	-1.000000	-1.000000	-1.000000	-1.000000	-1.000000	-1.000000	-1.000000	138.827586	0.000000	-1.000000	-1.000000	511515.000000	1772919052.850203
-3350.070000	21860.955000	-19995.165000	-14900.535000	0.000000	0.000000	0.000000	0.000000	-97.916141	61.948519	-141.246494	-153.896691	-0.000000	0.000000	0.000000	-0.000000	7.965720	0.763000	-1.266580	-0.036926	0.830320	0.547118	-1.000000	-1.000000	-1.000000	-1.000000	-1.000000	-1.000000	-1.000000	138.827586	0.000000	-1.000000	-1.000000	511516.000000	1772919052.854276
-3269.115000	21856.230000	-19874.970000	-14775.075000	0.000000	0.000000	0.000000	0.000000	-59.038841	59.038242	-80.952776	-92.587310	-0.000000	0.000000	0.000000	-0.000000	7.965720	0.763000	-1.266580	-0.036926	0.830320	0.547118	-1.000000	-1.000000	-1.000000	-1.000000	-1.000000	-1.000000	-1.000000	138.827586	0.000000	-1.000000	-1.000000	511517.000000	1772919052.854278
-3166.560000	21735.450000	-19737.810000	-14621.535000	0.000000	0.000000	0.000000	0.000000	7.278874	54.677989	18.994161	14.533975	-0.000000	0.000000	0.000000	-0.000000	7.965720	0.763000	-1.266580	-0.036926	0.830320	0.547118	-1.000000	-1.000000	-1.000000	-1.000000	-1.000000	-1.000000	-1.000000	138.827586	0.000000	-1.000000	-1.000000	511518.000000	1772919052.858214
-3173.175000	21644.955000	-19758.195000	-14636.835000	0.000000	0.000000	0.000000	0.000000	69.174827	32.729456	108.258735	113.375258	-0.000000	0.000000	0.000000	-0.000000	7.965720	0.763000	-1.266580	-0.036926	0.830320	0.547118	-1.000000	-1.000000	-1.000000	-1.000000	-1.000000	-1.000000	-1.000000	138.827586	0.000000	-1.000000	-1.000000	511519.000000	1772919052.858218
-3217.140000	21633.210000	-19824.345000	-14707.890000	0.000000	0.000000	0.000000	0.000000	95.053924	-10.409578	140.026671	152.049862	-0.000000	0.000000	0.000000	-0.000000	7.904680	0.778260	-1.510740	-0.038147	0.830747	0.545653	-1.000000	-1.000000	-1.000000	-1.000000	-1.000000	-1.000000	-1.000000	138.827586	0.000000	-1.000000	-1.000000	511520.000000	1772919052.862273
-3289.590000	21675.960000	-19932.525000	-14820.615000	0.000000	0.000000	0.000000	0.000000	69.795927	-51.072859	95.893512	108.275237	-0.000000	0.000000	0.000000	-0.000000	7.904680	0.778260	-1.510740	-0.038147	0.830747	0.545653	-1.000000	-1.000000	-1.000000	-1.000000	-1.000000	-1.000000	-1.000000	138.827586	0.000000	-1.000000	-1.000000	511521.000000	1772919052.862275
-3372.345000	21661.245000	-20059.740000	-14961.600000	0.000000	0.000000	0.000000	0.000000	6.600646	-61.549218	-0.406253	5.600658	-0.000000	0.000000	0.000000	-0.000000	7.904680	0.778260	-1.510740	-0.038147	0.830747	0.545653	-1.000000	-1.000000	-1.000000	-1.000000	-1.000000	-1.000000	-1.000000	138.827586	0.000000	-1.000000	-1.000000	511522.000000	1772919052.866270
-3351.330000	21569.850000	-20030.715000	-14938.740000	0.000000	0.000000	0.000000	0.000000	-59.355402	-39.905080	-95.872104	-99.413016	-0.000000	0.000000	0.000000	-0.000000	7.904680	0.778260	-1.510740	-0.038147	0.830747	0.545653	-1.000000	-1.000000	-1.000000	-1.000000	-1.000000	-1.000000	-1.000000	138.827586	0.000000	-1.000000	-1.000000	511523.000000	1772919052.866272
-3300.480000	21469.860000	-19954.575000	-14860.935000	0.000000	0.000000	0.000000	0.000000	-90.290366	-10.181087	-136.555538	-147.642111	-0.000000	0.000000	0.000000	-0.000000	7.904680	0.778260	-1.510740	-0.038147	0.830747	0.545653	-1.000000	-1.000000	-1.000000	-1.000000	-1.000000	-1.000000	-1.000000	138.827586	0.000000	-1.000000	-1.000000	511524.000000	1772919052.883783
-3237.210000	21383.370000	-19863.180000	-14764.185000	0.000000	0.000000	0.000000	0.000000	-68.763622	4.246097	-99.361156	-111.912833	-0.000000	0.000000	0.000000	-0.000000	7.904680	0.778260	-1.510740	-0.038147	0.830747	0.545653	-1.000000	-1.000000	-1.000000	-1.000000	-1.000000	-1.000000	-1.000000	138.827586	0.000000	-1.000000	-1.000000	511525.000000	1772919052.883785
-3147.885000	21381.120000	-19727.100000	-14618.340000	0.000000	0.000000	0.000000	0.000000	-8.830883	1.825733	-7.121422	-14.395062	-0.000000	0.000000	0.000000	-0.000000	7.904680	0.778260	-1.510740	-0.038147	0.830747	0.545653	-1.000000	-1.000000	-1.000000	-1.000000	-1.000000	-1.000000	-1.000000	138.827586	0.000000	-1.000000	-1.000000	511526.000000	1772919052.883789
-3152.475000	21471.345000	-19737.315000	-14619.015000	0.000000	0.000000	0.000000	0.000000	54.364653	0.483022	87.334474	89.095340	-0.000000	0.000000	0.000000	-0.000000	7.904680	0.778260	-1.510740	-0.038147	0.830747	0.545653	-1.000000	-1.000000	-1.000000	-1.000000	-1.000000	-1.000000	-1.000000	138.827586	0.000000	-1.000000	-1.000000	511527.000000	1772919052.883792
-3194.640000	21511.665000	-19813.320000	-14685.930000	0.000000	0.000000	0.000000	0.000000	84.867897	16.955314	130.759106	140.681890	-0.000000	0.000000	0.000000	-0.000000	7.904680	0.778260	-1.510740	-0.038147	0.830747	0.545653	-1.000000	-1.000000	-1.000000	-1.000000	-1.000000	-1.000000	-1.000000	138.827586	0.000000	-1.000000	-1.000000	511528.000000	1772919052.884277
-3252.555000	21499.740000	-19889.325000	-14766.345000	0.000000	0.000000	0.000000	0.000000	65.809747	45.847451	98.893232	112.190406	-0.000000	0.000000	0.000000	-0.000000	7.904680	0.778260	-1.510740	-0.038147	0.830747	0.545653	-1.000000	-1.000000	-1.000000	-1.000000	-1.000000	-1.000000	-1.000000	138.827586	0.000000	-1.000000	-1.000000	511529.000000	1772919052.884279
-3352.455000	21503.340000	-20025.315000	-14924.070000	0.000000	0.000000	0.000000	0.000000	9.022090	63.145422	11.577042	21.507347	-0.000000	0.000000	0.000000	-0.000000	6.516020	0.442540	-1.510740	-0.037353	0.832762	0.544127	-1.000000	-1.000000	-1.000000	-1.000000	-1.000000	-1.000000	-1.000000	138.827586	0.000000	-1.000000	-1.000000	511530.000000	1772919052.884283
-3361.275000	21448.710000	-20044.530000	-14953.050000	0.000000	0.000000	0.000000	0.000000	-53.431294	50.637368	-81.469517	-80.734192	-0.000000	0.000000	0.000000	-0.000000	6.516020	0.442540	-1.510740	-0.037353	0.832762	0.544127	-1.000000	-1.000000	-1.000000	-1.000000	-1.000000	-1.000000	-1.000000	138.827586	0.000000	-1.000000	-1.000000	511531.000000	1772919052.884285
-3339.720000	21522.195000	-20002.365000	-14907.690000	0.000000	0.000000	0.000000	0.000000	-86.765523	12.634410	-129.260244	-138.880129	-0.000000	0.000000	0.000000	-0.000000	6.516020	0.442540	-1.510740	-0.037353	0.832762	0.544127	-1.000000	-1.000000	-1.000000	-1.000000	-1.000000	-1.000000	-1.000000	138.827586	0.000000	-1.000000	-1.000000	511532.000000	1772919052.887756
-3300.075000	21575.475000	-19937.970000	-14839.380000	0.000000	0.000000	0.000000	0.000000	-72.371905	-27.021353	-106.192284	-120.991071	-0.000000	0.000000	0.000000	-0.000000	6.516020	0.442540	-1.510740	-0.037353	0.832762	0.544127	-1.000000	-1.000000	-1.000000	-1.000000	-1.000000	-1.000000	-1.000000	138.827586	0.000000	-1.000000	-1.000000	511533.000000	1772919052.887758
-3204.585000	21586.950000	-19799.280000	-14690.745000	0.000000	0.000000	0.000000	0.000000	-18.538478	-45.744149	-25.771897	-37.368201	-0.000000	0.000000	0.000000	-0.000000	6.516020	0.442540	-1.510740	-0.037353	0.832762	0.544127	-1.000000	-1.000000	-1.000000	-1.000000	-1.000000	-1.000000	-1.000000	138.827586	0.000000	-1.000000	-1.000000	511534.000000	1772919052.890299
-3135.915000	21482.550000	-19721.115000	-14602.725000	0.000000	0.000000	0.000000	0.000000	46.951503	-43.341905	69.851360	67.720751	-0.000000	0.000000	0.000000	-0.000000	6.516020	0.442540	-1.510740	-0.037353	0.832762	0.544127	-1.000000	-1.000000	-1.000000	-1.000000	-1.000000	-1.000000	-1.000000	138.827586	0.000000	-1.000000	-1.000000	511535.000000	1772919052.890303
-3169.080000	21434.085000	-19770.390000	-14650.740000	0.000000	0.000000	0.000000	0.000000	91.228011	-37.100593	131.616282	139.710485	-0.000000	0.000000	0.000000	-0.000000	6.516020	0.442540	-1.510740	-0.037353	0.832762	0.544127	-1.000000	-1.000000	-1.000000	-1.000000	-1.000000	-1.000000	-1.000000	138.827586	0.000000	-1.000000	-1.000000	511536.000000	1772919052.894352
-3210.570000	21370.050000	-19833.930000	-14713.155000	0.000000	0.000000	0.000000	0.000000	89.945921	-37.745670	125.627316	139.250165	-0.000000	0.000000	0.000000	-0.000000	6.516020	0.442540	-1.510740	-0.037353	0.832762	0.544127	-1.000000	-1.000000	-1.000000	-1.000000	-1.000000	-1.000000	-1.000000	138.827586	0.000000	-1.000000	-1.000000	511537.000000	1772919052.894354
-3283.515000	21275.505000	-19955.610000	-14844.825000	0.000000	0.000000	0.000000	0.000000	41.862977	-40.388323	53.312895	65.251060	-0.000000	0.000000	0.000000	-0.000000	6.516020	0.442540	-1.510740	-0.037353	0.832762	0.544127	-1.000000	-1.000000	-1.000000	-1.000000	-1.000000	-1.000000	-1.000000	138.827586	0.000000	-1.000000	-1.000000	511538.000000	1772919052.898473
-3340.080000	21247.155000	-20037.015000	-14940.360000	0.000000	0.000000	0.000000	0.000000	-28.210090	-35.301243	-47.668577	-43.427725	-0.000000	0.000000	0.000000	-0.000000	6.516020	0.442540	-1.510740	-0.037353	0.832762	0.544127	-1.000000	-1.000000	-1.000000	-1.000000	-1.000000	-1.000000	-1.000000	138.827586	0.000000	-1.000000	-1.000000	511539.000000	1772919052.898476
-3321.000000	21283.020000	-19996.605000	-14900.310000	0.000000	0.000000	0.000000	0.000000	-83.576209	-15.448848	-124.134012	-129.599502	-0.000000	0.000000	0.000000	-0.000000	5.569900	0.305200	-1.770160	-0.037781	0.837217	0.543395	-1.000000	-1.000000	-1.000000	-1.000000	-1.000000	-1.000000	-1.000000	138.827586	0.000000	-1.000000	-1.000000	511540.000000	1772919052.902373
-3271.095000	21229.650000	-19924.740000	-14824.080000	0.000000	0.000000	0.000000	0.000000	-95.169986	18.662532	-134.782881	-146.741629	-0.000000	0.000000	0.000000	-0.000000	5.569900	0.305200	-1.770160	-0.037781	0.837217	0.543395	-1.000000	-1.000000	-1.000000	-1.000000	-1.000000	-1.000000	-1.000000	138.827586	0.000000	-1.000000	-1.000000	511541.000000	1772919052.902376
-3197.520000	21238.830000	-19811.430000	-14706.270000	0.000000	0.000000	0.000000	0.000000	-57.371270	53.662708	-73.904359	-85.598970	-0.000000	0.000000	0.000000	-0.000000	5.569900	0.305200	-1.770160	-0.037781	0.837217	0.543395	-1.000000	-1.000000	-1.000000	-1.000000	-1.000000	-1.000000	-1.000000	138.827586	0.000000	-1.000000	-1.000000	511542.000000	1772919052.906477
-3141.495000	21326.130000	-19720.935000	-14601.825000	0.000000	0.000000	0.000000	0.000000	8.545682	74.019036	24.695206	19.544827	-0.000000	0.000000	0.000000	-0.000000	5.569900	0.305200	-1.770160	-0.037781	0.837217	0.543395	-1.000000	-1.000000	-1.000000	-1.000000	-1.000000	-1.000000	-1.000000	138.827586	0.000000	-1.000000	-1.000000	511543.000000	1772919052.906480
-3160.440000	21335.445000	-19754.820000	-14633.910000	0.000000	0.000000	0.000000	0.000000	66.466443	75.410694	107.290749	111.116481	-0.000000	0.000000	0.000000	-0.000000	5.569900	0.305200	-1.770160	-0.037781	0.837217	0.543395	-1.000000	-1.000000	-1.000000	-1.000000	-1.000000	-1.000000	-1.000000	138.827586	0.000000	-1.000000	-1.000000	511544.000000	1772919052.910418
-3190.140000	21285.405000	-19808.595000	-14690.205000	0.000000	0.000000	0.000000	0.000000	85.415261	58.309379	129.179692	139.457276	-0.000000	0.000000	0.000000	-0.000000	5.569900	0.305200	-1.770160	-0.037781	0.837217	0.543395	-1.000000	-1.000000	-1.000000	-1.000000	-1.000000	-1.000000	-1.000000	138.827586	0.000000	-1.000000	-1.000000	511545.000000	1772919052.910421
-3246.480000	21177.495000	-19903.095000	-14788.980000	0.000000	0.000000	0.000000	0.000000	57.388711	21.156246	80.246300	91.021929	-0.000000	0.000000	0.000000	-0.000000	5.569900	0.305200	-1.770160	-0.037781	0.837217	0.543395	-1.000000	-1.000000	-1.000000	-1.000000	-1.000000	-1.000000	-1.000000	138.827586	0.000000	-1.000000	-1.000000	511546.000000	1772919052.914407
-3312.540000	21041.145000	-20011.005000	-14912.325000	0.000000	0.000000	0.000000	0.000000	0.475846	-31.941656	-10.302003	-4.986752	-0.000000	0.000000	0.000000	-0.000000	5.569900	0.305200	-1.770160	-0.037781	0.837217	0.543395	-1.000000	-1.000000	-1.000000	-1.000000	-1.000000	-1.000000	-1.000000	138.827586	0.000000	-1.000000	-1.000000	511547.000000	1772919052.914409
-3293.235000	20974.905000	-19980.540000	-14885.685000	0.000000	0.000000	0.000000	0.000000	-53.452209	-83.713352	-92.645832	-95.658230	-0.000000	0.000000	0.000000	-0.000000	5.569900	0.305200	-1.770160	-0.037781	0.837217	0.543395	-1.000000	-1.000000	-1.000000	-1.000000	-1.000000	-1.000000	-1.000000	138.827586	0.000000	-1.000000	-1.000000	511548.000000	1772919052.918424
-3261.780000	20989.440000	-19928.250000	-14828.130000	0.000000	0.000000	0.000000	0.000000	-75.311114	-107.515800	-122.084888	-131.639703	-0.000000	0.000000	0.000000	-0.000000	5.569900	0.305200	-1.770160	-0.037781	0.837217	0.543395	-1.000000	-1.000000	-1.000000	-1.000000	-1.000000	-1.000000	-1.000000	138.827586	0.000000	-1.000000	-1.000000	511549.000000	1772919052.918428
-3201.840000	20998.485000	-19837.890000	-14733.675000	0.000000	0.000000	0.000000	0.000000	-54.334644	-84.279086	-83.450347	-93.919467	-0.000000	0.000000	0.000000	-0.000000	4.791640	0.915600	-1.342880	-0.038574	0.837400	0.542235	-1.000000	-1.000000	-1.000000	-1.000000	-1.000000	-1.000000	-1.000000	138.827586	0.000000	-1.000000	-1.000000	511550.000000	1772919052.922449
-3131.820000	21100.410000	-19718.730000	-14602.455000	0.000000	0.000000	0.000000	0.000000	-3.884991	-19.433630	0.220067	-5.084788	-0.000000	0.000000	0.000000	-0.000000	4.791640	0.915600	-1.342880	-0.038574	0.837400	0.542235	-1.000000	-1.000000	-1.000000	-1.000000	-1.000000	-1.000000	-1.000000	138.827586	0.000000	-1.000000	-1.000000	511551.000000	1772919052.922452
-3162.735000	21290.940000	-19751.895000	-14630.130000	0.000000	0.000000	0.000000	0.000000	46.960311	61.310602	82.294793	85.132218	-0.000000	0.000000	0.000000	-0.000000	4.791640	0.915600	-1.342880	-0.038574	0.837400	0.542235	-1.000000	-1.000000	-1.000000	-1.000000	-1.000000	-1.000000	-1.000000	138.827586	0.000000	-1.000000	-1.000000	511552.000000	1772919052.926437
-3213.720000	21396.600000	-19824.165000	-14706.720000	0.000000	0.000000	0.000000	0.000000	68.492580	127.353643	116.469949	125.769479	-0.000000	0.000000	0.000000	-0.000000	4.791640	0.915600	-1.342880	-0.038574	0.837400	0.542235	-1.000000	-1.000000	-1.000000	-1.000000	-1.000000	-1.000000	-1.000000	138.827586	0.000000	-1.000000	-1.000000	511553.000000	1772919052.926439
-3282.255000	21517.335000	-19921.860000	-14807.475000	0.000000	0.000000	0.000000	0.000000	47.894352	151.653046	82.841336	93.254615	-0.000000	0.000000	0.000000	-0.000000	4.791640	0.915600	-1.342880	-0.038574	0.837400	0.542235	-1.000000	-1.000000	-1.000000	-1.000000	-1.000000	-1.000000	-1.000000	138.827586	0.000000	-1.000000	-1.000000	511554.000000	1772919052.930444
-3385.710000	21621.420000	-20074.995000	-14964.930000	0.000000	0.000000	0.000000	0.000000	-2.326096	121.470209	0.927224	6.735572	-0.000000	0.000000	0.000000	-0.000000	4.791640	0.915600	-1.342880	-0.038574	0.837400	0.542235	-1.000000	-1.000000	-1.000000	-1.000000	-1.000000	-1.000000	-1.000000	138.827586	0.000000	-1.000000	-1.000000	511555.000000	1772919052.930447
-3406.680000	21732.390000	-20096.055000	-14992.920000	0.000000	0.000000	0.000000	0.000000	-53.427588	48.779096	-83.572958	-85.133922	-0.000000	0.000000	0.000000	-0.000000	4.791640	0.915600	-1.342880	-0.038574	0.837400	0.542235	-1.000000	-1.000000	-1.000000	-1.000000	-1.000000	-1.000000	-1.000000	138.827586	0.000000	-1.000000	-1.000000	511556.000000	1772919052.934440
-3381.165000	21825.855000	-20046.420000	-14938.155000	0.000000	0.000000	0.000000	0.000000	-75.950997	-36.001566	-123.053204	-130.665225	-0.000000	0.000000	0.000000	-0.000000	4.791640	0.915600	-1.342880	-0.038574	0.837400	0.542235	-1.000000	-1.000000	-1.000000	-1.000000	-1.000000	-1.000000	-1.000000	138.827586	0.000000	-1.000000	-1.000000	511557.000000	1772919052.934444
-3326.895000	21800.520000	-19969.740000	-14872.590000	0.000000	0.000000	0.000000	0.000000	-54.984145	-103.658547	-93.172684	-102.709832	-0.000000	0.000000	0.000000	-0.000000	4.791640	0.915600	-1.342880	-0.038574	0.837400	0.542235	-1.000000	-1.000000	-1.000000	-1.000000	-1.000000	-1.000000	-1.000000	138.827586	0.000000	-1.000000	-1.000000	511558.000000	1772919052.938460
-3225.015000	21757.770000	-19821.105000	-14718.105000	0.000000	0.000000	0.000000	0.000000	0.509016	-141.440669	-8.371465	-15.570916	-0.000000	0.000000	0.000000	-0.000000	4.791640	0.915600	-1.342880	-0.038574	0.837400	0.542235	-1.000000	-1.000000	-1.000000	-1.000000	-1.000000	-1.000000	-1.000000	138.827586	0.000000	-1.000000	-1.000000	511559.000000	1772919052.938463
-3195.990000	21788.370000	-19778.580000	-14654.700000	0.000000	0.000000	0.000000	0.000000	62.453092	-148.299925	86.935042	84.951681	-0.000000	0.000000	0.000000	-0.000000	1.449700	1.556520	-0.518840	-0.037353	0.834287	0.541319	-1.000000	-1.000000	-1.000000	-1.000000	-1.000000	-1.000000	-1.000000	138.827586	0.000000	-1.000000	-1.000000	511560.000000	1772919052.942560
-3226.005000	21801.510000	-19829.115000	-14706.180000	0.000000	0.000000	0.000000	0.000000	97.307850	-123.111844	141.345763	145.833919	-0.000000	0.000000	0.000000	-0.000000	1.449700	1.556520	-0.518840	-0.037353	0.834287	0.541319	-1.000000	-1.000000	-1.000000	-1.000000	-1.000000	-1.000000	-1.000000	138.827586	0.000000	-1.000000	-1.000000	511561.000000	1772919052.942563
-3262.545000	21788.505000	-19891.485000	-14771.970000	0.000000	0.000000	0.000000	0.000000	83.877645	-69.333244	123.144972	132.484867	-0.000000	0.000000	0.000000	-0.000000	1.449700	1.556520	-0.518840	-0.037353	0.834287	0.541319	-1.000000	-1.000000	-1.000000	-1.000000	-1.000000	-1.000000	-1.000000	138.827586	0.000000	-1.000000	-1.000000	511562.000000	1772919052.946511
-3341.520000	21744.810000	-20023.830000	-14923.890000	0.000000	0.000000	0.000000	0.000000	27.564488	-4.057290	40.439945	49.574173	-0.000000	0.000000	0.000000	-0.000000	1.449700	1.556520	-0.518840	-0.037353	0.834287	0.541319	-1.000000	-1.000000	-1.000000	-1.000000	-1.000000	-1.000000	-1.000000	138.827586	0.000000	-1.000000	-1.000000	511563.000000	1772919052.946517
-3380.805000	21708.990000	-20086.020000	-15008.130000	0.000000	0.000000	0.000000	0.000000	-42.908288	49.089463	-63.842896	-60.995007	-0.000000	0.000000	0.000000	-0.000000	1.449700	1.556520	-0.518840	-0.037353	0.834287	0.541319	-1.000000	-1.000000	-1.000000	-1.000000	-1.000000	-1.000000	-1.000000	138.827586	0.000000	-1.000000	-1.000000	511564.000000	1772919052.950543
-3353.220000	21720.960000	-20035.080000	-14946.255000	0.000000	0.000000	0.000000	0.000000	-91.818480	76.092266	-135.549714	-141.749078	-0.000000	0.000000	0.000000	-0.000000	1.449700	1.556520	-0.518840	-0.037353	0.834287	0.541319	-1.000000	-1.000000	-1.000000	-1.000000	-1.000000	-1.000000	-1.000000	138.827586	0.000000	-1.000000	-1.000000	511565.000000	1772919052.950546
-3310.065000	21714.660000	-19967.265000	-14867.505000	0.000000	0.000000	0.000000	0.000000	-94.432880	79.035744	-136.616064	-148.086965	-0.000000	0.000000	0.000000	-0.000000	1.449700	1.556520	-0.518840	-0.037353	0.834287	0.541319	-1.000000	-1.000000	-1.000000	-1.000000	-1.000000	-1.000000	-1.000000	138.827586	0.000000	-1.000000	-1.000000	511566.000000	1772919052.954531
-3227.490000	21708.225000	-19843.515000	-14738.040000	0.000000	0.000000	0.000000	0.000000	-50.501151	67.599089	-67.256063	-75.845393	-0.000000	0.000000	0.000000	-0.000000	1.449700	1.556520	-0.518840	-0.037353	0.834287	0.541319	-1.000000	-1.000000	-1.000000	-1.000000	-1.000000	-1.000000	-1.000000	138.827586	0.000000	-1.000000	-1.000000	511567.000000	1772919052.954534
-3175.380000	21780.360000	-19763.775000	-14645.070000	0.000000	0.000000	0.000000	0.000000	15.999944	50.665996	34.259782	34.727574	-0.000000	0.000000	0.000000	-0.000000	1.449700	1.556520	-0.518840	-0.037353	0.834287	0.541319	-1.000000	-1.000000	-1.000000	-1.000000	-1.000000	-1.000000	-1.000000	138.827586	0.000000	-1.000000	-1.000000	511568.000000	1772919052.958649
-3202.020000	21809.835000	-19806.165000	-14684.895000	0.000000	0.000000	0.000000	0.000000	69.913003	35.328776	113.474998	123.147863	-0.000000	0.000000	0.000000	-0.000000	1.449700	1.556520	-0.518840	-0.037353	0.834287	0.541319	-1.000000	-1.000000	-1.000000	-1.000000	-1.000000	-1.000000	-1.000000	138.827586	0.000000	-1.000000	-1.000000	511569.000000	1772919052.958652
-3249.540000	21865.320000	-19872.990000	-14753.790000	0.000000	0.000000	0.000000	0.000000	82.660008	24.171123	127.966515	141.561507	-0.000000	0.000000	0.000000	-0.000000	1.495480	1.663340	-0.854560	-0.036682	0.834409	0.542418	-1.000000	-1.000000	-1.000000	-1.000000	-1.000000	-1.000000	-1.000000	138.827586	0.000000	-1.000000	-1.000000	511570.000000	1772919052.962578
-3326.400000	21898.485000	-19990.395000	-14873.580000	0.000000	0.000000	0.000000	0.000000	48.579196	14.141265	71.377021	81.623122	-0.000000	0.000000	0.000000	-0.000000	1.495480	1.663340	-0.854560	-0.036682	0.834409	0.542418	-1.000000	-1.000000	-1.000000	-1.000000	-1.000000	-1.000000	-1.000000	138.827586	0.000000	-1.000000	-1.000000	511571.000000	1772919052.962582
-3398.130000	21900.105000	-20099.925000	-14996.205000	0.000000	0.000000	0.000000	0.000000	-11.947370	0.878049	-23.579493	-21.939454	-0.000000	0.000000	0.000000	-0.000000	1.495480	1.663340	-0.854560	-0.036682	0.834409	0.542418	-1.000000	-1.000000	-1.000000	-1.000000	-1.000000	-1.000000	-1.000000	138.827586	0.000000	-1.000000	-1.000000	511572.000000	1772919052.966551
-3365.370000	21827.520000	-20052.900000	-14951.070000	0.000000	0.000000	0.000000	0.000000	-64.535493	-18.647739	-104.357100	-112.212097	-0.000000	0.000000	0.000000	-0.000000	1.495480	1.663340	-0.854560	-0.036682	0.834409	0.542418	-1.000000	-1.000000	-1.000000	-1.000000	-1.000000	-1.000000	-1.000000	138.827586	0.000000	-1.000000	-1.000000	511573.000000	1772919052.966554
-3313.170000	21740.985000	-19979.820000	-14875.335000	0.000000	0.000000	0.000000	0.000000	-78.622958	-44.436779	-125.206931	-138.857109	-0.000000	0.000000	0.000000	-0.000000	1.495480	1.663340	-0.854560	-0.036682	0.834409	0.542418	-1.000000	-1.000000	-1.000000	-1.000000	-1.000000	-1.000000	-1.000000	138.827586	0.000000	-1.000000	-1.000000	511574.000000	1772919052.972265
-3253.185000	21743.505000	-19887.615000	-14790.915000	0.000000	0.000000	0.000000	0.000000	-45.763983	-68.239297	-74.045378	-87.211562	-0.000000	0.000000	0.000000	-0.000000	1.495480	1.663340	-0.854560	-0.036682	0.834409	0.542418	-1.000000	-1.000000	-1.000000	-1.000000	-1.000000	-1.000000	-1.000000	138.827586	0.000000	-1.000000	-1.000000	511575.000000	1772919052.972269
-3171.105000	21778.470000	-19762.245000	-14649.795000	0.000000	0.000000	0.000000	0.000000	14.453982	-72.812646	19.205644	11.995714	-0.000000	0.000000	0.000000	-0.000000	1.495480	1.663340	-0.854560	-0.036682	0.834409	0.542418	-1.000000	-1.000000	-1.000000	-1.000000	-1.000000	-1.000000	-1.000000	138.827586	0.000000	-1.000000	-1.000000	511576.000000	1772919052.979653
-3175.020000	21766.860000	-19772.505000	-14650.155000	0.000000	0.000000	0.000000	0.000000	67.865452	-46.712671	102.632580	104.054030	-0.000000	0.000000	0.000000	-0.000000	1.495480	1.663340	-0.854560	-0.036682	0.834409	0.542418	-1.000000	-1.000000	-1.000000	-1.000000	-1.000000	-1.000000	-1.000000	138.827586	0.000000	-1.000000	-1.000000	511577.000000	1772919052.979656
-3206.295000	21742.695000	-19826.145000	-14707.620000	0.000000	0.000000	0.000000	0.000000	84.899517	-0.145496	130.598960	139.859326	-0.000000	0.000000	0.000000	-0.000000	1.495480	1.663340	-0.854560	-0.036682	0.834409	0.542418	-1.000000	-1.000000	-1.000000	-1.000000	-1.000000	-1.000000	-1.000000	138.827586	0.000000	-1.000000	-1.000000	511578.000000	1772919052.979660
-3260.745000	21722.310000	-19911.195000	-14794.830000	0.000000	0.000000	0.000000	0.000000	55.970508	41.842217	87.599505	100.213917	-0.000000	0.000000	0.000000	-0.000000	1.495480	1.663340	-0.854560	-0.036682	0.834409	0.542418	-1.000000	-1.000000	-1.000000	-1.000000	-1.000000	-1.000000	-1.000000	138.827586	0.000000	-1.000000	-1.000000	511579.000000	1772919052.979664
-3356.955000	21741.390000	-20055.330000	-14949.045000	0.000000	0.000000	0.000000	0.000000	-3.673181	60.910234	-3.190465	6.504830	-0.000000	0.000000	0.000000	-0.000000	3.631880	2.884140	-1.526000	-0.037659	0.835508	0.544249	-1.000000	-1.000000	-1.000000	-1.000000	-1.000000	-1.000000	-1.000000	138.827586	0.000000	-1.000000	-1.000000	511580.000000	1772919052.982573
-3357.630000	21749.355000	-20053.260000	-14949.855000	0.000000	0.000000	0.000000	0.000000	-63.275090	56.304120	-94.092614	-91.836618	-0.000000	0.000000	0.000000	-0.000000	3.631880	2.884140	-1.526000	-0.037659	0.835508	0.544249	-1.000000	-1.000000	-1.000000	-1.000000	-1.000000	-1.000000	-1.000000	138.827586	0.000000	-1.000000	-1.000000	511581.000000	1772919052.982576
-3323.565000	21768.615000	-19996.560000	-14879.655000	0.000000	0.000000	0.000000	0.000000	-91.229942	38.331422	-136.322577	-141.543466	-0.000000	0.000000	0.000000	-0.000000	3.631880	2.884140	-1.526000	-0.037659	0.835508	0.544249	-1.000000	-1.000000	-1.000000	-1.000000	-1.000000	-1.000000	-1.000000	138.827586	0.000000	-1.000000	-1.000000	511582.000000	1772919052.989581
-3278.430000	21788.730000	-19927.395000	-14799.240000	0.000000	0.000000	0.000000	0.000000	-71.668594	17.720715	-105.973376	-114.079183	-0.000000	0.000000	0.000000	-0.000000	3.631880	2.884140	-1.526000	-0.037659	0.835508	0.544249	-1.000000	-1.000000	-1.000000	-1.000000	-1.000000	-1.000000	-1.000000	138.827586	0.000000	-1.000000	-1.000000	511583.000000	1772919052.989584
-3195.180000	21843.315000	-19795.590000	-14646.015000	0.000000	0.000000	0.000000	0.000000	-15.112672	1.529230	-19.889620	-24.714604	-0.000000	0.000000	0.000000	-0.000000	3.631880	2.884140	-1.526000	-0.037659	0.835508	0.544249	-1.000000	-1.000000	-1.000000	-1.000000	-1.000000	-1.000000	-1.000000	138.827586	0.000000	-1.000000	-1.000000	511584.000000	1772919052.990654
-3164.850000	21830.580000	-19763.325000	-14603.760000	0.000000	0.000000	0.000000	0.000000	48.559589	-7.818704	75.695770	77.786338	-0.000000	0.000000	0.000000	-0.000000	3.631880	2.884140	-1.526000	-0.037659	0.835508	0.544249	-1.000000	-1.000000	-1.000000	-1.000000	-1.000000	-1.000000	-1.000000	138.827586	0.000000	-1.000000	-1.000000	511585.000000	1772919052.990656
-3206.070000	21906.045000	-19824.660000	-14687.505000	0.000000	0.000000	0.000000	0.000000	86.339640	-12.160805	130.333979	137.675315	-0.000000	0.000000	0.000000	-0.000000	3.631880	2.884140	-1.526000	-0.037659	0.835508	0.544249	-1.000000	-1.000000	-1.000000	-1.000000	-1.000000	-1.000000	-1.000000	138.827586	0.000000	-1.000000	-1.000000	511586.000000	1772919052.994582
-3267.405000	21999.285000	-19907.640000	-14784.390000	0.000000	0.000000	0.000000	0.000000	77.935142	-12.035572	114.471018	120.391140	-0.000000	0.000000	0.000000	-0.000000	3.631880	2.884140	-1.526000	-0.037659	0.835508	0.544249	-1.000000	-1.000000	-1.000000	-1.000000	-1.000000	-1.000000	-1.000000	138.827586	0.000000	-1.000000	-1.000000	511587.000000	1772919052.994585
-3334.725000	21909.285000	-20028.735000	-14931.855000	0.000000	0.000000	0.000000	0.000000	27.983485	-8.458489	37.208351	34.624475	-0.000000	0.000000	0.000000	-0.000000	3.631880	2.884140	-1.526000	-0.037659	0.835508	0.544249	-1.000000	-1.000000	-1.000000	-1.000000	-1.000000	-1.000000	-1.000000	138.827586	0.000000	-1.000000	-1.000000	511588.000000	1772919052.998694
-3345.660000	21799.440000	-20059.155000	-14956.560000	0.000000	0.000000	0.000000	0.000000	-35.061101	-11.984654	-58.290195	-71.012496	-0.000000	0.000000	0.000000	-0.000000	3.631880	2.884140	-1.526000	-0.037659	0.835508	0.544249	-1.000000	-1.000000	-1.000000	-1.000000	-1.000000	-1.000000	-1.000000	138.827586	0.000000	-1.000000	-1.000000	511589.000000	1772919052.998697
-3328.245000	21802.635000	-20015.190000	-14877.855000	0.000000	0.000000	0.000000	0.000000	-75.686695	-30.542330	-119.162088	-135.512398	-0.000000	0.000000	0.000000	-0.000000	3.296160	4.440660	-0.061040	-0.037537	0.833311	0.543028	-1.000000	-1.000000	-1.000000	-1.000000	-1.000000	-1.000000	-1.000000	138.827586	0.000000	-1.000000	-1.000000	511590.000000	1772919053.002657
-3315.870000	21926.565000	-19978.155000	-14839.065000	0.000000	0.000000	0.000000	0.000000	-73.326885	-48.270239	-113.043704	-121.853841	-0.000000	0.000000	0.000000	-0.000000	3.296160	4.440660	-0.061040	-0.037537	0.833311	0.543028	-1.000000	-1.000000	-1.000000	-1.000000	-1.000000	-1.000000	-1.000000	138.827586	0.000000	-1.000000	-1.000000	511591.000000	1772919053.002660
-3236.535000	21980.970000	-19853.370000	-14722.245000	0.000000	0.000000	0.000000	0.000000	-33.074656	-38.408095	-46.576813	-41.136046	-0.000000	0.000000	0.000000	-0.000000	3.296160	4.440660	-0.061040	-0.037537	0.833311	0.543028	-1.000000	-1.000000	-1.000000	-1.000000	-1.000000	-1.000000	-1.000000	138.827586	0.000000	-1.000000	-1.000000	511592.000000	1772919053.006712
-3178.395000	22019.265000	-19766.925000	-14628.645000	0.000000	0.000000	0.000000	0.000000	22.363234	2.216516	43.101703	59.387921	-0.000000	0.000000	0.000000	-0.000000	3.296160	4.440660	-0.061040	-0.037537	0.833311	0.543028	-1.000000	-1.000000	-1.000000	-1.000000	-1.000000	-1.000000	-1.000000	138.827586	0.000000	-1.000000	-1.000000	511593.000000	1772919053.006714
-3176.460000	22104.135000	-19783.035000	-14622.795000	0.000000	0.000000	0.000000	0.000000	65.851936	48.312801	110.119153	128.169404	-0.000000	0.000000	0.000000	-0.000000	3.296160	4.440660	-0.061040	-0.037537	0.833311	0.543028	-1.000000	-1.000000	-1.000000	-1.000000	-1.000000	-1.000000	-1.000000	138.827586	0.000000	-1.000000	-1.000000	511594.000000	1772919053.010983
-3215.205000	22180.050000	-19842.030000	-14647.095000	0.000000	0.000000	0.000000	0.000000	75.670122	73.381353	119.575068	132.835107	-0.000000	0.000000	0.000000	-0.000000	3.296160	4.440660	-0.061040	-0.037537	0.833311	0.543028	-1.000000	-1.000000	-1.000000	-1.000000	-1.000000	-1.000000	-1.000000	138.827586	0.000000	-1.000000	-1.000000	511595.000000	1772919053.010985
-3344.220000	22306.320000	-20001.510000	-14795.055000	0.000000	0.000000	0.000000	0.000000	44.707041	69.318394	64.569744	71.865691	-0.000000	0.000000	0.000000	-0.000000	3.296160	4.440660	-0.061040	-0.037537	0.833311	0.543028	-1.000000	-1.000000	-1.000000	-1.000000	-1.000000	-1.000000	-1.000000	138.827586	0.000000	-1.000000	-1.000000	511596.000000	1772919053.014770
-3420.495000	22295.835000	-20135.565000	-15050.520000	0.000000	0.000000	0.000000	0.000000	-14.392480	42.660815	-29.265073	-29.319029	-0.000000	0.000000	0.000000	-0.000000	3.296160	4.440660	-0.061040	-0.037537	0.833311	0.543028	-1.000000	-1.000000	-1.000000	-1.000000	-1.000000	-1.000000	-1.000000	138.827586	0.000000	-1.000000	-1.000000	511597.000000	1772919053.014773
-3424.905000	22315.995000	-20130.840000	-15091.110000	0.000000	0.000000	0.000000	0.000000	-71.207539	2.458108	-114.103523	-128.561650	-0.000000	0.000000	0.000000	-0.000000	3.296160	4.440660	-0.061040	-0.037537	0.833311	0.543028	-1.000000	-1.000000	-1.000000	-1.000000	-1.000000	-1.000000	-1.000000	138.827586	0.000000	-1.000000	-1.000000	511598.000000	1772919053.018638
-3377.970000	22432.995000	-20050.200000	-14939.820000	0.000000	0.000000	0.000000	0.000000	-91.432522	-39.296845	-141.005418	-172.934934	-0.000000	0.000000	0.000000	-0.000000	3.296160	4.440660	-0.061040	-0.037537	0.833311	0.543028	-1.000000	-1.000000	-1.000000	-1.000000	-1.000000	-1.000000	-1.000000	138.827586	0.000000	-1.000000	-1.000000	511599.000000	1772919053.018641
-3289.005000	22507.470000	-19924.515000	-14752.440000	0.000000	0.000000	0.000000	0.000000	-59.661454	-63.935537	-89.563199	-123.648951	-0.000000	0.000000	0.000000	-0.000000	1.678600	16.877560	-1.129240	-0.028747	0.822996	0.535460	-1.000000	-1.000000	-1.000000	-1.000000	-1.000000	-1.000000	-1.000000	138.827586	0.000000	-1.000000	-1.000000	511600.000000	1772919053.022786
-3218.265000	22626.945000	-19796.535000	-14582.700000	0.000000	0.000000	0.000000	0.000000	8.697943	-59.124557	15.425370	5.190176	-0.000000	0.000000	0.000000	-0.000000	1.678600	16.877560	-1.129240	-0.028747	0.822996	0.535460	-1.000000	-1.000000	-1.000000	-1.000000	-1.000000	-1.000000	-1.000000	138.827586	0.000000	-1.000000	-1.000000	511601.000000	1772919053.022789
-3231.630000	22703.625000	-19814.715000	-14642.775000	0.000000	0.000000	0.000000	0.000000	75.637561	-30.610297	116.689607	142.001191	-0.000000	0.000000	0.000000	-0.000000	1.678600	16.877560	-1.129240	-0.028747	0.822996	0.535460	-1.000000	-1.000000	-1.000000	-1.000000	-1.000000	-1.000000	-1.000000	138.827586	0.000000	-1.000000	-1.000000	511602.000000	1772919053.027006
-3261.015000	22666.680000	-19862.640000	-14735.070000	0.000000	0.000000	0.000000	0.000000	102.636738	1.146749	156.833723	201.829811	-0.000000	0.000000	0.000000	-0.000000	1.678600	16.877560	-1.129240	-0.028747	0.822996	0.535460	-1.000000	-1.000000	-1.000000	-1.000000	-1.000000	-1.000000	-1.000000	138.827586	0.000000	-1.000000	-1.000000	511603.000000	1772919053.027009
-3323.700000	22625.190000	-19956.420000	-14841.450000	0.000000	0.000000	0.000000	0.000000	74.833662	13.006984	113.267079	147.261292	-0.000000	0.000000	0.000000	-0.000000	1.678600	16.877560	-1.129240	-0.028747	0.822996	0.535460	-1.000000	-1.000000	-1.000000	-1.000000	-1.000000	-1.000000	-1.000000	138.827586	0.000000	-1.000000	-1.000000	511604.000000	1772919053.030828
-3413.430000	22557.420000	-20107.080000	-15058.845000	0.000000	0.000000	0.000000	0.000000	8.721957	-3.392448	10.774333	12.336988	-0.000000	0.000000	0.000000	-0.000000	1.678600	16.877560	-1.129240	-0.028747	0.822996	0.535460	-1.000000	-1.000000	-1.000000	-1.000000	-1.000000	-1.000000	-1.000000	138.827586	0.000000	-1.000000	-1.000000	511605.000000	1772919053.030831
-3449.610000	22623.480000	-20125.170000	-15067.845000	0.000000	0.000000	0.000000	0.000000	-60.738897	-32.170446	-96.394692	-127.016893	-0.000000	0.000000	0.000000	-0.000000	1.678600	16.877560	-1.129240	-0.028747	0.822996	0.535460	-1.000000	-1.000000	-1.000000	-1.000000	-1.000000	-1.000000	-1.000000	138.827586	0.000000	-1.000000	-1.000000	511606.000000	1772919053.034775
-3424.500000	22716.900000	-20074.455000	-14971.095000	0.000000	0.000000	0.000000	0.000000	-98.512293	-43.523707	-152.390449	-195.468785	-0.000000	0.000000	0.000000	-0.000000	1.678600	16.877560	-1.129240	-0.028747	0.822996	0.535460	-1.000000	-1.000000	-1.000000	-1.000000	-1.000000	-1.000000	-1.000000	138.827586	0.000000	-1.000000	-1.000000	511607.000000	1772919053.034778
-3380.445000	22794.120000	-19998.540000	-14869.395000	0.000000	0.000000	0.000000	0.000000	-85.777251	-19.117109	-128.015255	-155.871735	-0.000000	0.000000	0.000000	-0.000000	1.678600	16.877560	-1.129240	-0.028747	0.822996	0.535460	-1.000000	-1.000000	-1.000000	-1.000000	-1.000000	-1.000000	-1.000000	138.827586	0.000000	-1.000000	-1.000000	511608.000000	1772919053.038780
-3284.370000	22846.995000	-19854.090000	-14734.440000	0.000000	0.000000	0.000000	0.000000	-29.648572	29.670652	-37.866661	-33.044796	-0.000000	0.000000	0.000000	-0.000000	1.678600	16.877560	-1.129240	-0.028747	0.822996	0.535460	-1.000000	-1.000000	-1.000000	-1.000000	-1.000000	-1.000000	-1.000000	138.827586	0.000000	-1.000000	-1.000000	511609.000000	1772919053.038782
-3250.125000	22830.750000	-19820.610000	-14716.395000	0.000000	0.000000	0.000000	0.000000	41.025171	70.547939	69.461815	102.142278	-0.000000	0.000000	0.000000	-0.000000	-14.313880	29.039780	0.152600	-0.018799	0.825071	0.517394	-1.000000	-1.000000	-1.000000	-1.000000	-1.000000	-1.000000	-1.000000	138.827586	0.000000	-1.000000	-1.000000	511610.000000	1772919053.042819
-3249.540000	22632.705000	-19850.040000	-14707.845000	0.000000	0.000000	0.000000	0.000000	90.239773	72.556932	137.558473	177.434588	-0.000000	0.000000	0.000000	-0.000000	-14.313880	29.039780	0.152600	-0.018799	0.825071	0.517394	-1.000000	-1.000000	-1.000000	-1.000000	-1.000000	-1.000000	-1.000000	138.827586	0.000000	-1.000000	-1.000000	511611.000000	1772919053.042821
-3279.870000	22459.950000	-19921.140000	-14754.015000	0.000000	0.000000	0.000000	0.000000	93.200593	24.403540	131.353124	159.650065	-0.000000	0.000000	0.000000	-0.000000	-14.313880	29.039780	0.152600	-0.018799	0.825071	0.517394	-1.000000	-1.000000	-1.000000	-1.000000	-1.000000	-1.000000	-1.000000	138.827586	0.000000	-1.000000	-1.000000	511612.000000	1772919053.046750
-3397.590000	22402.530000	-20085.480000	-14924.340000	0.000000	0.000000	0.000000	0.000000	48.935004	-51.320221	55.865230	65.586482	-0.000000	0.000000	0.000000	-0.000000	-14.313880	29.039780	0.152600	-0.018799	0.825071	0.517394	-1.000000	-1.000000	-1.000000	-1.000000	-1.000000	-1.000000	-1.000000	138.827586	0.000000	-1.000000	-1.000000	511613.000000	1772919053.046754
-3418.695000	22302.855000	-20108.880000	-14963.355000	0.000000	0.000000	0.000000	0.000000	-20.328756	-106.442033	-48.062593	-55.682404	-0.000000	0.000000	0.000000	-0.000000	-14.313880	29.039780	0.152600	-0.018799	0.825071	0.517394	-1.000000	-1.000000	-1.000000	-1.000000	-1.000000	-1.000000	-1.000000	138.827586	0.000000	-1.000000	-1.000000	511614.000000	1772919053.050779
-3379.680000	22257.720000	-20034.990000	-14881.005000	0.000000	0.000000	0.000000	0.000000	-77.831259	-104.847855	-123.038395	-143.804655	-0.000000	0.000000	0.000000	-0.000000	-14.313880	29.039780	0.152600	-0.018799	0.825071	0.517394	-1.000000	-1.000000	-1.000000	-1.000000	-1.000000	-1.000000	-1.000000	138.827586	0.000000	-1.000000	-1.000000	511615.000000	1772919053.050782
-3332.295000	22280.355000	-19960.470000	-14813.235000	0.000000	0.000000	0.000000	0.000000	-90.972501	-47.092438	-125.949069	-153.250580	-0.000000	0.000000	0.000000	-0.000000	-14.313880	29.039780	0.152600	-0.018799	0.825071	0.517394	-1.000000	-1.000000	-1.000000	-1.000000	-1.000000	-1.000000	-1.000000	138.827586	0.000000	-1.000000	-1.000000	511616.000000	1772919053.054799
-3258.180000	22436.235000	-19830.195000	-14707.395000	0.000000	0.000000	0.000000	0.000000	-53.864778	40.753648	-57.246812	-83.205393	-0.000000	0.000000	0.000000	-0.000000	-14.313880	29.039780	0.152600	-0.018799	0.825071	0.517394	-1.000000	-1.000000	-1.000000	-1.000000	-1.000000	-1.000000	-1.000000	138.827586	0.000000	-1.000000	-1.000000	511617.000000	1772919053.054802
-3213.810000	22505.895000	-19782.540000	-14650.065000	0.000000	0.000000	0.000000	0.000000	9.533630	125.265658	40.611478	22.055191	-0.000000	0.000000	0.000000	-0.000000	-14.313880	29.039780	0.152600	-0.018799	0.825071	0.517394	-1.000000	-1.000000	-1.000000	-1.000000	-1.000000	-1.000000	-1.000000	138.827586	0.000000	-1.000000	-1.000000	511618.000000	1772919053.058863
-3232.395000	22520.745000	-19825.515000	-14655.105000	0.000000	0.000000	0.000000	0.000000	62.346068	171.815858	110.878054	103.903668	-0.000000	0.000000	0.000000	-0.000000	-14.313880	29.039780	0.152600	-0.018799	0.825071	0.517394	-1.000000	-1.000000	-1.000000	-1.000000	-1.000000	-1.000000	-1.000000	138.827586	0.000000	-1.000000	-1.000000	511619.000000	1772919053.058865
-3257.280000	22587.345000	-19876.140000	-14674.005000	0.000000	0.000000	0.000000	0.000000	76.163947	156.398381	114.804558	122.855735	-0.000000	0.000000	0.000000	-0.000000	-32.412240	12.253780	5.966660	-0.041138	0.882200	0.535277	-1.000000	-1.000000	-1.000000	-1.000000	-1.000000	-1.000000	-1.000000	138.827586	0.000000	-1.000000	-1.000000	511620.000000	1772919053.062801
-3348.945000	22616.280000	-20007.315000	-14786.100000	0.000000	0.000000	0.000000	0.000000	45.908331	84.661150	53.092359	76.071521	-0.000000	0.000000	0.000000	-0.000000	-32.412240	12.253780	5.966660	-0.041138	0.882200	0.535277	-1.000000	-1.000000	-1.000000	-1.000000	-1.000000	-1.000000	-1.000000	138.827586	0.000000	-1.000000	-1.000000	511621.000000	1772919053.062804
-3448.440000	22605.075000	-20145.690000	-14960.835000	0.000000	0.000000	0.000000	0.000000	-10.807681	-11.163447	-39.287229	-9.346607	-0.000000	0.000000	0.000000	-0.000000	-32.412240	12.253780	5.966660	-0.041138	0.882200	0.535277	-1.000000	-1.000000	-1.000000	-1.000000	-1.000000	-1.000000	-1.000000	138.827586	0.000000	-1.000000	-1.000000	511622.000000	1772919053.066938
-3434.580000	22621.185000	-20097.045000	-14955.525000	0.000000	0.000000	0.000000	0.000000	-63.856380	-94.452683	-113.613864	-91.989482	-0.000000	0.000000	0.000000	-0.000000	-32.412240	12.253780	5.966660	-0.041138	0.882200	0.535277	-1.000000	-1.000000	-1.000000	-1.000000	-1.000000	-1.000000	-1.000000	138.827586	0.000000	-1.000000	-1.000000	511623.000000	1772919053.066941
-3345.345000	22604.355000	-19975.455000	-14859.765000	0.000000	0.000000	0.000000	0.000000	-81.774079	-139.741691	-126.615874	-127.369781	-0.000000	0.000000	0.000000	-0.000000	-32.412240	12.253780	5.966660	-0.041138	0.882200	0.535277	-1.000000	-1.000000	-1.000000	-1.000000	-1.000000	-1.000000	-1.000000	138.827586	0.000000	-1.000000	-1.000000	511624.000000	1772919053.070965
-3273.345000	22686.930000	-19875.465000	-14687.235000	0.000000	0.000000	0.000000	0.000000	-49.640885	-137.557450	-65.341733	-88.882340	-0.000000	0.000000	0.000000	-0.000000	-32.412240	12.253780	5.966660	-0.041138	0.882200	0.535277	-1.000000	-1.000000	-1.000000	-1.000000	-1.000000	-1.000000	-1.000000	138.827586	0.000000	-1.000000	-1.000000	511625.000000	1772919053.070967
-3192.885000	22762.980000	-19777.455000	-14595.480000	0.000000	0.000000	0.000000	0.000000	16.239199	-93.071580	37.447327	7.782256	-0.000000	0.000000	0.000000	-0.000000	-32.412240	12.253780	5.966660	-0.041138	0.882200	0.535277	-1.000000	-1.000000	-1.000000	-1.000000	-1.000000	-1.000000	-1.000000	138.827586	0.000000	-1.000000	-1.000000	511626.000000	1772919053.091908
-3209.940000	22822.425000	-19818.090000	-14678.415000	0.000000	0.000000	0.000000	0.000000	76.802040	-24.594679	121.974676	105.333374	-0.000000	0.000000	0.000000	-0.000000	-32.412240	12.253780	5.966660	-0.041138	0.882200	0.535277	-1.000000	-1.000000	-1.000000	-1.000000	-1.000000	-1.000000	-1.000000	138.827586	0.000000	-1.000000	-1.000000	511627.000000	1772919053.091911
-3256.965000	22822.470000	-19908.720000	-14817.060000	0.000000	0.000000	0.000000	0.000000	95.323243	39.044426	138.710396	139.180377	-0.000000	0.000000	0.000000	-0.000000	-32.412240	12.253780	5.966660	-0.041138	0.882200	0.535277	-1.000000	-1.000000	-1.000000	-1.000000	-1.000000	-1.000000	-1.000000	138.827586	0.000000	-1.000000	-1.000000	511628.000000	1772919053.091915
-3402.495000	22782.870000	-20059.335000	-14906.475000	0.000000	0.000000	0.000000	0.000000	58.861570	70.317661	77.039404	85.751453	-0.000000	0.000000	0.000000	-0.000000	-32.412240	12.253780	5.966660	-0.041138	0.882200	0.535277	-1.000000	-1.000000	-1.000000	-1.000000	-1.000000	-1.000000	-1.000000	138.827586	0.000000	-1.000000	-1.000000	511629.000000	1772919053.091917
-3467.205000	22668.525000	-20114.505000	-14967.810000	0.000000	0.000000	0.000000	0.000000	-14.572700	57.562979	-28.249527	-17.922601	-0.000000	0.000000	0.000000	-0.000000	-32.046000	3.601360	12.116440	-0.082702	0.900693	0.561095	-1.000000	-1.000000	-1.000000	-1.000000	-1.000000	-1.000000	-1.000000	138.827586	0.000000	-1.000000	-1.000000	511630.000000	1772919053.092564
-3450.645000	22705.290000	-20086.380000	-14975.235000	0.000000	0.000000	0.000000	0.000000	-83.524086	13.209303	-116.158274	-104.867410	-0.000000	0.000000	0.000000	-0.000000	-32.046000	3.601360	12.116440	-0.082702	0.900693	0.561095	-1.000000	-1.000000	-1.000000	-1.000000	-1.000000	-1.000000	-1.000000	138.827586	0.000000	-1.000000	-1.000000	511631.000000	1772919053.092566
-3361.050000	22667.625000	-20072.430000	-14913.990000	0.000000	0.000000	0.000000	0.000000	-105.163954	-30.997054	-137.019006	-125.878093	-0.000000	0.000000	0.000000	-0.000000	-32.046000	3.601360	12.116440	-0.082702	0.900693	0.561095	-1.000000	-1.000000	-1.000000	-1.000000	-1.000000	-1.000000	-1.000000	138.827586	0.000000	-1.000000	-1.000000	511632.000000	1772919053.092573
-3315.015000	22599.045000	-20142.765000	-14847.030000	0.000000	0.000000	0.000000	0.000000	-64.778110	-48.507777	-86.646468	-74.896559	-0.000000	0.000000	0.000000	-0.000000	-32.046000	3.601360	12.116440	-0.082702	0.900693	0.561095	-1.000000	-1.000000	-1.000000	-1.000000	-1.000000	-1.000000	-1.000000	138.827586	0.000000	-1.000000	-1.000000	511633.000000	1772919053.092575
-3233.115000	22680.405000	-20031.345000	-14639.310000	0.000000	0.000000	0.000000	0.000000	12.686993	-35.305199	-2.713649	17.167449	-0.000000	0.000000	0.000000	-0.000000	-32.046000	3.601360	12.116440	-0.082702	0.900693	0.561095	-1.000000	-1.000000	-1.000000	-1.000000	-1.000000	-1.000000	-1.000000	138.827586	0.000000	-1.000000	-1.000000	511634.000000	1772919053.092578
-3111.300000	22708.710000	-19814.805000	-14582.925000	0.000000	0.000000	0.000000	0.000000	83.849257	-0.647598	75.519641	105.012033	-0.000000	0.000000	0.000000	-0.000000	-32.046000	3.601360	12.116440	-0.082702	0.900693	0.561095	-1.000000	-1.000000	-1.000000	-1.000000	-1.000000	-1.000000	-1.000000	138.827586	0.000000	-1.000000	-1.000000	511635.000000	1772919053.092580
-3166.290000	22672.305000	-19799.460000	-14613.840000	0.000000	0.000000	0.000000	0.000000	114.620856	39.139999	127.183257	145.559660	-0.000000	0.000000	0.000000	-0.000000	-32.046000	3.601360	12.116440	-0.082702	0.900693	0.561095	-1.000000	-1.000000	-1.000000	-1.000000	-1.000000	-1.000000	-1.000000	138.827586	0.000000	-1.000000	-1.000000	511636.000000	1772919053.095010
-3275.325000	22616.325000	-19899.720000	-14743.395000	0.000000	0.000000	0.000000	0.000000	88.930167	61.124420	133.323351	112.672723	-0.000000	0.000000	0.000000	-0.000000	-32.046000	3.601360	12.116440	-0.082702	0.900693	0.561095	-1.000000	-1.000000	-1.000000	-1.000000	-1.000000	-1.000000	-1.000000	138.827586	0.000000	-1.000000	-1.000000	511637.000000	1772919053.095015
-3370.500000	22503.195000	-20049.165000	-14901.165000	0.000000	0.000000	0.000000	0.000000	13.970386	49.707231	77.997772	15.159463	-0.000000	0.000000	0.000000	-0.000000	-32.046000	3.601360	12.116440	-0.082702	0.900693	0.561095	-1.000000	-1.000000	-1.000000	-1.000000	-1.000000	-1.000000	-1.000000	138.827586	0.000000	-1.000000	-1.000000	511638.000000	1772919053.098921
-3364.560000	22416.255000	-20035.215000	-14928.165000	0.000000	0.000000	0.000000	0.000000	-73.809041	9.483263	-22.470986	-100.271630	-0.000000	0.000000	0.000000	-0.000000	-32.046000	3.601360	12.116440	-0.082702	0.900693	0.561095	-1.000000	-1.000000	-1.000000	-1.000000	-1.000000	-1.000000	-1.000000	138.827586	0.000000	-1.000000	-1.000000	511639.000000	1772919053.098924
-3289.455000	22482.630000	-19863.990000	-14850.180000	0.000000	0.000000	0.000000	0.000000	-124.088059	-34.590487	-111.342338	-169.887433	-0.000000	0.000000	0.000000	-0.000000	-28.322560	-16.862300	16.557100	-0.086242	0.856931	0.557982	-1.000000	-1.000000	-1.000000	-1.000000	-1.000000	-1.000000	-1.000000	138.827586	0.000000	-1.000000	-1.000000	511640.000000	1772919053.102988
-3188.205000	22514.985000	-19730.970000	-14830.200000	0.000000	0.000000	0.000000	0.000000	-106.099707	-50.821236	-130.126273	-152.671000	-0.000000	0.000000	0.000000	-0.000000	-28.322560	-16.862300	16.557100	-0.086242	0.856931	0.557982	-1.000000	-1.000000	-1.000000	-1.000000	-1.000000	-1.000000	-1.000000	138.827586	0.000000	-1.000000	-1.000000	511641.000000	1772919053.102991
-3181.545000	22513.815000	-19637.055000	-14713.470000	0.000000	0.000000	0.000000	0.000000	-32.221877	-27.551265	-70.110878	-60.229759	-0.000000	0.000000	0.000000	-0.000000	-28.322560	-16.862300	16.557100	-0.086242	0.856931	0.557982	-1.000000	-1.000000	-1.000000	-1.000000	-1.000000	-1.000000	-1.000000	138.827586	0.000000	-1.000000	-1.000000	511642.000000	1772919053.107089
-3247.515000	22615.155000	-19669.815000	-14645.070000	0.000000	0.000000	0.000000	0.000000	48.724595	17.077584	19.763396	55.577793	-0.000000	0.000000	0.000000	-0.000000	-28.322560	-16.862300	16.557100	-0.086242	0.856931	0.557982	-1.000000	-1.000000	-1.000000	-1.000000	-1.000000	-1.000000	-1.000000	138.827586	0.000000	-1.000000	-1.000000	511643.000000	1772919053.107092
-3206.790000	22647.330000	-19761.300000	-14689.845000	0.000000	0.000000	0.000000	0.000000	88.612883	55.614556	74.207167	136.878792	-0.000000	0.000000	0.000000	-0.000000	-28.322560	-16.862300	16.557100	-0.086242	0.856931	0.557982	-1.000000	-1.000000	-1.000000	-1.000000	-1.000000	-1.000000	-1.000000	138.827586	0.000000	-1.000000	-1.000000	511644.000000	1772919053.110917
-3116.115000	22581.405000	-19653.885000	-14650.875000	0.000000	0.000000	0.000000	0.000000	77.615410	67.408503	63.569777	147.872027	-0.000000	0.000000	0.000000	-0.000000	-28.322560	-16.862300	16.557100	-0.086242	0.856931	0.557982	-1.000000	-1.000000	-1.000000	-1.000000	-1.000000	-1.000000	-1.000000	138.827586	0.000000	-1.000000	-1.000000	511645.000000	1772919053.110920
-3131.730000	22565.925000	-19656.495000	-14682.240000	0.000000	0.000000	0.000000	0.000000	40.510014	43.180898	12.515251	92.620978	-0.000000	0.000000	0.000000	-0.000000	-28.322560	-16.862300	16.557100	-0.086242	0.856931	0.557982	-1.000000	-1.000000	-1.000000	-1.000000	-1.000000	-1.000000	-1.000000	138.827586	0.000000	-1.000000	-1.000000	511646.000000	1772919053.114907
-3264.480000	22585.860000	-19902.105000	-14860.755000	0.000000	0.000000	0.000000	0.000000	0.022702	-5.748565	-38.776995	4.430607	-0.000000	0.000000	0.000000	-0.000000	-28.322560	-16.862300	16.557100	-0.086242	0.856931	0.557982	-1.000000	-1.000000	-1.000000	-1.000000	-1.000000	-1.000000	-1.000000	138.827586	0.000000	-1.000000	-1.000000	511647.000000	1772919053.114909
-3411.270000	22607.145000	-20051.505000	-15011.505000	0.000000	0.000000	0.000000	0.000000	-39.853411	-50.497728	-76.025601	-82.223026	-0.000000	0.000000	0.000000	-0.000000	-28.322560	-16.862300	16.557100	-0.086242	0.856931	0.557982	-1.000000	-1.000000	-1.000000	-1.000000	-1.000000	-1.000000	-1.000000	138.827586	0.000000	-1.000000	-1.000000	511648.000000	1772919053.118984
-3410.820000	22637.700000	-19976.265000	-14973.705000	0.000000	0.000000	0.000000	0.000000	-74.850146	-66.892196	-93.848070	-137.331683	-0.000000	0.000000	0.000000	-0.000000	-28.322560	-16.862300	16.557100	-0.086242	0.856931	0.557982	-1.000000	-1.000000	-1.000000	-1.000000	-1.000000	-1.000000	-1.000000	138.827586	0.000000	-1.000000	-1.000000	511649.000000	1772919053.118987
-3282.570000	22686.660000	-19881.270000	-14795.550000	0.000000	0.000000	0.000000	0.000000	-83.658998	-50.957102	-72.209438	-130.816558	-0.000000	0.000000	0.000000	-0.000000	-50.953140	-47.046580	16.877560	-0.060974	0.882932	0.575255	-1.000000	-1.000000	-1.000000	-1.000000	-1.000000	-1.000000	-1.000000	138.827586	0.000000	-1.000000	-1.000000	511650.000000	1772919053.124152
-3247.380000	22758.615000	-19918.620000	-14700.420000	0.000000	0.000000	0.000000	0.000000	-46.497886	-15.338560	-4.080261	-53.192423	-0.000000	0.000000	0.000000	-0.000000	-50.953140	-47.046580	16.877560	-0.060974	0.882932	0.575255	-1.000000	-1.000000	-1.000000	-1.000000	-1.000000	-1.000000	-1.000000	138.827586	0.000000	-1.000000	-1.000000	511651.000000	1772919053.124156
-3241.890000	22842.945000	-19918.620000	-14727.870000	0.000000	0.000000	0.000000	0.000000	23.092041	22.235443	77.429859	58.192410	-0.000000	0.000000	0.000000	-0.000000	-50.953140	-47.046580	16.877560	-0.060974	0.882932	0.575255	-1.000000	-1.000000	-1.000000	-1.000000	-1.000000	-1.000000	-1.000000	138.827586	0.000000	-1.000000	-1.000000	511652.000000	1772919053.127017
-3181.140000	22884.210000	-19857.015000	-14713.065000	0.000000	0.000000	0.000000	0.000000	83.904431	46.753608	126.427633	136.831178	-0.000000	0.000000	0.000000	-0.000000	-50.953140	-47.046580	16.877560	-0.060974	0.882932	0.575255	-1.000000	-1.000000	-1.000000	-1.000000	-1.000000	-1.000000	-1.000000	138.827586	0.000000	-1.000000	-1.000000	511653.000000	1772919053.127019
-3306.195000	22819.050000	-19984.365000	-14841.585000	0.000000	0.000000	0.000000	0.000000	101.460117	47.177676	121.510136	138.213242	-0.000000	0.000000	0.000000	-0.000000	-50.953140	-47.046580	16.877560	-0.060974	0.882932	0.575255	-1.000000	-1.000000	-1.000000	-1.000000	-1.000000	-1.000000	-1.000000	138.827586	0.000000	-1.000000	-1.000000	511654.000000	1772919053.131051
-3453.300000	22739.310000	-20156.715000	-15040.485000	0.000000	0.000000	0.000000	0.000000	65.017743	18.605784	66.007589	64.607831	-0.000000	0.000000	0.000000	-0.000000	-50.953140	-47.046580	16.877560	-0.060974	0.882932	0.575255	-1.000000	-1.000000	-1.000000	-1.000000	-1.000000	-1.000000	-1.000000	138.827586	0.000000	-1.000000	-1.000000	511655.000000	1772919053.131054
-3285.000000	22779.270000	-20023.335000	-15008.445000	0.000000	0.000000	0.000000	0.000000	-4.971339	-27.853774	-15.182056	-42.238821	-0.000000	0.000000	0.000000	-0.000000	-50.953140	-47.046580	16.877560	-0.060974	0.882932	0.575255	-1.000000	-1.000000	-1.000000	-1.000000	-1.000000	-1.000000	-1.000000	138.827586	0.000000	-1.000000	-1.000000	511656.000000	1772919053.135046
-3290.400000	22905.720000	-19964.835000	-14963.580000	0.000000	0.000000	0.000000	0.000000	-60.395865	-61.646736	-74.669337	-119.083843	-0.000000	0.000000	0.000000	-0.000000	-50.953140	-47.046580	16.877560	-0.060974	0.882932	0.575255	-1.000000	-1.000000	-1.000000	-1.000000	-1.000000	-1.000000	-1.000000	138.827586	0.000000	-1.000000	-1.000000	511657.000000	1772919053.135050
-3294.270000	22937.445000	-19852.920000	-14917.995000	0.000000	0.000000	0.000000	0.000000	-67.526149	-55.560706	-75.876064	-120.317292	-0.000000	0.000000	0.000000	-0.000000	-50.953140	-47.046580	16.877560	-0.060974	0.882932	0.575255	-1.000000	-1.000000	-1.000000	-1.000000	-1.000000	-1.000000	-1.000000	138.827586	0.000000	-1.000000	-1.000000	511658.000000	1772919053.139089
-3054.240000	22826.430000	-19508.265000	-14657.715000	0.000000	0.000000	0.000000	0.000000	-32.448711	-16.875333	-21.783257	-48.746618	-0.000000	0.000000	0.000000	-0.000000	-50.953140	-47.046580	16.877560	-0.060974	0.882932	0.575255	-1.000000	-1.000000	-1.000000	-1.000000	-1.000000	-1.000000	-1.000000	138.827586	0.000000	-1.000000	-1.000000	511659.000000	1772919053.139092
-2955.195000	22795.515000	-19453.905000	-14628.330000	0.000000	0.000000	0.000000	0.000000	22.156605	18.174392	54.984485	54.052379	-0.000000	0.000000	0.000000	-0.000000	-58.689960	-39.294500	41.156220	-0.055420	0.971921	0.575194	-1.000000	-1.000000	-1.000000	-1.000000	-1.000000	-1.000000	-1.000000	138.827586	0.000000	-1.000000	-1.000000	511660.000000	1772919053.143048
-3022.695000	22752.270000	-19736.145000	-14801.130000	0.000000	0.000000	0.000000	0.000000	67.244477	24.558071	99.775047	126.633036	-0.000000	0.000000	0.000000	-0.000000	-58.689960	-39.294500	41.156220	-0.055420	0.971921	0.575194	-1.000000	-1.000000	-1.000000	-1.000000	-1.000000	-1.000000	-1.000000	138.827586	0.000000	-1.000000	-1.000000	511661.000000	1772919053.143051
-3205.890000	22759.785000	-20094.120000	-14961.420000	0.000000	0.000000	0.000000	0.000000	66.869504	9.094096	57.053140	116.110378	-0.000000	0.000000	0.000000	-0.000000	-58.689960	-39.294500	41.156220	-0.055420	0.971921	0.575194	-1.000000	-1.000000	-1.000000	-1.000000	-1.000000	-1.000000	-1.000000	138.827586	0.000000	-1.000000	-1.000000	511662.000000	1772919053.147029
-3381.480000	22723.830000	-20310.165000	-15104.430000	0.000000	0.000000	0.000000	0.000000	5.776745	-6.466664	-71.953448	22.583190	-0.000000	0.000000	0.000000	-0.000000	-58.689960	-39.294500	41.156220	-0.055420	0.971921	0.575194	-1.000000	-1.000000	-1.000000	-1.000000	-1.000000	-1.000000	-1.000000	138.827586	0.000000	-1.000000	-1.000000	511663.000000	1772919053.147032
-3378.015000	22636.845000	-20346.705000	-15096.960000	0.000000	0.000000	0.000000	0.000000	-84.276213	-9.959410	-206.438504	-92.814490	-0.000000	0.000000	0.000000	-0.000000	-58.689960	-39.294500	41.156220	-0.055420	0.971921	0.575194	-1.000000	-1.000000	-1.000000	-1.000000	-1.000000	-1.000000	-1.000000	138.827586	0.000000	-1.000000	-1.000000	511664.000000	1772919053.151056
-3274.380000	22616.955000	-20150.325000	-14971.905000	0.000000	0.000000	0.000000	0.000000	-138.819201	-4.609901	-241.969831	-151.793854	-0.000000	0.000000	0.000000	-0.000000	-58.689960	-39.294500	41.156220	-0.055420	0.971921	0.575194	-1.000000	-1.000000	-1.000000	-1.000000	-1.000000	-1.000000	-1.000000	138.827586	0.000000	-1.000000	-1.000000	511665.000000	1772919053.151058
-3132.675000	22659.975000	-20038.815000	-14872.050000	0.000000	0.000000	0.000000	0.000000	-110.304280	4.634018	-133.715086	-114.256026	-0.000000	0.000000	0.000000	-0.000000	-58.689960	-39.294500	41.156220	-0.055420	0.971921	0.575194	-1.000000	-1.000000	-1.000000	-1.000000	-1.000000	-1.000000	-1.000000	138.827586	0.000000	-1.000000	-1.000000	511666.000000	1772919053.155101
-3043.485000	22701.600000	-19884.735000	-14693.805000	0.000000	0.000000	0.000000	0.000000	-8.818200	19.030660	65.687492	-3.796695	-0.000000	0.000000	0.000000	-0.000000	-58.689960	-39.294500	41.156220	-0.055420	0.971921	0.575194	-1.000000	-1.000000	-1.000000	-1.000000	-1.000000	-1.000000	-1.000000	138.827586	0.000000	-1.000000	-1.000000	511667.000000	1772919053.155103
-3117.915000	22785.210000	-19874.520000	-14702.805000	0.000000	0.000000	0.000000	0.000000	102.722261	38.164854	244.418811	112.522463	-0.000000	0.000000	0.000000	-0.000000	-58.689960	-39.294500	41.156220	-0.055420	0.971921	0.575194	-1.000000	-1.000000	-1.000000	-1.000000	-1.000000	-1.000000	-1.000000	138.827586	0.000000	-1.000000	-1.000000	511668.000000	1772919053.159055
-3311.055000	22837.905000	-20058.525000	-14915.295000	0.000000	0.000000	0.000000	0.000000	151.201880	54.424660	304.654488	163.530966	-0.000000	0.000000	0.000000	-0.000000	-58.689960	-39.294500	41.156220	-0.055420	0.971921	0.575194	-1.000000	-1.000000	-1.000000	-1.000000	-1.000000	-1.000000	-1.000000	138.827586	0.000000	-1.000000	-1.000000	511669.000000	1772919053.159058
-3367.080000	22855.275000	-20142.000000	-15010.380000	0.000000	0.000000	0.000000	0.000000	105.898597	56.420690	216.593853	114.083621	-0.000000	0.000000	0.000000	-0.000000	5.463080	-60.521160	71.004780	-0.065430	0.964597	0.642882	-1.000000	-1.000000	-1.000000	-1.000000	-1.000000	-1.000000	-1.000000	138.827586	0.000000	-1.000000	-1.000000	511670.000000	1772919053.163184
-3357.495000	22848.435000	-20092.050000	-14991.030000	0.000000	0.000000	0.000000	0.000000	4.110776	36.137693	36.918664	-3.557416	-0.000000	0.000000	0.000000	-0.000000	5.463080	-60.521160	71.004780	-0.065430	0.964597	0.642882	-1.000000	-1.000000	-1.000000	-1.000000	-1.000000	-1.000000	-1.000000	138.827586	0.000000	-1.000000	-1.000000	511671.000000	1772919053.163187
-3354.030000	22827.285000	-20164.455000	-15044.715000	0.000000	0.000000	0.000000	0.000000	-81.217744	-3.630929	-129.797483	-110.470413	-0.000000	0.000000	0.000000	-0.000000	5.463080	-60.521160	71.004780	-0.065430	0.964597	0.642882	-1.000000	-1.000000	-1.000000	-1.000000	-1.000000	-1.000000	-1.000000	138.827586	0.000000	-1.000000	-1.000000	511672.000000	1772919053.168510
-3313.620000	22847.760000	-20134.440000	-15018.930000	0.000000	0.000000	0.000000	0.000000	-101.537081	-47.528088	-206.809807	-146.164977	-0.000000	0.000000	0.000000	-0.000000	5.463080	-60.521160	71.004780	-0.065430	0.964597	0.642882	-1.000000	-1.000000	-1.000000	-1.000000	-1.000000	-1.000000	-1.000000	138.827586	0.000000	-1.000000	-1.000000	511673.000000	1772919053.168514
-3169.395000	22885.605000	-20020.050000	-14854.770000	0.000000	0.000000	0.000000	0.000000	-56.949601	-74.634342	-180.232053	-101.633637	-0.000000	0.000000	0.000000	-0.000000	5.463080	-60.521160	71.004780	-0.065430	0.964597	0.642882	-1.000000	-1.000000	-1.000000	-1.000000	-1.000000	-1.000000	-1.000000	138.827586	0.000000	-1.000000	-1.000000	511674.000000	1772919053.171208
-3111.255000	22924.395000	-19996.110000	-14758.605000	0.000000	0.000000	0.000000	0.000000	19.631839	-71.380404	-83.367717	-6.193949	-0.000000	0.000000	0.000000	-0.000000	5.463080	-60.521160	71.004780	-0.065430	0.964597	0.642882	-1.000000	-1.000000	-1.000000	-1.000000	-1.000000	-1.000000	-1.000000	138.827586	0.000000	-1.000000	-1.000000	511675.000000	1772919053.171211
-3091.365000	22983.210000	-19969.290000	-14850.000000	0.000000	0.000000	0.000000	0.000000	83.580264	-40.614225	26.704745	87.837313	-0.000000	0.000000	0.000000	-0.000000	5.463080	-60.521160	71.004780	-0.065430	0.964597	0.642882	-1.000000	-1.000000	-1.000000	-1.000000	-1.000000	-1.000000	-1.000000	138.827586	0.000000	-1.000000	-1.000000	511676.000000	1772919053.176890
-2994.705000	22998.780000	-19828.800000	-14780.700000	0.000000	0.000000	0.000000	0.000000	101.232314	0.969826	99.383531	127.869916	-0.000000	0.000000	0.000000	-0.000000	5.463080	-60.521160	71.004780	-0.065430	0.964597	0.642882	-1.000000	-1.000000	-1.000000	-1.000000	-1.000000	-1.000000	-1.000000	138.827586	0.000000	-1.000000	-1.000000	511677.000000	1772919053.176893
-3040.920000	23040.180000	-19860.075000	-14749.065000	0.000000	0.000000	0.000000	0.000000	68.544646	33.305552	115.666641	99.489617	-0.000000	0.000000	0.000000	-0.000000	5.463080	-60.521160	71.004780	-0.065430	0.964597	0.642882	-1.000000	-1.000000	-1.000000	-1.000000	-1.000000	-1.000000	-1.000000	138.827586	0.000000	-1.000000	-1.000000	511678.000000	1772919053.179913
-3188.970000	23038.560000	-20049.255000	-14938.515000	0.000000	0.000000	0.000000	0.000000	2.787316	43.939690	78.932722	28.682151	-0.000000	0.000000	0.000000	-0.000000	5.463080	-60.521160	71.004780	-0.065430	0.964597	0.642882	-1.000000	-1.000000	-1.000000	-1.000000	-1.000000	-1.000000	-1.000000	138.827586	0.000000	-1.000000	-1.000000	511679.000000	1772919053.179916
-3488.895000	22933.755000	-20353.140000	-15271.110000	0.000000	0.000000	0.000000	0.000000	-76.632588	30.595621	-1.392687	-56.321898	-0.000000	0.000000	0.000000	-0.000000	99.434160	-67.647580	93.024960	-0.058349	0.863096	0.670897	-1.000000	-1.000000	-1.000000	-1.000000	-1.000000	-1.000000	-1.000000	138.689655	0.000000	-1.000000	-1.000000	511680.000000	1772919053.183172
-3331.890000	22870.845000	-20189.790000	-15126.165000	0.000000	0.000000	0.000000	0.000000	-142.632484	-1.719992	-94.796240	-130.045687	-0.000000	0.000000	0.000000	-0.000000	99.434160	-67.647580	93.024960	-0.058349	0.863096	0.670897	-1.000000	-1.000000	-1.000000	-1.000000	-1.000000	-1.000000	-1.000000	138.689655	0.000000	-1.000000	-1.000000	511681.000000	1772919053.183174
-3337.920000	22804.245000	-20195.955000	-15111.405000	0.000000	0.000000	0.000000	0.000000	-152.970406	-38.806835	-142.150349	-150.592221	-0.000000	0.000000	0.000000	-0.000000	99.434160	-67.647580	93.024960	-0.058349	0.863096	0.670897	-1.000000	-1.000000	-1.000000	-1.000000	-1.000000	-1.000000	-1.000000	138.689655	0.000000	-1.000000	-1.000000	511682.000000	1772919053.189375
-3330.090000	22755.015000	-20099.790000	-14934.870000	0.000000	0.000000	0.000000	0.000000	-87.182377	-60.523618	-103.987371	-89.143620	-0.000000	0.000000	0.000000	-0.000000	99.434160	-67.647580	93.024960	-0.058349	0.863096	0.670897	-1.000000	-1.000000	-1.000000	-1.000000	-1.000000	-1.000000	-1.000000	138.689655	0.000000	-1.000000	-1.000000	511683.000000	1772919053.189377
-3086.190000	22837.410000	-19864.620000	-14661.000000	0.000000	0.000000	0.000000	0.000000	25.284874	-51.895231	0.694516	33.427575	-0.000000	0.000000	0.000000	-0.000000	99.434160	-67.647580	93.024960	-0.058349	0.863096	0.670897	-1.000000	-1.000000	-1.000000	-1.000000	-1.000000	-1.000000	-1.000000	138.689655	0.000000	-1.000000	-1.000000	511684.000000	1772919053.192486
-3050.730000	22906.305000	-19906.380000	-14680.080000	0.000000	0.000000	0.000000	0.000000	132.915476	-10.457576	114.360396	156.970494	-0.000000	0.000000	0.000000	-0.000000	99.434160	-67.647580	93.024960	-0.058349	0.863096	0.670897	-1.000000	-1.000000	-1.000000	-1.000000	-1.000000	-1.000000	-1.000000	138.689655	0.000000	-1.000000	-1.000000	511685.000000	1772919053.192489
-3164.040000	22817.655000	-20066.085000	-14793.750000	0.000000	0.000000	0.000000	0.000000	186.328723	45.993923	170.677868	209.709424	-0.000000	0.000000	0.000000	-0.000000	99.434160	-67.647580	93.024960	-0.058349	0.863096	0.670897	-1.000000	-1.000000	-1.000000	-1.000000	-1.000000	-1.000000	-1.000000	138.689655	0.000000	-1.000000	-1.000000	511686.000000	1772919053.195135
-3220.830000	22733.505000	-20239.065000	-14913.630000	0.000000	0.000000	0.000000	0.000000	153.516443	81.639388	128.611240	150.671836	-0.000000	0.000000	0.000000	-0.000000	99.434160	-67.647580	93.024960	-0.058349	0.863096	0.670897	-1.000000	-1.000000	-1.000000	-1.000000	-1.000000	-1.000000	-1.000000	138.689655	0.000000	-1.000000	-1.000000	511687.000000	1772919053.195138
-3271.815000	22619.610000	-20263.095000	-14916.195000	0.000000	0.000000	0.000000	0.000000	48.832133	70.334201	10.280324	9.531750	-0.000000	0.000000	0.000000	-0.000000	99.434160	-67.647580	93.024960	-0.058349	0.863096	0.670897	-1.000000	-1.000000	-1.000000	-1.000000	-1.000000	-1.000000	-1.000000	138.689655	0.000000	-1.000000	-1.000000	511688.000000	1772919053.199169
-3317.805000	22344.705000	-20236.500000	-14899.950000	0.000000	0.000000	0.000000	0.000000	-69.968506	16.108386	-107.721597	-129.667561	-0.000000	0.000000	0.000000	-0.000000	99.434160	-67.647580	93.024960	-0.058349	0.863096	0.670897	-1.000000	-1.000000	-1.000000	-1.000000	-1.000000	-1.000000	-1.000000	138.689655	0.000000	-1.000000	-1.000000	511689.000000	1772919053.199171
-3349.575000	22217.670000	-20228.130000	-14980.365000	0.000000	0.000000	0.000000	0.000000	-144.050242	-54.305587	-153.628836	-193.275349	-0.000000	0.000000	0.000000	-0.000000	-18.388300	-64.839740	92.857100	-0.000549	0.829160	0.619200	-1.000000	-1.000000	-1.000000	-1.000000	-1.000000	-1.000000	-1.000000	138.689655	0.000000	-1.000000	-1.000000	511690.000000	1772919053.203272
-3270.330000	22281.480000	-19999.980000	-14889.870000	0.000000	0.000000	0.000000	0.000000	-145.870261	-100.418361	-108.080729	-164.136937	-0.000000	0.000000	0.000000	-0.000000	-18.388300	-64.839740	92.857100	-0.000549	0.829160	0.619200	-1.000000	-1.000000	-1.000000	-1.000000	-1.000000	-1.000000	-1.000000	138.689655	0.000000	-1.000000	-1.000000	511691.000000	1772919053.203275
-3125.430000	22370.670000	-19684.260000	-14674.050000	0.000000	0.000000	0.000000	0.000000	-81.751481	-83.801931	1.394668	-68.983256	-0.000000	0.000000	0.000000	-0.000000	-18.388300	-64.839740	92.857100	-0.000549	0.829160	0.619200	-1.000000	-1.000000	-1.000000	-1.000000	-1.000000	-1.000000	-1.000000	138.689655	0.000000	-1.000000	-1.000000	511692.000000	1772919053.207216
-3180.285000	22497.930000	-19787.580000	-14617.935000	0.000000	0.000000	0.000000	0.000000	14.113541	-1.283377	118.449815	49.398468	-0.000000	0.000000	0.000000	-0.000000	-18.388300	-64.839740	92.857100	-0.000549	0.829160	0.619200	-1.000000	-1.000000	-1.000000	-1.000000	-1.000000	-1.000000	-1.000000	138.689655	0.000000	-1.000000	-1.000000	511693.000000	1772919053.207219
-3315.870000	22358.295000	-20096.460000	-14713.830000	0.000000	0.000000	0.000000	0.000000	87.592858	100.182769	166.445639	137.190212	-0.000000	0.000000	0.000000	-0.000000	-18.388300	-64.839740	92.857100	-0.000549	0.829160	0.619200	-1.000000	-1.000000	-1.000000	-1.000000	-1.000000	-1.000000	-1.000000	138.689655	0.000000	-1.000000	-1.000000	511694.000000	1772919053.211186
-3357.090000	22256.145000	-20075.940000	-14784.300000	0.000000	0.000000	0.000000	0.000000	96.563476	151.458815	99.621057	147.351195	-0.000000	0.000000	0.000000	-0.000000	-18.388300	-64.839740	92.857100	-0.000549	0.829160	0.619200	-1.000000	-1.000000	-1.000000	-1.000000	-1.000000	-1.000000	-1.000000	138.689655	0.000000	-1.000000	-1.000000	511695.000000	1772919053.211190
-3550.815000	22285.935000	-20277.090000	-15031.620000	0.000000	0.000000	0.000000	0.000000	44.080770	118.187054	-40.946932	73.900222	-0.000000	0.000000	0.000000	-0.000000	-18.388300	-64.839740	92.857100	-0.000549	0.829160	0.619200	-1.000000	-1.000000	-1.000000	-1.000000	-1.000000	-1.000000	-1.000000	138.689655	0.000000	-1.000000	-1.000000	511696.000000	1772919053.215324
-3612.555000	22247.685000	-20377.440000	-15109.965000	0.000000	0.000000	0.000000	0.000000	-30.686885	30.037057	-164.095391	-41.904377	-0.000000	0.000000	0.000000	-0.000000	-18.388300	-64.839740	92.857100	-0.000549	0.829160	0.619200	-1.000000	-1.000000	-1.000000	-1.000000	-1.000000	-1.000000	-1.000000	138.689655	0.000000	-1.000000	-1.000000	511697.000000	1772919053.215327
-3608.595000	22124.475000	-20361.510000	-15059.160000	0.000000	0.000000	0.000000	0.000000	-81.318640	-56.826094	-203.155713	-133.209087	-0.000000	0.000000	0.000000	-0.000000	-18.388300	-64.839740	92.857100	-0.000549	0.829160	0.619200	-1.000000	-1.000000	-1.000000	-1.000000	-1.000000	-1.000000	-1.000000	138.689655	0.000000	-1.000000	-1.000000	511698.000000	1772919053.219061
-3533.940000	22102.020000	-20290.590000	-14944.005000	0.000000	0.000000	0.000000	0.000000	-76.207565	-107.042398	-142.009096	-142.847857	-0.000000	0.000000	0.000000	-0.000000	-18.388300	-64.839740	92.857100	-0.000549	0.829160	0.619200	-1.000000	-1.000000	-1.000000	-1.000000	-1.000000	-1.000000	-1.000000	138.689655	0.000000	-1.000000	-1.000000	511699.000000	1772919053.219064
-3442.815000	22173.615000	-20075.715000	-14762.745000	0.000000	0.000000	0.000000	0.000000	-15.959799	-109.198675	-9.759069	-61.312707	-0.000000	0.000000	0.000000	-0.000000	-51.090480	-62.306580	59.910760	0.063293	0.889524	0.621886	-1.000000	-1.000000	-1.000000	-1.000000	-1.000000	-1.000000	-1.000000	138.689655	0.000000	-1.000000	-1.000000	511700.000000	1772919053.223421
-3344.355000	22265.820000	-19909.530000	-14634.900000	0.000000	0.000000	0.000000	0.000000	66.491402	-65.099870	136.393447	65.858002	-0.000000	0.000000	0.000000	-0.000000	-51.090480	-62.306580	59.910760	0.063293	0.889524	0.621886	-1.000000	-1.000000	-1.000000	-1.000000	-1.000000	-1.000000	-1.000000	138.689655	0.000000	-1.000000	-1.000000	511701.000000	1772919053.223423
-3268.170000	22305.105000	-19892.970000	-14663.025000	0.000000	0.000000	0.000000	0.000000	126.861000	6.172858	232.602251	165.777156	-0.000000	0.000000	0.000000	-0.000000	-51.090480	-62.306580	59.910760	0.063293	0.889524	0.621886	-1.000000	-1.000000	-1.000000	-1.000000	-1.000000	-1.000000	-1.000000	138.689655	0.000000	-1.000000	-1.000000	511702.000000	1772919053.227317
-3413.115000	22316.715000	-20069.550000	-14791.905000	0.000000	0.000000	0.000000	0.000000	131.145873	69.013900	228.748811	178.108337	-0.000000	0.000000	0.000000	-0.000000	-51.090480	-62.306580	59.910760	0.063293	0.889524	0.621886	-1.000000	-1.000000	-1.000000	-1.000000	-1.000000	-1.000000	-1.000000	138.689655	0.000000	-1.000000	-1.000000	511703.000000	1772919053.227320
-3632.940000	22294.035000	-20291.580000	-14962.770000	0.000000	0.000000	0.000000	0.000000	66.545967	90.930334	114.416889	90.314584	-0.000000	0.000000	0.000000	-0.000000	-51.090480	-62.306580	59.910760	0.063293	0.889524	0.621886	-1.000000	-1.000000	-1.000000	-1.000000	-1.000000	-1.000000	-1.000000	138.689655	0.000000	-1.000000	-1.000000	511704.000000	1772919053.231227
-3676.815000	22188.825000	-20442.690000	-15113.880000	0.000000	0.000000	0.000000	0.000000	-45.318827	62.089692	-63.039328	-52.796100	-0.000000	0.000000	0.000000	-0.000000	-51.090480	-62.306580	59.910760	0.063293	0.889524	0.621886	-1.000000	-1.000000	-1.000000	-1.000000	-1.000000	-1.000000	-1.000000	138.689655	0.000000	-1.000000	-1.000000	511705.000000	1772919053.231230
-3615.390000	22014.630000	-20365.245000	-15067.980000	0.000000	0.000000	0.000000	0.000000	-143.887600	-3.496745	-212.766081	-173.233783	-0.000000	0.000000	0.000000	-0.000000	-51.090480	-62.306580	59.910760	0.063293	0.889524	0.621886	-1.000000	-1.000000	-1.000000	-1.000000	-1.000000	-1.000000	-1.000000	138.689655	0.000000	-1.000000	-1.000000	511706.000000	1772919053.235323
-3337.380000	21904.380000	-20044.080000	-14922.810000	0.000000	0.000000	0.000000	0.000000	-162.815533	-76.754336	-247.138735	-201.740887	-0.000000	0.000000	0.000000	-0.000000	-51.090480	-62.306580	59.910760	0.063293	0.889524	0.621886	-1.000000	-1.000000	-1.000000	-1.000000	-1.000000	-1.000000	-1.000000	138.689655	0.000000	-1.000000	-1.000000	511707.000000	1772919053.235326
-3332.520000	21893.670000	-19964.700000	-14776.560000	0.000000	0.000000	0.000000	0.000000	-84.095070	-121.494888	-141.273506	-119.303766	-0.000000	0.000000	0.000000	-0.000000	-51.090480	-62.306580	59.910760	0.063293	0.889524	0.621886	-1.000000	-1.000000	-1.000000	-1.000000	-1.000000	-1.000000	-1.000000	138.689655	0.000000	-1.000000	-1.000000	511708.000000	1772919053.239438
-3344.985000	21962.250000	-20054.295000	-14647.185000	0.000000	0.000000	0.000000	0.000000	38.011947	-108.574469	34.464144	27.677708	-0.000000	0.000000	0.000000	-0.000000	-51.090480	-62.306580	59.910760	0.063293	0.889524	0.621886	-1.000000	-1.000000	-1.000000	-1.000000	-1.000000	-1.000000	-1.000000	138.689655	0.000000	-1.000000	-1.000000	511709.000000	1772919053.239441
-3341.565000	21892.905000	-20262.195000	-14741.370000	0.000000	0.000000	0.000000	0.000000	120.345435	-38.807008	159.341939	154.512665	-0.000000	0.000000	0.000000	-0.000000	-275.000460	-30.825200	44.147180	0.062805	0.937131	0.514037	-1.000000	-1.000000	-1.000000	-1.000000	-1.000000	-1.000000	-1.000000	138.689655	0.000000	-1.000000	-1.000000	511710.000000	1772919053.243405
-3262.590000	21924.090000	-20110.995000	-14763.420000	0.000000	0.000000	0.000000	0.000000	122.231817	50.343817	163.520440	190.064513	-0.000000	0.000000	0.000000	-0.000000	-275.000460	-30.825200	44.147180	0.062805	0.937131	0.514037	-1.000000	-1.000000	-1.000000	-1.000000	-1.000000	-1.000000	-1.000000	138.689655	0.000000	-1.000000	-1.000000	511711.000000	1772919053.243408
-3412.395000	22017.420000	-20099.655000	-14870.070000	0.000000	0.000000	0.000000	0.000000	61.474579	114.649407	79.455926	121.411652	-0.000000	0.000000	0.000000	-0.000000	-275.000460	-30.825200	44.147180	0.062805	0.937131	0.514037	-1.000000	-1.000000	-1.000000	-1.000000	-1.000000	-1.000000	-1.000000	138.689655	0.000000	-1.000000	-1.000000	511712.000000	1772919053.247411
-3494.115000	22021.380000	-20087.055000	-14876.640000	0.000000	0.000000	0.000000	0.000000	-22.834223	133.601879	-12.891863	-2.619451	-0.000000	0.000000	0.000000	-0.000000	-275.000460	-30.825200	44.147180	0.062805	0.937131	0.514037	-1.000000	-1.000000	-1.000000	-1.000000	-1.000000	-1.000000	-1.000000	138.689655	0.000000	-1.000000	-1.000000	511713.000000	1772919053.247413
-3496.725000	22066.560000	-20145.780000	-14859.225000	0.000000	0.000000	0.000000	0.000000	-93.562735	108.653164	-64.785760	-109.123982	-0.000000	0.000000	0.000000	-0.000000	-275.000460	-30.825200	44.147180	0.062805	0.937131	0.514037	-1.000000	-1.000000	-1.000000	-1.000000	-1.000000	-1.000000	-1.000000	138.689655	0.000000	-1.000000	-1.000000	511714.000000	1772919053.251276
-3472.785000	22092.705000	-20143.395000	-14814.090000	0.000000	0.000000	0.000000	0.000000	-118.873576	53.759189	-73.627594	-145.841834	-0.000000	0.000000	0.000000	-0.000000	-275.000460	-30.825200	44.147180	0.062805	0.937131	0.514037	-1.000000	-1.000000	-1.000000	-1.000000	-1.000000	-1.000000	-1.000000	138.689655	0.000000	-1.000000	-1.000000	511715.000000	1772919053.251278
-3351.600000	22100.310000	-20027.340000	-14802.345000	0.000000	0.000000	0.000000	0.000000	-85.173870	-9.508749	-53.702688	-107.026715	-0.000000	0.000000	0.000000	-0.000000	-275.000460	-30.825200	44.147180	0.062805	0.937131	0.514037	-1.000000	-1.000000	-1.000000	-1.000000	-1.000000	-1.000000	-1.000000	138.689655	0.000000	-1.000000	-1.000000	511716.000000	1772919053.255460
-3160.620000	22129.155000	-19873.170000	-14743.980000	0.000000	0.000000	0.000000	0.000000	-5.926534	-60.597763	-14.494884	-27.110930	-0.000000	0.000000	0.000000	-0.000000	-275.000460	-30.825200	44.147180	0.062805	0.937131	0.514037	-1.000000	-1.000000	-1.000000	-1.000000	-1.000000	-1.000000	-1.000000	138.689655	0.000000	-1.000000	-1.000000	511717.000000	1772919053.255462
-3282.930000	22149.765000	-20005.020000	-14832.765000	0.000000	0.000000	0.000000	0.000000	80.355473	-86.389768	30.295858	46.572828	-0.000000	0.000000	0.000000	-0.000000	-275.000460	-30.825200	44.147180	0.062805	0.937131	0.514037	-1.000000	-1.000000	-1.000000	-1.000000	-1.000000	-1.000000	-1.000000	138.689655	0.000000	-1.000000	-1.000000	511718.000000	1772919053.260178
-3358.170000	22031.370000	-20045.655000	-14816.835000	0.000000	0.000000	0.000000	0.000000	121.315472	-86.291677	51.788083	79.410352	-0.000000	0.000000	0.000000	-0.000000	-275.000460	-30.825200	44.147180	0.062805	0.937131	0.514037	-1.000000	-1.000000	-1.000000	-1.000000	-1.000000	-1.000000	-1.000000	138.689655	0.000000	-1.000000	-1.000000	511719.000000	1772919053.260181
-3371.445000	21954.870000	-20049.930000	-14797.530000	0.000000	0.000000	0.000000	0.000000	89.307370	-72.864456	32.142740	66.906613	-0.000000	0.000000	0.000000	-0.000000	-197.327060	1.068200	-16.480800	0.084778	0.772337	0.447448	-1.000000	-1.000000	-1.000000	-1.000000	-1.000000	-1.000000	-1.000000	138.689655	0.000000	-1.000000	-1.000000	511720.000000	1772919053.263460
-3432.780000	21965.805000	-20131.965000	-14900.400000	0.000000	0.000000	0.000000	0.000000	9.652869	-56.334540	-12.302538	29.580792	-0.000000	0.000000	0.000000	-0.000000	-197.327060	1.068200	-16.480800	0.084778	0.772337	0.447448	-1.000000	-1.000000	-1.000000	-1.000000	-1.000000	-1.000000	-1.000000	138.689655	0.000000	-1.000000	-1.000000	511721.000000	1772919053.263463
-3429.855000	22023.180000	-20185.875000	-14953.185000	0.000000	0.000000	0.000000	0.000000	-65.126051	-31.805305	-51.257357	-11.192929	-0.000000	0.000000	0.000000	-0.000000	-197.327060	1.068200	-16.480800	0.084778	0.772337	0.447448	-1.000000	-1.000000	-1.000000	-1.000000	-1.000000	-1.000000	-1.000000	138.689655	0.000000	-1.000000	-1.000000	511722.000000	1772919053.267550
-3339.990000	22076.235000	-20053.620000	-14884.740000	0.000000	0.000000	0.000000	0.000000	-94.530535	8.245183	-62.150890	-39.755640	-0.000000	0.000000	0.000000	-0.000000	-197.327060	1.068200	-16.480800	0.084778	0.772337	0.447448	-1.000000	-1.000000	-1.000000	-1.000000	-1.000000	-1.000000	-1.000000	138.689655	0.000000	-1.000000	-1.000000	511723.000000	1772919053.267553
-3359.115000	22077.045000	-19994.445000	-14836.500000	0.000000	0.000000	0.000000	0.000000	-68.716661	55.171851	-34.248357	-41.394218	-0.000000	0.000000	0.000000	-0.000000	-197.327060	1.068200	-16.480800	0.084778	0.772337	0.447448	-1.000000	-1.000000	-1.000000	-1.000000	-1.000000	-1.000000	-1.000000	138.689655	0.000000	-1.000000	-1.000000	511724.000000	1772919053.271526
-3389.940000	22081.185000	-19948.680000	-14762.340000	0.000000	0.000000	0.000000	0.000000	-12.141743	86.090644	21.255720	-13.173591	-0.000000	0.000000	0.000000	-0.000000	-197.327060	1.068200	-16.480800	0.084778	0.772337	0.447448	-1.000000	-1.000000	-1.000000	-1.000000	-1.000000	-1.000000	-1.000000	138.689655	0.000000	-1.000000	-1.000000	511725.000000	1772919053.271528
-3363.345000	22100.625000	-19984.365000	-14761.530000	0.000000	0.000000	0.000000	0.000000	36.662220	83.958388	70.458138	27.296504	-0.000000	0.000000	0.000000	-0.000000	-197.327060	1.068200	-16.480800	0.084778	0.772337	0.447448	-1.000000	-1.000000	-1.000000	-1.000000	-1.000000	-1.000000	-1.000000	138.689655	0.000000	-1.000000	-1.000000	511726.000000	1772919053.275456
-3298.230000	22027.320000	-20041.875000	-14820.570000	0.000000	0.000000	0.000000	0.000000	57.095878	50.353023	80.509327	51.858810	-0.000000	0.000000	0.000000	-0.000000	-197.327060	1.068200	-16.480800	0.084778	0.772337	0.447448	-1.000000	-1.000000	-1.000000	-1.000000	-1.000000	-1.000000	-1.000000	138.689655	0.000000	-1.000000	-1.000000	511727.000000	1772919053.275458
-3339.135000	22060.170000	-20049.930000	-14843.925000	0.000000	0.000000	0.000000	0.000000	52.025026	1.247680	45.068279	41.983720	-0.000000	0.000000	0.000000	-0.000000	-197.327060	1.068200	-16.480800	0.084778	0.772337	0.447448	-1.000000	-1.000000	-1.000000	-1.000000	-1.000000	-1.000000	-1.000000	138.689655	0.000000	-1.000000	-1.000000	511728.000000	1772919053.279487
-3428.010000	22085.010000	-20122.110000	-14946.030000	0.000000	0.000000	0.000000	0.000000	29.044577	-40.421330	-12.678349	2.597715	-0.000000	0.000000	0.000000	-0.000000	-197.327060	1.068200	-16.480800	0.084778	0.772337	0.447448	-1.000000	-1.000000	-1.000000	-1.000000	-1.000000	-1.000000	-1.000000	138.689655	0.000000	-1.000000	-1.000000	511729.000000	1772919053.279489
-3416.265000	22007.520000	-20108.475000	-14941.530000	0.000000	0.000000	0.000000	0.000000	-5.147548	-57.619343	-59.794595	-42.858296	-0.000000	0.000000	0.000000	-0.000000	-98.442260	26.781300	-7.233240	0.110962	0.564269	0.459899	-1.000000	-1.000000	-1.000000	-1.000000	-1.000000	-1.000000	-1.000000	138.689655	0.000000	-1.000000	-1.000000	511730.000000	1772919053.285417
-3422.070000	21955.680000	-19992.870000	-14918.670000	0.000000	0.000000	0.000000	0.000000	-35.806864	-52.554043	-71.687850	-67.011950	-0.000000	0.000000	0.000000	-0.000000	-98.442260	26.781300	-7.233240	0.110962	0.564269	0.459899	-1.000000	-1.000000	-1.000000	-1.000000	-1.000000	-1.000000	-1.000000	138.689655	0.000000	-1.000000	-1.000000	511731.000000	1772919053.285420
-3413.070000	21900.375000	-19864.440000	-14885.730000	0.000000	0.000000	0.000000	0.000000	-46.057490	-38.493384	-39.928045	-54.128165	-0.000000	0.000000	0.000000	-0.000000	-98.442260	26.781300	-7.233240	0.110962	0.564269	0.459899	-1.000000	-1.000000	-1.000000	-1.000000	-1.000000	-1.000000	-1.000000	138.689655	0.000000	-1.000000	-1.000000	511732.000000	1772919053.288915
-3273.570000	21952.485000	-19687.905000	-14758.245000	0.000000	0.000000	0.000000	0.000000	-29.708686	-21.733560	21.907604	-9.656619	-0.000000	0.000000	0.000000	-0.000000	-98.442260	26.781300	-7.233240	0.110962	0.564269	0.459899	-1.000000	-1.000000	-1.000000	-1.000000	-1.000000	-1.000000	-1.000000	138.689655	0.000000	-1.000000	-1.000000	511733.000000	1772919053.288917
-3145.590000	22059.360000	-19643.400000	-14678.325000	0.000000	0.000000	0.000000	0.000000	8.416674	2.277462	81.129006	45.473073	-0.000000	0.000000	0.000000	-0.000000	-98.442260	26.781300	-7.233240	0.110962	0.564269	0.459899	-1.000000	-1.000000	-1.000000	-1.000000	-1.000000	-1.000000	-1.000000	138.689655	0.000000	-1.000000	-1.000000	511734.000000	1772919053.295755
-3161.115000	22000.995000	-19942.245000	-14734.890000	0.000000	0.000000	0.000000	0.000000	50.868257	34.316177	95.953124	83.314357	-0.000000	0.000000	0.000000	-0.000000	-98.442260	26.781300	-7.233240	0.110962	0.564269	0.459899	-1.000000	-1.000000	-1.000000	-1.000000	-1.000000	-1.000000	-1.000000	138.689655	0.000000	-1.000000	-1.000000	511735.000000	1772919053.295758
-3240.315000	21901.095000	-20054.970000	-14696.640000	0.000000	0.000000	0.000000	0.000000	67.753826	56.554665	38.834084	80.159889	-0.000000	0.000000	0.000000	-0.000000	-98.442260	26.781300	-7.233240	0.110962	0.564269	0.459899	-1.000000	-1.000000	-1.000000	-1.000000	-1.000000	-1.000000	-1.000000	138.689655	0.000000	-1.000000	-1.000000	511736.000000	1772919053.295761
-3185.370000	21873.015000	-20020.680000	-14700.825000	0.000000	0.000000	0.000000	0.000000	40.896085	47.841316	-64.576164	36.443343	-0.000000	0.000000	0.000000	-0.000000	-98.442260	26.781300	-7.233240	0.110962	0.564269	0.459899	-1.000000	-1.000000	-1.000000	-1.000000	-1.000000	-1.000000	-1.000000	138.689655	0.000000	-1.000000	-1.000000	511737.000000	1772919053.295763
-3291.750000	21829.590000	-20153.880000	-14960.385000	0.000000	0.000000	0.000000	0.000000	-14.760857	11.659950	-143.659817	-26.599883	-0.000000	0.000000	0.000000	-0.000000	-98.442260	26.781300	-7.233240	0.110962	0.564269	0.459899	-1.000000	-1.000000	-1.000000	-1.000000	-1.000000	-1.000000	-1.000000	138.689655	0.000000	-1.000000	-1.000000	511738.000000	1772919053.299545
-3396.690000	21794.445000	-20163.240000	-15022.845000	0.000000	0.000000	0.000000	0.000000	-68.694356	-26.980670	-148.873475	-88.057711	-0.000000	0.000000	0.000000	-0.000000	-98.442260	26.781300	-7.233240	0.110962	0.564269	0.459899	-1.000000	-1.000000	-1.000000	-1.000000	-1.000000	-1.000000	-1.000000	138.689655	0.000000	-1.000000	-1.000000	511739.000000	1772919053.299548
-3446.505000	21810.060000	-20083.905000	-14924.880000	0.000000	0.000000	0.000000	0.000000	-98.899817	-45.134232	-82.723292	-122.612551	-0.000000	0.000000	0.000000	-0.000000	-5.630940	31.313520	28.948220	0.117065	0.528746	0.553771	-1.000000	-1.000000	-1.000000	-1.000000	-1.000000	-1.000000	-1.000000	138.689655	0.000000	-1.000000	-1.000000	511740.000000	1772919053.303485
-3363.885000	21872.340000	-20004.570000	-14862.870000	0.000000	0.000000	0.000000	0.000000	-91.714869	-33.976883	21.452464	-100.857976	-0.000000	0.000000	0.000000	-0.000000	-5.630940	31.313520	28.948220	0.117065	0.528746	0.553771	-1.000000	-1.000000	-1.000000	-1.000000	-1.000000	-1.000000	-1.000000	138.689655	0.000000	-1.000000	-1.000000	511741.000000	1772919053.303488
-3153.510000	21943.440000	-19804.005000	-14696.145000	0.000000	0.000000	0.000000	0.000000	-39.797026	0.650747	121.810336	-20.703090	-0.000000	0.000000	0.000000	-0.000000	-5.630940	31.313520	28.948220	0.117065	0.528746	0.553771	-1.000000	-1.000000	-1.000000	-1.000000	-1.000000	-1.000000	-1.000000	138.689655	0.000000	-1.000000	-1.000000	511742.000000	1772919053.307428
-3189.510000	22056.885000	-19763.595000	-14668.380000	0.000000	0.000000	0.000000	0.000000	43.328463	42.047584	181.674677	79.959442	-0.000000	0.000000	0.000000	-0.000000	-5.630940	31.313520	28.948220	0.117065	0.528746	0.553771	-1.000000	-1.000000	-1.000000	-1.000000	-1.000000	-1.000000	-1.000000	138.689655	0.000000	-1.000000	-1.000000	511743.000000	1772919053.307431
-3310.290000	22038.750000	-19905.570000	-14815.980000	0.000000	0.000000	0.000000	0.000000	111.806358	69.163792	174.273962	143.564658	-0.000000	0.000000	0.000000	-0.000000	-5.630940	31.313520	28.948220	0.117065	0.528746	0.553771	-1.000000	-1.000000	-1.000000	-1.000000	-1.000000	-1.000000	-1.000000	138.689655	0.000000	-1.000000	-1.000000	511744.000000	1772919053.311472
