Channel1	Channel2	Channel3	Channel4	Channel5	Channel6	Channel7	Channel8	FilteredChannel1	FilteredChannel2	FilteredChannel3	FilteredChannel4	FilteredChannel5	FilteredChannel6	FilteredChannel7	FilteredChannel8	GyroX	GyroY	GyroZ	AccX	AccY	AccZ	PPG1	PPG2	rawPPG1	rawPPG2	rawPPG3	Hr	Hrv	Battery	Trigger	PhysicalTrigger	AutoTrigger	NumMeasurements	Timestamp
-2560.995000	21092.400000	-19670.445000	-14462.865000	0.000000	0.000000	0.000000	0.000000	-87.435843	67.846148	-125.449555	-139.298985	-0.000000	0.000000	0.000000	-0.000000	4.959500	0.244160	-0.579880	-0.040710	0.790830	0.606566	-1.000000	-1.000000	-1.000000	-1.000000	-1.000000	-1.000000	-1.000000	138.482759	0.000000	-1.000000	-1.000000	534221.000000	1772919098.393071
-2494.665000	21113.595000	-19569.915000	-14356.260000	0.000000	0.000000	0.000000	0.000000	-47.447376	30.360898	-64.883287	-77.094676	-0.000000	0.000000	0.000000	-0.000000	4.959500	0.244160	-0.579880	-0.040710	0.790830	0.606566	-1.000000	-1.000000	-1.000000	-1.000000	-1.000000	-1.000000	-1.000000	138.482759	0.000000	-1.000000	-1.000000	534222.000000	1772919098.395630
-2417.670000	21097.305000	-19460.430000	-14230.440000	0.000000	0.000000	0.000000	0.000000	17.236454	-11.596864	29.808729	25.769136	-0.000000	0.000000	0.000000	-0.000000	4.959500	0.244160	-0.579880	-0.040710	0.790830	0.606566	-1.000000	-1.000000	-1.000000	-1.000000	-1.000000	-1.000000	-1.000000	138.482759	0.000000	-1.000000	-1.000000	534223.000000	1772919098.395632
-2426.175000	21043.215000	-19482.795000	-14246.730000	0.000000	0.000000	0.000000	0.000000	73.423178	-46.116063	109.143679	115.515689	-0.000000	0.000000	0.000000	-0.000000	4.883200	0.076300	-0.701960	-0.040161	0.792356	0.607237	-1.000000	-1.000000	-1.000000	-1.000000	-1.000000	-1.000000	-1.000000	138.482759	0.000000	-1.000000	-1.000000	534224.000000	1772919098.399637
-2474.415000	21097.755000	-19549.890000	-14319.045000	0.000000	0.000000	0.000000	0.000000	91.812494	-66.364467	131.177302	144.715313	-0.000000	0.000000	0.000000	-0.000000	4.883200	0.076300	-0.701960	-0.040161	0.792356	0.607237	-1.000000	-1.000000	-1.000000	-1.000000	-1.000000	-1.000000	-1.000000	138.482759	0.000000	-1.000000	-1.000000	534225.000000	1772919098.399641
-2545.920000	21161.700000	-19654.470000	-14430.645000	0.000000	0.000000	0.000000	0.000000	61.973283	-64.779597	83.413394	96.869025	-0.000000	0.000000	0.000000	-0.000000	4.883200	0.076300	-0.701960	-0.040161	0.792356	0.607237	-1.000000	-1.000000	-1.000000	-1.000000	-1.000000	-1.000000	-1.000000	138.482759	0.000000	-1.000000	-1.000000	534226.000000	1772919098.403654
-2633.130000	21199.545000	-19781.460000	-14573.970000	0.000000	0.000000	0.000000	0.000000	-0.525057	-38.508219	-8.797586	-2.746974	-0.000000	0.000000	0.000000	-0.000000	4.883200	0.076300	-0.701960	-0.040161	0.792356	0.607237	-1.000000	-1.000000	-1.000000	-1.000000	-1.000000	-1.000000	-1.000000	138.482759	0.000000	-1.000000	-1.000000	534227.000000	1772919098.403657
-2621.385000	21191.130000	-19759.320000	-14556.195000	0.000000	0.000000	0.000000	0.000000	-62.144219	-0.041405	-96.077589	-100.746906	-0.000000	0.000000	0.000000	-0.000000	4.883200	0.076300	-0.701960	-0.040161	0.792356	0.607237	-1.000000	-1.000000	-1.000000	-1.000000	-1.000000	-1.000000	-1.000000	138.482759	0.000000	-1.000000	-1.000000	534228.000000	1772919098.410174
-2564.775000	21081.060000	-19683.135000	-14475.780000	0.000000	0.000000	0.000000	0.000000	-88.496756	26.694574	-129.956244	-142.715689	-0.000000	0.000000	0.000000	-0.000000	4.883200	0.076300	-0.701960	-0.040161	0.792356	0.607237	-1.000000	-1.000000	-1.000000	-1.000000	-1.000000	-1.000000	-1.000000	138.482759	0.000000	-1.000000	-1.000000	534229.000000	1772919098.410177
-2519.640000	21089.025000	-19609.920000	-14398.830000	0.000000	0.000000	0.000000	0.000000	-64.498896	25.274198	-90.877570	-104.588411	-0.000000	0.000000	0.000000	-0.000000	4.883200	0.076300	-0.701960	-0.040161	0.792356	0.607237	-1.000000	-1.000000	-1.000000	-1.000000	-1.000000	-1.000000	-1.000000	138.482759	0.000000	-1.000000	-1.000000	534230.000000	1772919098.411699
-2440.710000	21156.930000	-19487.250000	-14263.155000	0.000000	0.000000	0.000000	0.000000	-5.133885	4.549350	-2.064346	-9.341809	-0.000000	0.000000	0.000000	-0.000000	4.883200	0.076300	-0.701960	-0.040161	0.792356	0.607237	-1.000000	-1.000000	-1.000000	-1.000000	-1.000000	-1.000000	-1.000000	138.482759	0.000000	-1.000000	-1.000000	534231.000000	1772919098.411702
-2432.880000	21218.760000	-19482.345000	-14247.540000	0.000000	0.000000	0.000000	0.000000	55.313587	-9.123962	86.441766	89.262579	-0.000000	0.000000	0.000000	-0.000000	4.883200	0.076300	-0.701960	-0.040161	0.792356	0.607237	-1.000000	-1.000000	-1.000000	-1.000000	-1.000000	-1.000000	-1.000000	138.482759	0.000000	-1.000000	-1.000000	534232.000000	1772919098.415745
-2489.670000	21307.140000	-19555.470000	-14323.635000	0.000000	0.000000	0.000000	0.000000	83.521847	0.065452	126.216266	137.480854	-0.000000	0.000000	0.000000	-0.000000	4.883200	0.076300	-0.701960	-0.040161	0.792356	0.607237	-1.000000	-1.000000	-1.000000	-1.000000	-1.000000	-1.000000	-1.000000	138.482759	0.000000	-1.000000	-1.000000	534233.000000	1772919098.415748
-2560.545000	21331.710000	-19636.740000	-14407.920000	0.000000	0.000000	0.000000	0.000000	63.873842	24.124283	95.482450	109.105396	-0.000000	0.000000	0.000000	-0.000000	4.303320	0.396760	-0.991900	-0.040161	0.791807	0.606993	-1.000000	-1.000000	-1.000000	-1.000000	-1.000000	-1.000000	-1.000000	138.482759	0.000000	-1.000000	-1.000000	534234.000000	1772919098.419719
-2644.200000	21298.770000	-19766.655000	-14551.605000	0.000000	0.000000	0.000000	0.000000	7.476441	40.503117	11.965432	20.657571	-0.000000	0.000000	0.000000	-0.000000	4.303320	0.396760	-0.991900	-0.040161	0.791807	0.606993	-1.000000	-1.000000	-1.000000	-1.000000	-1.000000	-1.000000	-1.000000	138.482759	0.000000	-1.000000	-1.000000	534235.000000	1772919098.419722
-2640.915000	21237.255000	-19775.160000	-14571.990000	0.000000	0.000000	0.000000	0.000000	-53.334158	30.157754	-77.828436	-78.723766	-0.000000	0.000000	0.000000	-0.000000	4.303320	0.396760	-0.991900	-0.040161	0.791807	0.606993	-1.000000	-1.000000	-1.000000	-1.000000	-1.000000	-1.000000	-1.000000	138.482759	0.000000	-1.000000	-1.000000	534236.000000	1772919098.423690
-2606.310000	21266.235000	-19724.265000	-14516.190000	0.000000	0.000000	0.000000	0.000000	-83.186286	-5.367364	-124.175664	-134.221783	-0.000000	0.000000	0.000000	-0.000000	4.303320	0.396760	-0.991900	-0.040161	0.791807	0.606993	-1.000000	-1.000000	-1.000000	-1.000000	-1.000000	-1.000000	-1.000000	138.482759	0.000000	-1.000000	-1.000000	534237.000000	1772919098.423693
-2560.410000	21265.515000	-19657.350000	-14444.865000	0.000000	0.000000	0.000000	0.000000	-65.103254	-42.786464	-101.533369	-115.155792	-0.000000	0.000000	0.000000	-0.000000	4.303320	0.396760	-0.991900	-0.040161	0.791807	0.606993	-1.000000	-1.000000	-1.000000	-1.000000	-1.000000	-1.000000	-1.000000	138.482759	0.000000	-1.000000	-1.000000	534238.000000	1772919098.427707
-2481.615000	21274.605000	-19528.065000	-14313.375000	0.000000	0.000000	0.000000	0.000000	-10.678524	-57.685330	-23.605468	-33.361097	-0.000000	0.000000	0.000000	-0.000000	4.303320	0.396760	-0.991900	-0.040161	0.791807	0.606993	-1.000000	-1.000000	-1.000000	-1.000000	-1.000000	-1.000000	-1.000000	138.482759	0.000000	-1.000000	-1.000000	534239.000000	1772919098.427710
-2445.255000	21282.030000	-19485.090000	-14253.345000	0.000000	0.000000	0.000000	0.000000	49.582265	-43.969976	66.937572	65.915339	-0.000000	0.000000	0.000000	-0.000000	4.303320	0.396760	-0.991900	-0.040161	0.791807	0.606993	-1.000000	-1.000000	-1.000000	-1.000000	-1.000000	-1.000000	-1.000000	138.482759	0.000000	-1.000000	-1.000000	534240.000000	1772919098.431807
-2450.790000	21191.760000	-19519.695000	-14287.365000	0.000000	0.000000	0.000000	0.000000	84.239961	-14.815788	121.979224	129.889991	-0.000000	0.000000	0.000000	-0.000000	4.303320	0.396760	-0.991900	-0.040161	0.791807	0.606993	-1.000000	-1.000000	-1.000000	-1.000000	-1.000000	-1.000000	-1.000000	138.482759	0.000000	-1.000000	-1.000000	534241.000000	1772919098.431810
-2492.370000	21201.255000	-19585.305000	-14359.095000	0.000000	0.000000	0.000000	0.000000	75.818720	9.931902	111.898368	124.505993	-0.000000	0.000000	0.000000	-0.000000	4.303320	0.396760	-0.991900	-0.040161	0.791807	0.606993	-1.000000	-1.000000	-1.000000	-1.000000	-1.000000	-1.000000	-1.000000	138.482759	0.000000	-1.000000	-1.000000	534242.000000	1772919098.457948
-2585.205000	21281.175000	-19722.825000	-14503.725000	0.000000	0.000000	0.000000	0.000000	28.380125	22.469110	41.863264	52.444910	-0.000000	0.000000	0.000000	-0.000000	4.303320	0.396760	-0.991900	-0.040161	0.791807	0.606993	-1.000000	-1.000000	-1.000000	-1.000000	-1.000000	-1.000000	-1.000000	138.482759	0.000000	-1.000000	-1.000000	534243.000000	1772919098.457951
-2646.270000	21324.690000	-19802.115000	-14597.460000	0.000000	0.000000	0.000000	0.000000	-35.457072	30.602632	-51.934854	-49.026387	-0.000000	0.000000	0.000000	-0.000000	5.142620	-0.305200	-1.037680	-0.039612	0.791258	0.607909	-1.000000	-1.000000	-1.000000	-1.000000	-1.000000	-1.000000	-1.000000	138.482759	0.000000	-1.000000	-1.000000	534244.000000	1772919098.457956
-2600.910000	21277.620000	-19736.190000	-14533.785000	0.000000	0.000000	0.000000	0.000000	-83.574320	38.268027	-119.962595	-126.221589	-0.000000	0.000000	0.000000	-0.000000	5.142620	-0.305200	-1.037680	-0.039612	0.791258	0.607909	-1.000000	-1.000000	-1.000000	-1.000000	-1.000000	-1.000000	-1.000000	138.482759	0.000000	-1.000000	-1.000000	534245.000000	1772919098.457958
-2557.530000	21221.460000	-19665.540000	-14459.580000	0.000000	0.000000	0.000000	0.000000	-88.646872	35.462522	-123.134346	-135.058770	-0.000000	0.000000	0.000000	-0.000000	5.142620	-0.305200	-1.037680	-0.039612	0.791258	0.607909	-1.000000	-1.000000	-1.000000	-1.000000	-1.000000	-1.000000	-1.000000	138.482759	0.000000	-1.000000	-1.000000	534246.000000	1772919098.458580
-2489.130000	21214.305000	-19562.220000	-14348.205000	0.000000	0.000000	0.000000	0.000000	-46.496337	14.386742	-58.297609	-69.226231	-0.000000	0.000000	0.000000	-0.000000	5.142620	-0.305200	-1.037680	-0.039612	0.791258	0.607909	-1.000000	-1.000000	-1.000000	-1.000000	-1.000000	-1.000000	-1.000000	138.482759	0.000000	-1.000000	-1.000000	534247.000000	1772919098.458582
-2420.730000	21201.255000	-19466.595000	-14235.570000	0.000000	0.000000	0.000000	0.000000	19.547482	-15.570050	38.049341	34.273318	-0.000000	0.000000	0.000000	-0.000000	5.142620	-0.305200	-1.037680	-0.039612	0.791258	0.607909	-1.000000	-1.000000	-1.000000	-1.000000	-1.000000	-1.000000	-1.000000	138.482759	0.000000	-1.000000	-1.000000	534248.000000	1772919098.458586
-2420.730000	21117.195000	-19484.550000	-14250.555000	0.000000	0.000000	0.000000	0.000000	74.096410	-37.550888	113.340477	119.051732	-0.000000	0.000000	0.000000	-0.000000	5.142620	-0.305200	-1.037680	-0.039612	0.791258	0.607909	-1.000000	-1.000000	-1.000000	-1.000000	-1.000000	-1.000000	-1.000000	138.482759	0.000000	-1.000000	-1.000000	534249.000000	1772919098.458588
-2450.385000	21035.160000	-19533.780000	-14306.670000	0.000000	0.000000	0.000000	0.000000	89.075768	-44.686894	127.632444	139.806239	-0.000000	0.000000	0.000000	-0.000000	5.142620	-0.305200	-1.037680	-0.039612	0.791258	0.607909	-1.000000	-1.000000	-1.000000	-1.000000	-1.000000	-1.000000	-1.000000	138.482759	0.000000	-1.000000	-1.000000	534250.000000	1772919098.458953
-2534.310000	21088.620000	-19651.005000	-14428.440000	0.000000	0.000000	0.000000	0.000000	57.179106	-38.033990	73.824307	85.511581	-0.000000	0.000000	0.000000	-0.000000	5.142620	-0.305200	-1.037680	-0.039612	0.791258	0.607909	-1.000000	-1.000000	-1.000000	-1.000000	-1.000000	-1.000000	-1.000000	138.482759	0.000000	-1.000000	-1.000000	534251.000000	1772919098.458956
-2610.270000	21074.535000	-19763.010000	-14556.420000	0.000000	0.000000	0.000000	0.000000	-5.107380	-16.931424	-19.685352	-15.180064	-0.000000	0.000000	0.000000	-0.000000	5.142620	-0.305200	-1.037680	-0.039612	0.791258	0.607909	-1.000000	-1.000000	-1.000000	-1.000000	-1.000000	-1.000000	-1.000000	138.482759	0.000000	-1.000000	-1.000000	534252.000000	1772919098.458961
-2602.620000	21079.080000	-19738.575000	-14537.880000	0.000000	0.000000	0.000000	0.000000	-65.347931	14.771618	-103.961630	-109.274422	-0.000000	0.000000	0.000000	-0.000000	5.142620	-0.305200	-1.037680	-0.039612	0.791258	0.607909	-1.000000	-1.000000	-1.000000	-1.000000	-1.000000	-1.000000	-1.000000	138.482759	0.000000	-1.000000	-1.000000	534253.000000	1772919098.458963
-2573.280000	21089.385000	-19680.840000	-14475.870000	0.000000	0.000000	0.000000	0.000000	-90.642508	43.509377	-132.937773	-145.298206	-0.000000	0.000000	0.000000	-0.000000	7.736820	-0.946120	-0.610400	-0.040893	0.789854	0.609129	-1.000000	-1.000000	-1.000000	-1.000000	-1.000000	-1.000000	-1.000000	138.482759	0.000000	-1.000000	-1.000000	534254.000000	1772919098.459975
-2512.440000	21039.435000	-19589.085000	-14376.465000	0.000000	0.000000	0.000000	0.000000	-66.950417	55.175581	-90.046590	-102.666705	-0.000000	0.000000	0.000000	-0.000000	7.736820	-0.946120	-0.610400	-0.040893	0.789854	0.609129	-1.000000	-1.000000	-1.000000	-1.000000	-1.000000	-1.000000	-1.000000	138.482759	0.000000	-1.000000	-1.000000	534255.000000	1772919098.459978
-2427.660000	21060.225000	-19467.540000	-14239.170000	0.000000	0.000000	0.000000	0.000000	-7.730965	44.509098	0.702804	-5.105888	-0.000000	0.000000	0.000000	-0.000000	7.736820	-0.946120	-0.610400	-0.040893	0.789854	0.609129	-1.000000	-1.000000	-1.000000	-1.000000	-1.000000	-1.000000	-1.000000	138.482759	0.000000	-1.000000	-1.000000	534256.000000	1772919098.463809
-2386.575000	20878.920000	-19445.805000	-14206.005000	0.000000	0.000000	0.000000	0.000000	55.750409	15.751277	90.557664	95.040456	-0.000000	0.000000	0.000000	-0.000000	7.736820	-0.946120	-0.610400	-0.040893	0.789854	0.609129	-1.000000	-1.000000	-1.000000	-1.000000	-1.000000	-1.000000	-1.000000	138.482759	0.000000	-1.000000	-1.000000	534257.000000	1772919098.463812
-2398.680000	20753.460000	-19487.790000	-14254.830000	0.000000	0.000000	0.000000	0.000000	91.139490	-23.842762	132.235016	144.892181	-0.000000	0.000000	0.000000	-0.000000	7.736820	-0.946120	-0.610400	-0.040893	0.789854	0.609129	-1.000000	-1.000000	-1.000000	-1.000000	-1.000000	-1.000000	-1.000000	138.482759	0.000000	-1.000000	-1.000000	534258.000000	1772919098.467801
-2459.250000	20754.720000	-19570.455000	-14347.125000	0.000000	0.000000	0.000000	0.000000	80.014609	-60.991969	103.842497	117.674986	-0.000000	0.000000	0.000000	-0.000000	7.736820	-0.946120	-0.610400	-0.040893	0.789854	0.609129	-1.000000	-1.000000	-1.000000	-1.000000	-1.000000	-1.000000	-1.000000	138.482759	0.000000	-1.000000	-1.000000	534259.000000	1772919098.467805
-2555.280000	20704.050000	-19701.945000	-14490.945000	0.000000	0.000000	0.000000	0.000000	26.932697	-73.197927	20.649568	27.638294	-0.000000	0.000000	0.000000	-0.000000	7.736820	-0.946120	-0.610400	-0.040893	0.789854	0.609129	-1.000000	-1.000000	-1.000000	-1.000000	-1.000000	-1.000000	-1.000000	138.482759	0.000000	-1.000000	-1.000000	534260.000000	1772919098.471953
-2564.775000	20653.020000	-19708.290000	-14507.820000	0.000000	0.000000	0.000000	0.000000	-41.510203	-48.954768	-73.431664	-77.459014	-0.000000	0.000000	0.000000	-0.000000	7.736820	-0.946120	-0.610400	-0.040893	0.789854	0.609129	-1.000000	-1.000000	-1.000000	-1.000000	-1.000000	-1.000000	-1.000000	138.482759	0.000000	-1.000000	-1.000000	534261.000000	1772919098.471955
-2521.170000	20579.715000	-19646.595000	-14439.645000	0.000000	0.000000	0.000000	0.000000	-87.965263	-2.748021	-127.343951	-140.230348	-0.000000	0.000000	0.000000	-0.000000	7.736820	-0.946120	-0.610400	-0.040893	0.789854	0.609129	-1.000000	-1.000000	-1.000000	-1.000000	-1.000000	-1.000000	-1.000000	138.482759	0.000000	-1.000000	-1.000000	534262.000000	1772919098.475591
-2463.615000	20483.775000	-19567.980000	-14355.405000	0.000000	0.000000	0.000000	0.000000	-85.654552	38.171023	-110.917653	-125.408402	-0.000000	0.000000	0.000000	-0.000000	7.736820	-0.946120	-0.610400	-0.040893	0.789854	0.609129	-1.000000	-1.000000	-1.000000	-1.000000	-1.000000	-1.000000	-1.000000	138.482759	0.000000	-1.000000	-1.000000	534263.000000	1772919098.475594
-2363.580000	20366.730000	-19422.990000	-14203.080000	0.000000	0.000000	0.000000	0.000000	-36.442955	53.721304	-34.135262	-42.250273	-0.000000	0.000000	0.000000	-0.000000	8.484560	-0.518840	-0.534100	-0.039795	0.789549	0.608885	-1.000000	-1.000000	-1.000000	-1.000000	-1.000000	-1.000000	-1.000000	138.482759	0.000000	-1.000000	-1.000000	534264.000000	1772919098.479967
-2351.385000	20365.380000	-19400.085000	-14165.865000	0.000000	0.000000	0.000000	0.000000	30.821995	42.832629	59.902407	62.279912	-0.000000	0.000000	0.000000	-0.000000	8.484560	-0.518840	-0.534100	-0.039795	0.789549	0.608885	-1.000000	-1.000000	-1.000000	-1.000000	-1.000000	-1.000000	-1.000000	138.482759	0.000000	-1.000000	-1.000000	534265.000000	1772919098.479970
-2389.230000	20380.140000	-19459.665000	-14227.830000	0.000000	0.000000	0.000000	0.000000	77.203966	23.293306	118.576136	129.946018	-0.000000	0.000000	0.000000	-0.000000	8.484560	-0.518840	-0.534100	-0.039795	0.789549	0.608885	-1.000000	-1.000000	-1.000000	-1.000000	-1.000000	-1.000000	-1.000000	138.482759	0.000000	-1.000000	-1.000000	534266.000000	1772919098.483832
-2430.090000	20377.710000	-19522.800000	-14296.680000	0.000000	0.000000	0.000000	0.000000	76.492742	14.508579	108.611851	122.913257	-0.000000	0.000000	0.000000	-0.000000	8.484560	-0.518840	-0.534100	-0.039795	0.789549	0.608885	-1.000000	-1.000000	-1.000000	-1.000000	-1.000000	-1.000000	-1.000000	138.482759	0.000000	-1.000000	-1.000000	534267.000000	1772919098.483835
-2519.415000	20375.145000	-19655.370000	-14436.900000	0.000000	0.000000	0.000000	0.000000	31.489065	19.076155	37.078752	46.834480	-0.000000	0.000000	0.000000	-0.000000	8.484560	-0.518840	-0.534100	-0.039795	0.789549	0.608885	-1.000000	-1.000000	-1.000000	-1.000000	-1.000000	-1.000000	-1.000000	138.482759	0.000000	-1.000000	-1.000000	534268.000000	1772919098.488043
-2555.595000	20302.560000	-19705.860000	-14502.330000	0.000000	0.000000	0.000000	0.000000	-30.310826	23.901955	-54.829071	-54.547672	-0.000000	0.000000	0.000000	-0.000000	8.484560	-0.518840	-0.534100	-0.039795	0.789549	0.608885	-1.000000	-1.000000	-1.000000	-1.000000	-1.000000	-1.000000	-1.000000	138.482759	0.000000	-1.000000	-1.000000	534269.000000	1772919098.488046
-2538.540000	20347.200000	-19667.790000	-14464.080000	0.000000	0.000000	0.000000	0.000000	-73.984146	16.568694	-116.216289	-125.386653	-0.000000	0.000000	0.000000	-0.000000	8.484560	-0.518840	-0.534100	-0.039795	0.789549	0.608885	-1.000000	-1.000000	-1.000000	-1.000000	-1.000000	-1.000000	-1.000000	138.482759	0.000000	-1.000000	-1.000000	534270.000000	1772919098.491871
-2516.760000	20463.705000	-19624.455000	-14416.605000	0.000000	0.000000	0.000000	0.000000	-75.732791	1.115184	-113.318086	-127.021328	-0.000000	0.000000	0.000000	-0.000000	8.484560	-0.518840	-0.534100	-0.039795	0.789549	0.608885	-1.000000	-1.000000	-1.000000	-1.000000	-1.000000	-1.000000	-1.000000	138.482759	0.000000	-1.000000	-1.000000	534271.000000	1772919098.491873
-2442.060000	20488.455000	-19511.190000	-14296.140000	0.000000	0.000000	0.000000	0.000000	-35.857417	-7.488434	-48.824957	-59.779069	-0.000000	0.000000	0.000000	-0.000000	8.484560	-0.518840	-0.534100	-0.039795	0.789549	0.608885	-1.000000	-1.000000	-1.000000	-1.000000	-1.000000	-1.000000	-1.000000	138.482759	0.000000	-1.000000	-1.000000	534272.000000	1772919098.497275
-2390.985000	20503.845000	-19434.555000	-14203.305000	0.000000	0.000000	0.000000	0.000000	23.561490	-5.811433	41.855933	39.378378	-0.000000	0.000000	0.000000	-0.000000	8.484560	-0.518840	-0.534100	-0.039795	0.789549	0.608885	-1.000000	-1.000000	-1.000000	-1.000000	-1.000000	-1.000000	-1.000000	138.482759	0.000000	-1.000000	-1.000000	534273.000000	1772919098.497279
-2403.225000	20469.555000	-19462.950000	-14229.450000	0.000000	0.000000	0.000000	0.000000	71.568303	-5.897023	111.235492	118.528770	-0.000000	0.000000	0.000000	-0.000000	8.499820	0.289940	-0.381500	-0.038330	0.790525	0.607542	-1.000000	-1.000000	-1.000000	-1.000000	-1.000000	-1.000000	-1.000000	138.482759	0.000000	-1.000000	-1.000000	534274.000000	1772919098.500014
-2442.240000	20446.515000	-19525.815000	-14296.500000	0.000000	0.000000	0.000000	0.000000	82.800250	-17.991645	122.423916	135.625208	-0.000000	0.000000	0.000000	-0.000000	8.499820	0.289940	-0.381500	-0.038330	0.790525	0.607542	-1.000000	-1.000000	-1.000000	-1.000000	-1.000000	-1.000000	-1.000000	138.482759	0.000000	-1.000000	-1.000000	534275.000000	1772919098.500017
-2507.265000	20433.330000	-19627.605000	-14404.410000	0.000000	0.000000	0.000000	0.000000	51.140815	-38.489659	69.238437	81.228396	-0.000000	0.000000	0.000000	-0.000000	8.499820	0.289940	-0.381500	-0.038330	0.790525	0.607542	-1.000000	-1.000000	-1.000000	-1.000000	-1.000000	-1.000000	-1.000000	138.482759	0.000000	-1.000000	-1.000000	534276.000000	1772919098.503994
-2573.280000	20400.120000	-19722.780000	-14515.875000	0.000000	0.000000	0.000000	0.000000	-6.445877	-53.820131	-19.611643	-15.283683	-0.000000	0.000000	0.000000	-0.000000	8.499820	0.289940	-0.381500	-0.038330	0.790525	0.607542	-1.000000	-1.000000	-1.000000	-1.000000	-1.000000	-1.000000	-1.000000	138.482759	0.000000	-1.000000	-1.000000	534277.000000	1772919098.503996
-2552.445000	20366.505000	-19684.620000	-14482.080000	0.000000	0.000000	0.000000	0.000000	-59.263781	-53.269876	-96.434898	-102.141928	-0.000000	0.000000	0.000000	-0.000000	8.499820	0.289940	-0.381500	-0.038330	0.790525	0.607542	-1.000000	-1.000000	-1.000000	-1.000000	-1.000000	-1.000000	-1.000000	138.482759	0.000000	-1.000000	-1.000000	534278.000000	1772919098.507989
-2520.540000	20368.080000	-19631.385000	-14425.380000	0.000000	0.000000	0.000000	0.000000	-78.664143	-35.768310	-119.235725	-131.981279	-0.000000	0.000000	0.000000	-0.000000	8.499820	0.289940	-0.381500	-0.038330	0.790525	0.607542	-1.000000	-1.000000	-1.000000	-1.000000	-1.000000	-1.000000	-1.000000	138.482759	0.000000	-1.000000	-1.000000	534279.000000	1772919098.507992
-2462.940000	20347.785000	-19543.770000	-14333.625000	0.000000	0.000000	0.000000	0.000000	-54.691302	-7.423347	-76.288140	-89.202927	-0.000000	0.000000	0.000000	-0.000000	8.499820	0.289940	-0.381500	-0.038330	0.790525	0.607542	-1.000000	-1.000000	-1.000000	-1.000000	-1.000000	-1.000000	-1.000000	138.482759	0.000000	-1.000000	-1.000000	534280.000000	1772919098.512001
-2381.445000	20311.380000	-19423.890000	-14197.590000	0.000000	0.000000	0.000000	0.000000	-1.801886	21.286637	7.076327	0.896991	-0.000000	0.000000	0.000000	-0.000000	8.499820	0.289940	-0.381500	-0.038330	0.790525	0.607542	-1.000000	-1.000000	-1.000000	-1.000000	-1.000000	-1.000000	-1.000000	138.482759	0.000000	-1.000000	-1.000000	534281.000000	1772919098.512003
-2393.415000	20354.715000	-19445.445000	-14214.330000	0.000000	0.000000	0.000000	0.000000	50.779913	40.453473	85.124486	88.951308	-0.000000	0.000000	0.000000	-0.000000	8.499820	0.289940	-0.381500	-0.038330	0.790525	0.607542	-1.000000	-1.000000	-1.000000	-1.000000	-1.000000	-1.000000	-1.000000	138.482759	0.000000	-1.000000	-1.000000	534282.000000	1772919098.515940
-2416.590000	20299.320000	-19490.085000	-14263.200000	0.000000	0.000000	0.000000	0.000000	74.133361	46.423001	115.218220	126.932010	-0.000000	0.000000	0.000000	-0.000000	8.499820	0.289940	-0.381500	-0.038330	0.790525	0.607542	-1.000000	-1.000000	-1.000000	-1.000000	-1.000000	-1.000000	-1.000000	138.482759	0.000000	-1.000000	-1.000000	534283.000000	1772919098.515943
-2474.730000	20302.560000	-19575.225000	-14352.705000	0.000000	0.000000	0.000000	0.000000	55.388812	39.693912	80.776744	93.890436	-0.000000	0.000000	0.000000	-0.000000	7.370580	0.442540	-1.815940	-0.038208	0.793272	0.605223	-1.000000	-1.000000	-1.000000	-1.000000	-1.000000	-1.000000	-1.000000	138.482759	0.000000	-1.000000	-1.000000	534284.000000	1772919098.520042
-2577.690000	20353.860000	-19720.530000	-14509.170000	0.000000	0.000000	0.000000	0.000000	4.972905	24.560583	0.955696	8.405933	-0.000000	0.000000	0.000000	-0.000000	7.370580	0.442540	-1.815940	-0.038208	0.793272	0.605223	-1.000000	-1.000000	-1.000000	-1.000000	-1.000000	-1.000000	-1.000000	138.482759	0.000000	-1.000000	-1.000000	534285.000000	1772919098.520044
-2581.515000	20331.135000	-19717.560000	-14514.120000	0.000000	0.000000	0.000000	0.000000	-50.348412	9.537569	-81.632132	-83.540431	-0.000000	0.000000	0.000000	-0.000000	7.370580	0.442540	-1.815940	-0.038208	0.793272	0.605223	-1.000000	-1.000000	-1.000000	-1.000000	-1.000000	-1.000000	-1.000000	138.482759	0.000000	-1.000000	-1.000000	534286.000000	1772919098.524062
-2538.810000	20274.570000	-19651.230000	-14443.875000	0.000000	0.000000	0.000000	0.000000	-79.638379	-2.097319	-121.174316	-131.009313	-0.000000	0.000000	0.000000	-0.000000	7.370580	0.442540	-1.815940	-0.038208	0.793272	0.605223	-1.000000	-1.000000	-1.000000	-1.000000	-1.000000	-1.000000	-1.000000	138.482759	0.000000	-1.000000	-1.000000	534287.000000	1772919098.524065
-2497.455000	20299.905000	-19585.440000	-14375.745000	0.000000	0.000000	0.000000	0.000000	-64.493447	-13.322564	-93.395068	-105.527194	-0.000000	0.000000	0.000000	-0.000000	7.370580	0.442540	-1.815940	-0.038208	0.793272	0.605223	-1.000000	-1.000000	-1.000000	-1.000000	-1.000000	-1.000000	-1.000000	138.482759	0.000000	-1.000000	-1.000000	534288.000000	1772919098.528087
-2409.705000	20302.695000	-19447.515000	-14227.965000	0.000000	0.000000	0.000000	0.000000	-12.610938	-22.214023	-13.036308	-20.911951	-0.000000	0.000000	0.000000	-0.000000	7.370580	0.442540	-1.815940	-0.038208	0.793272	0.605223	-1.000000	-1.000000	-1.000000	-1.000000	-1.000000	-1.000000	-1.000000	138.482759	0.000000	-1.000000	-1.000000	534289.000000	1772919098.528090
-2413.350000	20367.945000	-19440.045000	-14204.700000	0.000000	0.000000	0.000000	0.000000	46.955796	-21.714443	75.637760	76.061280	-0.000000	0.000000	0.000000	-0.000000	7.370580	0.442540	-1.815940	-0.038208	0.793272	0.605223	-1.000000	-1.000000	-1.000000	-1.000000	-1.000000	-1.000000	-1.000000	138.482759	0.000000	-1.000000	-1.000000	534290.000000	1772919098.531949
-2461.995000	20460.735000	-19513.755000	-14280.480000	0.000000	0.000000	0.000000	0.000000	80.429796	-7.990621	123.300890	131.809214	-0.000000	0.000000	0.000000	-0.000000	7.370580	0.442540	-1.815940	-0.038208	0.793272	0.605223	-1.000000	-1.000000	-1.000000	-1.000000	-1.000000	-1.000000	-1.000000	138.482759	0.000000	-1.000000	-1.000000	534291.000000	1772919098.531952
-2503.395000	20554.020000	-19587.240000	-14363.010000	0.000000	0.000000	0.000000	0.000000	68.590253	15.424698	102.167928	114.135113	-0.000000	0.000000	0.000000	-0.000000	7.370580	0.442540	-1.815940	-0.038208	0.793272	0.605223	-1.000000	-1.000000	-1.000000	-1.000000	-1.000000	-1.000000	-1.000000	138.482759	0.000000	-1.000000	-1.000000	534292.000000	1772919098.536061
-2587.500000	20638.845000	-19724.805000	-14512.770000	0.000000	0.000000	0.000000	0.000000	19.343078	37.564543	24.176924	32.625462	-0.000000	0.000000	0.000000	-0.000000	7.370580	0.442540	-1.815940	-0.038208	0.793272	0.605223	-1.000000	-1.000000	-1.000000	-1.000000	-1.000000	-1.000000	-1.000000	138.482759	0.000000	-1.000000	-1.000000	534293.000000	1772919098.536063
-2625.570000	20664.270000	-19770.615000	-14573.340000	0.000000	0.000000	0.000000	0.000000	-39.037776	44.610357	-67.159099	-67.525632	-0.000000	0.000000	0.000000	-0.000000	4.303320	0.396760	-0.885080	-0.039856	0.795408	0.604369	-1.000000	-1.000000	-1.000000	-1.000000	-1.000000	-1.000000	-1.000000	138.482759	0.000000	-1.000000	-1.000000	534294.000000	1772919098.559252
-2587.905000	20601.855000	-19706.760000	-14505.210000	0.000000	0.000000	0.000000	0.000000	-74.904158	26.652384	-121.505036	-130.925998	-0.000000	0.000000	0.000000	-0.000000	4.303320	0.396760	-0.885080	-0.039856	0.795408	0.604369	-1.000000	-1.000000	-1.000000	-1.000000	-1.000000	-1.000000	-1.000000	138.482759	0.000000	-1.000000	-1.000000	534295.000000	1772919098.559256
-2545.065000	20526.705000	-19636.245000	-14430.150000	0.000000	0.000000	0.000000	0.000000	-68.593735	-16.013874	-107.743047	-120.922494	-0.000000	0.000000	0.000000	-0.000000	4.303320	0.396760	-0.885080	-0.039856	0.795408	0.604369	-1.000000	-1.000000	-1.000000	-1.000000	-1.000000	-1.000000	-1.000000	138.482759	0.000000	-1.000000	-1.000000	534296.000000	1772919098.559261
-2471.400000	20554.290000	-19524.510000	-14310.855000	0.000000	0.000000	0.000000	0.000000	-23.667537	-66.280727	-33.335991	-42.611179	-0.000000	0.000000	0.000000	-0.000000	4.303320	0.396760	-0.885080	-0.039856	0.795408	0.604369	-1.000000	-1.000000	-1.000000	-1.000000	-1.000000	-1.000000	-1.000000	138.482759	0.000000	-1.000000	-1.000000	534297.000000	1772919098.559263
-2431.845000	20681.145000	-19471.050000	-14241.420000	0.000000	0.000000	0.000000	0.000000	34.845021	-92.505586	59.873119	59.853940	-0.000000	0.000000	0.000000	-0.000000	4.303320	0.396760	-0.885080	-0.039856	0.795408	0.604369	-1.000000	-1.000000	-1.000000	-1.000000	-1.000000	-1.000000	-1.000000	138.482759	0.000000	-1.000000	-1.000000	534298.000000	1772919098.560002
-2475.765000	20816.685000	-19536.120000	-14306.850000	0.000000	0.000000	0.000000	0.000000	74.528969	-69.634188	120.233246	129.724734	-0.000000	0.000000	0.000000	-0.000000	4.303320	0.396760	-0.885080	-0.039856	0.795408	0.604369	-1.000000	-1.000000	-1.000000	-1.000000	-1.000000	-1.000000	-1.000000	138.482759	0.000000	-1.000000	-1.000000	534299.000000	1772919098.560005
-2518.245000	20890.035000	-19592.370000	-14370.480000	0.000000	0.000000	0.000000	0.000000	72.735212	-4.490624	114.247633	128.298485	-0.000000	0.000000	0.000000	-0.000000	4.303320	0.396760	-0.885080	-0.039856	0.795408	0.604369	-1.000000	-1.000000	-1.000000	-1.000000	-1.000000	-1.000000	-1.000000	138.482759	0.000000	-1.000000	-1.000000	534300.000000	1772919098.560009
-2606.940000	20981.655000	-19714.590000	-14497.380000	0.000000	0.000000	0.000000	0.000000	30.097375	65.070771	46.114741	57.152927	-0.000000	0.000000	0.000000	-0.000000	4.303320	0.396760	-0.885080	-0.039856	0.795408	0.604369	-1.000000	-1.000000	-1.000000	-1.000000	-1.000000	-1.000000	-1.000000	138.482759	0.000000	-1.000000	-1.000000	534301.000000	1772919098.560012
-2660.265000	20946.645000	-19794.825000	-14593.140000	0.000000	0.000000	0.000000	0.000000	-29.941283	98.118401	-46.206298	-44.017830	-0.000000	0.000000	0.000000	-0.000000	4.303320	0.396760	-0.885080	-0.039856	0.795408	0.604369	-1.000000	-1.000000	-1.000000	-1.000000	-1.000000	-1.000000	-1.000000	138.482759	0.000000	-1.000000	-1.000000	534302.000000	1772919098.560015
-2624.670000	20905.920000	-19742.670000	-14542.560000	0.000000	0.000000	0.000000	0.000000	-74.342882	75.912928	-113.119641	-120.797422	-0.000000	0.000000	0.000000	-0.000000	4.303320	0.396760	-0.885080	-0.039856	0.795408	0.604369	-1.000000	-1.000000	-1.000000	-1.000000	-1.000000	-1.000000	-1.000000	138.482759	0.000000	-1.000000	-1.000000	534303.000000	1772919098.560017
-2577.555000	20865.105000	-19682.685000	-14478.615000	0.000000	0.000000	0.000000	0.000000	-77.417442	10.797863	-117.920961	-131.297936	-0.000000	0.000000	0.000000	-0.000000	4.806900	0.228900	-0.228900	-0.040832	0.797422	0.604247	-1.000000	-1.000000	-1.000000	-1.000000	-1.000000	-1.000000	-1.000000	138.482759	0.000000	-1.000000	-1.000000	534304.000000	1772919098.560179
-2525.805000	20910.555000	-19590.525000	-14383.530000	0.000000	0.000000	0.000000	0.000000	-36.964576	-59.857396	-58.253613	-70.259493	-0.000000	0.000000	0.000000	-0.000000	4.806900	0.228900	-0.228900	-0.040832	0.797422	0.604247	-1.000000	-1.000000	-1.000000	-1.000000	-1.000000	-1.000000	-1.000000	138.482759	0.000000	-1.000000	-1.000000	534305.000000	1772919098.560182
-2471.940000	20998.845000	-19492.290000	-14268.105000	0.000000	0.000000	0.000000	0.000000	23.442524	-94.753492	32.064996	27.532675	-0.000000	0.000000	0.000000	-0.000000	4.806900	0.228900	-0.228900	-0.040832	0.797422	0.604247	-1.000000	-1.000000	-1.000000	-1.000000	-1.000000	-1.000000	-1.000000	138.482759	0.000000	-1.000000	-1.000000	534306.000000	1772919098.564622
-2500.650000	21136.455000	-19540.980000	-14307.255000	0.000000	0.000000	0.000000	0.000000	69.967270	-73.759978	103.938191	109.159077	-0.000000	0.000000	0.000000	-0.000000	4.806900	0.228900	-0.228900	-0.040832	0.797422	0.604247	-1.000000	-1.000000	-1.000000	-1.000000	-1.000000	-1.000000	-1.000000	138.482759	0.000000	-1.000000	-1.000000	534307.000000	1772919098.564625
-2509.650000	21133.530000	-19583.145000	-14351.265000	0.000000	0.000000	0.000000	0.000000	78.060613	-11.796915	118.554252	131.048173	-0.000000	0.000000	0.000000	-0.000000	4.806900	0.228900	-0.228900	-0.040832	0.797422	0.604247	-1.000000	-1.000000	-1.000000	-1.000000	-1.000000	-1.000000	-1.000000	138.482759	0.000000	-1.000000	-1.000000	534308.000000	1772919098.568098
-2565.765000	21180.060000	-19676.070000	-14446.440000	0.000000	0.000000	0.000000	0.000000	45.586533	50.043651	68.885802	82.355531	-0.000000	0.000000	0.000000	-0.000000	4.806900	0.228900	-0.228900	-0.040832	0.797422	0.604247	-1.000000	-1.000000	-1.000000	-1.000000	-1.000000	-1.000000	-1.000000	138.482759	0.000000	-1.000000	-1.000000	534309.000000	1772919098.568101
-2654.505000	21167.955000	-19804.680000	-14593.410000	0.000000	0.000000	0.000000	0.000000	-8.960967	75.204056	-17.113314	-9.723261	-0.000000	0.000000	0.000000	-0.000000	4.806900	0.228900	-0.228900	-0.040832	0.797422	0.604247	-1.000000	-1.000000	-1.000000	-1.000000	-1.000000	-1.000000	-1.000000	138.482759	0.000000	-1.000000	-1.000000	534310.000000	1772919098.572740
-2656.215000	21151.080000	-19793.790000	-14599.755000	0.000000	0.000000	0.000000	0.000000	-58.866604	55.383569	-94.461087	-97.522565	-0.000000	0.000000	0.000000	-0.000000	4.806900	0.228900	-0.228900	-0.040832	0.797422	0.604247	-1.000000	-1.000000	-1.000000	-1.000000	-1.000000	-1.000000	-1.000000	138.482759	0.000000	-1.000000	-1.000000	534311.000000	1772919098.572742
-2617.965000	21136.095000	-19732.275000	-14530.275000	0.000000	0.000000	0.000000	0.000000	-79.260720	8.237539	-122.030948	-134.781604	-0.000000	0.000000	0.000000	-0.000000	4.806900	0.228900	-0.228900	-0.040832	0.797422	0.604247	-1.000000	-1.000000	-1.000000	-1.000000	-1.000000	-1.000000	-1.000000	138.482759	0.000000	-1.000000	-1.000000	534312.000000	1772919098.577698
-2566.980000	21139.785000	-19660.095000	-14438.880000	0.000000	0.000000	0.000000	0.000000	-58.249875	-37.847490	-83.630733	-99.383377	-0.000000	0.000000	0.000000	-0.000000	4.806900	0.228900	-0.228900	-0.040832	0.797422	0.604247	-1.000000	-1.000000	-1.000000	-1.000000	-1.000000	-1.000000	-1.000000	138.482759	0.000000	-1.000000	-1.000000	534313.000000	1772919098.577702
-2472.120000	21114.360000	-19517.085000	-14276.115000	0.000000	0.000000	0.000000	0.000000	-5.824852	-60.367226	0.540375	-8.629396	-0.000000	0.000000	0.000000	-0.000000	7.095900	0.488320	-0.320460	-0.041382	0.794065	0.604918	-1.000000	-1.000000	-1.000000	-1.000000	-1.000000	-1.000000	-1.000000	138.482759	0.000000	-1.000000	-1.000000	534314.000000	1772919098.580246
-2438.595000	21184.110000	-19478.790000	-14239.890000	0.000000	0.000000	0.000000	0.000000	51.344167	-52.279001	86.652636	90.055817	-0.000000	0.000000	0.000000	-0.000000	7.095900	0.488320	-0.320460	-0.041382	0.794065	0.604918	-1.000000	-1.000000	-1.000000	-1.000000	-1.000000	-1.000000	-1.000000	138.482759	0.000000	-1.000000	-1.000000	534315.000000	1772919098.580248
-2469.645000	21228.525000	-19526.715000	-14294.610000	0.000000	0.000000	0.000000	0.000000	83.248306	-19.686424	129.730668	143.330015	-0.000000	0.000000	0.000000	-0.000000	7.095900	0.488320	-0.320460	-0.041382	0.794065	0.604918	-1.000000	-1.000000	-1.000000	-1.000000	-1.000000	-1.000000	-1.000000	138.482759	0.000000	-1.000000	-1.000000	534316.000000	1772919098.584999
-2544.615000	21180.645000	-19631.565000	-14410.980000	0.000000	0.000000	0.000000	0.000000	70.851395	20.745104	104.596573	119.299866	-0.000000	0.000000	0.000000	-0.000000	7.095900	0.488320	-0.320460	-0.041382	0.794065	0.604918	-1.000000	-1.000000	-1.000000	-1.000000	-1.000000	-1.000000	-1.000000	138.482759	0.000000	-1.000000	-1.000000	534317.000000	1772919098.585002
-2653.470000	21236.715000	-19782.270000	-14575.365000	0.000000	0.000000	0.000000	0.000000	17.726831	47.371822	21.070640	27.609144	-0.000000	0.000000	0.000000	-0.000000	7.095900	0.488320	-0.320460	-0.041382	0.794065	0.604918	-1.000000	-1.000000	-1.000000	-1.000000	-1.000000	-1.000000	-1.000000	138.482759	0.000000	-1.000000	-1.000000	534318.000000	1772919098.588352
-2676.735000	21254.940000	-19813.500000	-14619.150000	0.000000	0.000000	0.000000	0.000000	-49.216431	49.946117	-78.350041	-83.757661	-0.000000	0.000000	0.000000	-0.000000	7.095900	0.488320	-0.320460	-0.041382	0.794065	0.604918	-1.000000	-1.000000	-1.000000	-1.000000	-1.000000	-1.000000	-1.000000	138.482759	0.000000	-1.000000	-1.000000	534319.000000	1772919098.588354
-2654.955000	21244.455000	-19770.165000	-14572.755000	0.000000	0.000000	0.000000	0.000000	-92.376394	34.118385	-138.952969	-153.054611	-0.000000	0.000000	0.000000	-0.000000	7.095900	0.488320	-0.320460	-0.041382	0.794065	0.604918	-1.000000	-1.000000	-1.000000	-1.000000	-1.000000	-1.000000	-1.000000	138.482759	0.000000	-1.000000	-1.000000	534320.000000	1772919098.592293
-2618.415000	21287.340000	-19711.800000	-14505.390000	0.000000	0.000000	0.000000	0.000000	-86.004648	10.676138	-125.552320	-140.222554	-0.000000	0.000000	0.000000	-0.000000	7.095900	0.488320	-0.320460	-0.041382	0.794065	0.604918	-1.000000	-1.000000	-1.000000	-1.000000	-1.000000	-1.000000	-1.000000	138.482759	0.000000	-1.000000	-1.000000	534321.000000	1772919098.592295
-2520.540000	21236.760000	-19572.570000	-14338.665000	0.000000	0.000000	0.000000	0.000000	-33.147754	-11.000025	-45.389562	-51.895084	-0.000000	0.000000	0.000000	-0.000000	7.095900	0.488320	-0.320460	-0.041382	0.794065	0.604918	-1.000000	-1.000000	-1.000000	-1.000000	-1.000000	-1.000000	-1.000000	138.482759	0.000000	-1.000000	-1.000000	534322.000000	1772919098.596313
-2467.665000	21144.735000	-19502.595000	-14244.345000	0.000000	0.000000	0.000000	0.000000	38.234879	-27.638681	58.655658	65.368147	-0.000000	0.000000	0.000000	-0.000000	7.095900	0.488320	-0.320460	-0.041382	0.794065	0.604918	-1.000000	-1.000000	-1.000000	-1.000000	-1.000000	-1.000000	-1.000000	138.482759	0.000000	-1.000000	-1.000000	534323.000000	1772919098.596316
-2485.215000	21105.090000	-19546.515000	-14294.295000	0.000000	0.000000	0.000000	0.000000	91.138266	-40.772243	132.229191	150.433102	-0.000000	0.000000	0.000000	-0.000000	8.438780	1.693860	-0.778260	-0.039734	0.789915	0.607359	-1.000000	-1.000000	-1.000000	-1.000000	-1.000000	-1.000000	-1.000000	138.482759	0.000000	-1.000000	-1.000000	534324.000000	1772919098.600257
-2481.570000	21035.205000	-19586.430000	-14356.890000	0.000000	0.000000	0.000000	0.000000	98.164077	-47.570936	136.459559	156.950657	-0.000000	0.000000	0.000000	-0.000000	8.438780	1.693860	-0.778260	-0.039734	0.789915	0.607359	-1.000000	-1.000000	-1.000000	-1.000000	-1.000000	-1.000000	-1.000000	138.482759	0.000000	-1.000000	-1.000000	534325.000000	1772919098.600260
-2588.580000	21106.710000	-19741.815000	-14516.685000	0.000000	0.000000	0.000000	0.000000	56.642010	-39.653215	69.804601	80.470703	-0.000000	0.000000	0.000000	-0.000000	8.438780	1.693860	-0.778260	-0.039734	0.789915	0.607359	-1.000000	-1.000000	-1.000000	-1.000000	-1.000000	-1.000000	-1.000000	138.482759	0.000000	-1.000000	-1.000000	534326.000000	1772919098.604369
-2669.040000	21173.625000	-19821.240000	-14605.380000	0.000000	0.000000	0.000000	0.000000	-12.745328	-10.321103	-32.413548	-38.262462	-0.000000	0.000000	0.000000	-0.000000	8.438780	1.693860	-0.778260	-0.039734	0.789915	0.607359	-1.000000	-1.000000	-1.000000	-1.000000	-1.000000	-1.000000	-1.000000	138.482759	0.000000	-1.000000	-1.000000	534327.000000	1772919098.604371
-2640.330000	21141.135000	-19755.270000	-14533.695000	0.000000	0.000000	0.000000	0.000000	-76.382295	33.699516	-116.039766	-135.127026	-0.000000	0.000000	0.000000	-0.000000	8.438780	1.693860	-0.778260	-0.039734	0.789915	0.607359	-1.000000	-1.000000	-1.000000	-1.000000	-1.000000	-1.000000	-1.000000	138.482759	0.000000	-1.000000	-1.000000	534328.000000	1772919098.609918
-2585.295000	21035.610000	-19666.665000	-14454.945000	0.000000	0.000000	0.000000	0.000000	-100.127340	66.619154	-133.836397	-155.990375	-0.000000	0.000000	0.000000	-0.000000	8.438780	1.693860	-0.778260	-0.039734	0.789915	0.607359	-1.000000	-1.000000	-1.000000	-1.000000	-1.000000	-1.000000	-1.000000	138.482759	0.000000	-1.000000	-1.000000	534329.000000	1772919098.609920
-2524.455000	20972.970000	-19587.015000	-14367.330000	0.000000	0.000000	0.000000	0.000000	-69.981350	62.895308	-76.211590	-91.261929	-0.000000	0.000000	0.000000	-0.000000	8.438780	1.693860	-0.778260	-0.039734	0.789915	0.607359	-1.000000	-1.000000	-1.000000	-1.000000	-1.000000	-1.000000	-1.000000	138.482759	0.000000	-1.000000	-1.000000	534330.000000	1772919098.612467
-2457.855000	20994.705000	-19500.795000	-14246.055000	0.000000	0.000000	0.000000	0.000000	-4.032395	25.120976	20.473338	18.354074	-0.000000	0.000000	0.000000	-0.000000	8.438780	1.693860	-0.778260	-0.039734	0.789915	0.607359	-1.000000	-1.000000	-1.000000	-1.000000	-1.000000	-1.000000	-1.000000	138.482759	0.000000	-1.000000	-1.000000	534331.000000	1772919098.612470
-2465.820000	20954.610000	-19514.070000	-14229.405000	0.000000	0.000000	0.000000	0.000000	59.819021	-17.582174	100.165080	112.248097	-0.000000	0.000000	0.000000	-0.000000	8.438780	1.693860	-0.778260	-0.039734	0.789915	0.607359	-1.000000	-1.000000	-1.000000	-1.000000	-1.000000	-1.000000	-1.000000	138.482759	0.000000	-1.000000	-1.000000	534332.000000	1772919098.616245
-2499.930000	20891.520000	-19547.415000	-14275.845000	0.000000	0.000000	0.000000	0.000000	86.972545	-39.978825	121.119212	143.534903	-0.000000	0.000000	0.000000	-0.000000	8.438780	1.693860	-0.778260	-0.039734	0.789915	0.607359	-1.000000	-1.000000	-1.000000	-1.000000	-1.000000	-1.000000	-1.000000	138.482759	0.000000	-1.000000	-1.000000	534333.000000	1772919098.616248
-2559.330000	20914.380000	-19640.115000	-14395.680000	0.000000	0.000000	0.000000	0.000000	64.997768	-37.874000	76.120439	98.542603	-0.000000	0.000000	0.000000	-0.000000	10.468360	3.189340	-0.473060	-0.038757	0.788877	0.608092	-1.000000	-1.000000	-1.000000	-1.000000	-1.000000	-1.000000	-1.000000	138.482759	0.000000	-1.000000	-1.000000	534334.000000	1772919098.621433
-2602.845000	20930.400000	-19734.300000	-14523.570000	0.000000	0.000000	0.000000	0.000000	9.390063	-18.244515	-7.891291	1.342611	-0.000000	0.000000	0.000000	-0.000000	10.468360	3.189340	-0.473060	-0.038757	0.788877	0.608092	-1.000000	-1.000000	-1.000000	-1.000000	-1.000000	-1.000000	-1.000000	138.482759	0.000000	-1.000000	-1.000000	534335.000000	1772919098.621436
-2556.225000	20831.130000	-19708.740000	-14493.015000	0.000000	0.000000	0.000000	0.000000	-46.243542	7.290552	-85.860677	-96.926617	-0.000000	0.000000	0.000000	-0.000000	10.468360	3.189340	-0.473060	-0.038757	0.788877	0.608092	-1.000000	-1.000000	-1.000000	-1.000000	-1.000000	-1.000000	-1.000000	138.482759	0.000000	-1.000000	-1.000000	534336.000000	1772919098.624355
-2550.690000	20781.810000	-19696.005000	-14455.485000	0.000000	0.000000	0.000000	0.000000	-70.262413	22.328194	-116.673330	-142.195495	-0.000000	0.000000	0.000000	-0.000000	10.468360	3.189340	-0.473060	-0.038757	0.788877	0.608092	-1.000000	-1.000000	-1.000000	-1.000000	-1.000000	-1.000000	-1.000000	138.482759	0.000000	-1.000000	-1.000000	534337.000000	1772919098.624357
-2525.040000	20793.600000	-19620.405000	-14385.870000	0.000000	0.000000	0.000000	0.000000	-53.442549	18.981742	-85.884301	-110.320655	-0.000000	0.000000	0.000000	-0.000000	10.468360	3.189340	-0.473060	-0.038757	0.788877	0.608092	-1.000000	-1.000000	-1.000000	-1.000000	-1.000000	-1.000000	-1.000000	138.482759	0.000000	-1.000000	-1.000000	534338.000000	1772919098.628311
-2407.140000	20809.440000	-19463.400000	-14240.790000	0.000000	0.000000	0.000000	0.000000	-10.298177	7.439405	-11.437687	-21.688631	-0.000000	0.000000	0.000000	-0.000000	10.468360	3.189340	-0.473060	-0.038757	0.788877	0.608092	-1.000000	-1.000000	-1.000000	-1.000000	-1.000000	-1.000000	-1.000000	138.482759	0.000000	-1.000000	-1.000000	534339.000000	1772919098.628314
-2385.630000	20870.460000	-19444.050000	-14236.020000	0.000000	0.000000	0.000000	0.000000	36.336106	3.201425	69.743697	75.423655	-0.000000	0.000000	0.000000	-0.000000	10.468360	3.189340	-0.473060	-0.038757	0.788877	0.608092	-1.000000	-1.000000	-1.000000	-1.000000	-1.000000	-1.000000	-1.000000	138.482759	0.000000	-1.000000	-1.000000	534340.000000	1772919098.632311
-2446.560000	20876.310000	-19526.985000	-14338.440000	0.000000	0.000000	0.000000	0.000000	63.057336	10.864094	115.253578	129.034827	-0.000000	0.000000	0.000000	-0.000000	10.468360	3.189340	-0.473060	-0.038757	0.788877	0.608092	-1.000000	-1.000000	-1.000000	-1.000000	-1.000000	-1.000000	-1.000000	138.482759	0.000000	-1.000000	-1.000000	534341.000000	1772919098.632314
-2528.595000	20876.310000	-19634.085000	-14420.520000	0.000000	0.000000	0.000000	0.000000	52.109482	21.150373	96.225707	108.991357	-0.000000	0.000000	0.000000	-0.000000	10.468360	3.189340	-0.473060	-0.038757	0.788877	0.608092	-1.000000	-1.000000	-1.000000	-1.000000	-1.000000	-1.000000	-1.000000	138.482759	0.000000	-1.000000	-1.000000	534342.000000	1772919098.636318
-2635.245000	20901.870000	-19777.770000	-14534.325000	0.000000	0.000000	0.000000	0.000000	5.490717	21.490547	19.652569	28.413668	-0.000000	0.000000	0.000000	-0.000000	10.468360	3.189340	-0.473060	-0.038757	0.788877	0.608092	-1.000000	-1.000000	-1.000000	-1.000000	-1.000000	-1.000000	-1.000000	138.482759	0.000000	-1.000000	-1.000000	534343.000000	1772919098.636321
-2645.235000	20870.235000	-19770.435000	-14535.180000	0.000000	0.000000	0.000000	0.000000	-50.966847	8.198151	-71.213647	-63.600900	-0.000000	0.000000	0.000000	-0.000000	10.712520	8.576120	1.678600	-0.036072	0.785643	0.601927	-1.000000	-1.000000	-1.000000	-1.000000	-1.000000	-1.000000	-1.000000	138.482759	0.000000	-1.000000	-1.000000	534344.000000	1772919098.640340
-2587.455000	20889.045000	-19698.705000	-14487.570000	0.000000	0.000000	0.000000	0.000000	-81.230013	-12.741335	-121.167221	-113.452171	-0.000000	0.000000	0.000000	-0.000000	10.712520	8.576120	1.678600	-0.036072	0.785643	0.601927	-1.000000	-1.000000	-1.000000	-1.000000	-1.000000	-1.000000	-1.000000	138.482759	0.000000	-1.000000	-1.000000	534345.000000	1772919098.640343
-2559.690000	20932.785000	-19655.190000	-14460.840000	0.000000	0.000000	0.000000	0.000000	-63.260181	-30.060511	-99.056992	-95.554059	-0.000000	0.000000	0.000000	-0.000000	10.712520	8.576120	1.678600	-0.036072	0.785643	0.601927	-1.000000	-1.000000	-1.000000	-1.000000	-1.000000	-1.000000	-1.000000	138.482759	0.000000	-1.000000	-1.000000	534346.000000	1772919098.658476
-2500.470000	20952.135000	-19549.755000	-14328.270000	0.000000	0.000000	0.000000	0.000000	-6.703441	-33.412676	-20.008413	-25.169990	-0.000000	0.000000	0.000000	-0.000000	10.712520	8.576120	1.678600	-0.036072	0.785643	0.601927	-1.000000	-1.000000	-1.000000	-1.000000	-1.000000	-1.000000	-1.000000	138.482759	0.000000	-1.000000	-1.000000	534347.000000	1772919098.658479
-2469.195000	20961.315000	-19484.370000	-14228.055000	0.000000	0.000000	0.000000	0.000000	55.275541	-22.248461	69.366865	58.332793	-0.000000	0.000000	0.000000	-0.000000	10.712520	8.576120	1.678600	-0.036072	0.785643	0.601927	-1.000000	-1.000000	-1.000000	-1.000000	-1.000000	-1.000000	-1.000000	138.482759	0.000000	-1.000000	-1.000000	534348.000000	1772919098.658483
-2470.725000	21012.030000	-19486.305000	-14242.995000	0.000000	0.000000	0.000000	0.000000	89.686365	-5.234209	122.481449	114.044182	-0.000000	0.000000	0.000000	-0.000000	10.712520	8.576120	1.678600	-0.036072	0.785643	0.601927	-1.000000	-1.000000	-1.000000	-1.000000	-1.000000	-1.000000	-1.000000	138.482759	0.000000	-1.000000	-1.000000	534349.000000	1772919098.658489
-2520.270000	20989.080000	-19573.965000	-14353.515000	0.000000	0.000000	0.000000	0.000000	80.389447	8.341402	113.424843	112.134168	-0.000000	0.000000	0.000000	-0.000000	10.712520	8.576120	1.678600	-0.036072	0.785643	0.601927	-1.000000	-1.000000	-1.000000	-1.000000	-1.000000	-1.000000	-1.000000	138.482759	0.000000	-1.000000	-1.000000	534350.000000	1772919098.659133
-2593.935000	20906.865000	-19688.040000	-14498.730000	0.000000	0.000000	0.000000	0.000000	32.844802	10.856728	46.037803	47.617611	-0.000000	0.000000	0.000000	-0.000000	10.712520	8.576120	1.678600	-0.036072	0.785643	0.601927	-1.000000	-1.000000	-1.000000	-1.000000	-1.000000	-1.000000	-1.000000	138.482759	0.000000	-1.000000	-1.000000	534351.000000	1772919098.659136
-2580.165000	20629.980000	-19721.025000	-14526.135000	0.000000	0.000000	0.000000	0.000000	-28.777766	-5.696755	-46.249922	-49.042742	-0.000000	0.000000	0.000000	-0.000000	10.712520	8.576120	1.678600	-0.036072	0.785643	0.601927	-1.000000	-1.000000	-1.000000	-1.000000	-1.000000	-1.000000	-1.000000	138.482759	0.000000	-1.000000	-1.000000	534352.000000	1772919098.659140
-2556.225000	20442.510000	-19633.365000	-14422.905000	0.000000	0.000000	0.000000	0.000000	-71.842238	-43.277552	-113.275357	-121.689448	-0.000000	0.000000	0.000000	-0.000000	10.712520	8.576120	1.678600	-0.036072	0.785643	0.601927	-1.000000	-1.000000	-1.000000	-1.000000	-1.000000	-1.000000	-1.000000	138.482759	0.000000	-1.000000	-1.000000	534353.000000	1772919098.659142
-2582.370000	20396.160000	-19584.540000	-14338.575000	0.000000	0.000000	0.000000	0.000000	-75.521160	-82.346074	-116.555437	-123.659552	-0.000000	0.000000	0.000000	-0.000000	10.025820	6.363420	-3.631880	-0.033752	0.783445	0.597960	-1.000000	-1.000000	-1.000000	-1.000000	-1.000000	-1.000000	-1.000000	138.482759	0.000000	-1.000000	-1.000000	534354.000000	1772919098.660487
-2468.655000	20337.300000	-19474.965000	-14209.605000	0.000000	0.000000	0.000000	0.000000	-43.382955	-86.547930	-56.628326	-53.525968	-0.000000	0.000000	0.000000	-0.000000	10.025820	6.363420	-3.631880	-0.033752	0.783445	0.597960	-1.000000	-1.000000	-1.000000	-1.000000	-1.000000	-1.000000	-1.000000	138.482759	0.000000	-1.000000	-1.000000	534355.000000	1772919098.660490
-2280.870000	20380.725000	-19354.095000	-14109.345000	0.000000	0.000000	0.000000	0.000000	8.585125	-36.445380	30.268279	45.595386	-0.000000	0.000000	0.000000	-0.000000	10.025820	6.363420	-3.631880	-0.033752	0.783445	0.597960	-1.000000	-1.000000	-1.000000	-1.000000	-1.000000	-1.000000	-1.000000	138.482759	0.000000	-1.000000	-1.000000	534356.000000	1772919098.664345
-2359.665000	20472.930000	-19451.565000	-14249.835000	0.000000	0.000000	0.000000	0.000000	59.778745	51.761162	96.397692	114.989006	-0.000000	0.000000	0.000000	-0.000000	10.025820	6.363420	-3.631880	-0.033752	0.783445	0.597960	-1.000000	-1.000000	-1.000000	-1.000000	-1.000000	-1.000000	-1.000000	138.482759	0.000000	-1.000000	-1.000000	534357.000000	1772919098.664348
-2488.455000	20511.360000	-19507.095000	-14321.610000	0.000000	0.000000	0.000000	0.000000	78.834107	138.536254	104.211794	111.897925	-0.000000	0.000000	0.000000	-0.000000	10.025820	6.363420	-3.631880	-0.033752	0.783445	0.597960	-1.000000	-1.000000	-1.000000	-1.000000	-1.000000	-1.000000	-1.000000	138.482759	0.000000	-1.000000	-1.000000	534358.000000	1772919098.668381
-2534.805000	20595.645000	-19502.640000	-14353.650000	0.000000	0.000000	0.000000	0.000000	44.115171	182.854562	50.589158	39.450067	-0.000000	0.000000	0.000000	-0.000000	10.025820	6.363420	-3.631880	-0.033752	0.783445	0.597960	-1.000000	-1.000000	-1.000000	-1.000000	-1.000000	-1.000000	-1.000000	138.482759	0.000000	-1.000000	-1.000000	534359.000000	1772919098.668384
-2528.190000	20598.615000	-19472.400000	-14395.095000	0.000000	0.000000	0.000000	0.000000	-24.449377	163.427461	-25.903281	-52.746370	-0.000000	0.000000	0.000000	-0.000000	10.025820	6.363420	-3.631880	-0.033752	0.783445	0.597960	-1.000000	-1.000000	-1.000000	-1.000000	-1.000000	-1.000000	-1.000000	138.482759	0.000000	-1.000000	-1.000000	534360.000000	1772919098.672449
-2593.080000	20530.755000	-19557.450000	-14448.060000	0.000000	0.000000	0.000000	0.000000	-79.715926	86.549429	-78.397019	-110.023180	-0.000000	0.000000	0.000000	-0.000000	10.025820	6.363420	-3.631880	-0.033752	0.783445	0.597960	-1.000000	-1.000000	-1.000000	-1.000000	-1.000000	-1.000000	-1.000000	138.482759	0.000000	-1.000000	-1.000000	534361.000000	1772919098.672452
-2619.720000	20495.925000	-19576.620000	-14432.220000	0.000000	0.000000	0.000000	0.000000	-90.838596	-20.317888	-88.170722	-108.738350	-0.000000	0.000000	0.000000	-0.000000	10.025820	6.363420	-3.631880	-0.033752	0.783445	0.597960	-1.000000	-1.000000	-1.000000	-1.000000	-1.000000	-1.000000	-1.000000	138.482759	0.000000	-1.000000	-1.000000	534362.000000	1772919098.676520
-2454.525000	20429.235000	-19356.930000	-14269.320000	0.000000	0.000000	0.000000	0.000000	-56.470962	-117.986452	-59.637518	-55.568976	-0.000000	0.000000	0.000000	-0.000000	10.025820	6.363420	-3.631880	-0.033752	0.783445	0.597960	-1.000000	-1.000000	-1.000000	-1.000000	-1.000000	-1.000000	-1.000000	138.482759	0.000000	-1.000000	-1.000000	534363.000000	1772919098.676522
-2272.320000	20411.280000	-19213.920000	-14140.440000	0.000000	0.000000	0.000000	0.000000	10.708831	-170.807538	-0.590736	27.097672	-0.000000	0.000000	0.000000	-0.000000	-7.675780	-4.578000	-0.366240	-0.049133	0.823301	0.587035	-1.000000	-1.000000	-1.000000	-1.000000	-1.000000	-1.000000	-1.000000	138.482759	0.000000	-1.000000	-1.000000	534364.000000	1772919098.680420
-2389.005000	20400.750000	-19394.100000	-14252.220000	0.000000	0.000000	0.000000	0.000000	83.135353	-162.709056	64.985363	102.104380	-0.000000	0.000000	0.000000	-0.000000	-7.675780	-4.578000	-0.366240	-0.049133	0.823301	0.587035	-1.000000	-1.000000	-1.000000	-1.000000	-1.000000	-1.000000	-1.000000	138.482759	0.000000	-1.000000	-1.000000	534365.000000	1772919098.680423
-2457.180000	20470.410000	-19540.440000	-14294.880000	0.000000	0.000000	0.000000	0.000000	115.377230	-101.538736	89.378829	124.970362	-0.000000	0.000000	0.000000	-0.000000	-7.675780	-4.578000	-0.366240	-0.049133	0.823301	0.587035	-1.000000	-1.000000	-1.000000	-1.000000	-1.000000	-1.000000	-1.000000	138.482759	0.000000	-1.000000	-1.000000	534366.000000	1772919098.684476
-2442.960000	20574.090000	-19532.835000	-14281.020000	0.000000	0.000000	0.000000	0.000000	81.131048	-11.882844	47.666671	80.232899	-0.000000	0.000000	0.000000	-0.000000	-7.675780	-4.578000	-0.366240	-0.049133	0.823301	0.587035	-1.000000	-1.000000	-1.000000	-1.000000	-1.000000	-1.000000	-1.000000	138.482759	0.000000	-1.000000	-1.000000	534367.000000	1772919098.684479
-2436.075000	20534.130000	-19535.580000	-14303.700000	0.000000	0.000000	0.000000	0.000000	5.403524	72.625240	-26.080132	0.010349	-0.000000	0.000000	0.000000	-0.000000	-7.675780	-4.578000	-0.366240	-0.049133	0.823301	0.587035	-1.000000	-1.000000	-1.000000	-1.000000	-1.000000	-1.000000	-1.000000	138.482759	0.000000	-1.000000	-1.000000	534368.000000	1772919098.688591
-2538.855000	20437.110000	-19564.425000	-14336.325000	0.000000	0.000000	0.000000	0.000000	-63.152830	115.668945	-75.142581	-67.649627	-0.000000	0.000000	0.000000	-0.000000	-7.675780	-4.578000	-0.366240	-0.049133	0.823301	0.587035	-1.000000	-1.000000	-1.000000	-1.000000	-1.000000	-1.000000	-1.000000	138.482759	0.000000	-1.000000	-1.000000	534369.000000	1772919098.688594
-2493.810000	20357.730000	-19689.120000	-14406.660000	0.000000	0.000000	0.000000	0.000000	-94.246648	97.022905	-75.221909	-95.813202	-0.000000	0.000000	0.000000	-0.000000	-7.675780	-4.578000	-0.366240	-0.049133	0.823301	0.587035	-1.000000	-1.000000	-1.000000	-1.000000	-1.000000	-1.000000	-1.000000	138.482759	0.000000	-1.000000	-1.000000	534370.000000	1772919098.692465
-2391.120000	20362.635000	-19649.655000	-14356.575000	0.000000	0.000000	0.000000	0.000000	-80.284543	32.984558	-40.873440	-83.580079	-0.000000	0.000000	0.000000	-0.000000	-7.675780	-4.578000	-0.366240	-0.049133	0.823301	0.587035	-1.000000	-1.000000	-1.000000	-1.000000	-1.000000	-1.000000	-1.000000	138.482759	0.000000	-1.000000	-1.000000	534371.000000	1772919098.692467
-2372.445000	20352.825000	-19517.580000	-14215.770000	0.000000	0.000000	0.000000	0.000000	-29.511465	-32.581922	6.945531	-40.170919	-0.000000	0.000000	0.000000	-0.000000	-7.675780	-4.578000	-0.366240	-0.049133	0.823301	0.587035	-1.000000	-1.000000	-1.000000	-1.000000	-1.000000	-1.000000	-1.000000	138.482759	0.000000	-1.000000	-1.000000	534372.000000	1772919098.696503
-2419.830000	20429.100000	-19529.820000	-14247.855000	0.000000	0.000000	0.000000	0.000000	30.148859	-61.328997	55.773877	19.778460	-0.000000	0.000000	0.000000	-0.000000	-7.675780	-4.578000	-0.366240	-0.049133	0.823301	0.587035	-1.000000	-1.000000	-1.000000	-1.000000	-1.000000	-1.000000	-1.000000	138.482759	0.000000	-1.000000	-1.000000	534373.000000	1772919098.696506
-2459.205000	20473.695000	-19542.330000	-14341.860000	0.000000	0.000000	0.000000	0.000000	63.121509	-43.440559	88.026431	67.165299	-0.000000	0.000000	0.000000	-0.000000	-40.377960	-19.807480	2.136400	-0.061462	0.870420	0.593626	-1.000000	-1.000000	-1.000000	-1.000000	-1.000000	-1.000000	-1.000000	138.482759	0.000000	-1.000000	-1.000000	534374.000000	1772919098.700499
-2613.060000	20474.595000	-19661.805000	-14387.940000	0.000000	0.000000	0.000000	0.000000	51.787229	1.474121	82.557837	72.179557	-0.000000	0.000000	0.000000	-0.000000	-40.377960	-19.807480	2.136400	-0.061462	0.870420	0.593626	-1.000000	-1.000000	-1.000000	-1.000000	-1.000000	-1.000000	-1.000000	138.482759	0.000000	-1.000000	-1.000000	534375.000000	1772919098.700504
-2680.830000	20400.480000	-19774.530000	-14428.170000	0.000000	0.000000	0.000000	0.000000	6.039073	38.650376	34.567716	34.406107	-0.000000	0.000000	0.000000	-0.000000	-40.377960	-19.807480	2.136400	-0.061462	0.870420	0.593626	-1.000000	-1.000000	-1.000000	-1.000000	-1.000000	-1.000000	-1.000000	138.482759	0.000000	-1.000000	-1.000000	534376.000000	1772919098.704638
-2657.340000	20185.560000	-19874.655000	-14598.630000	0.000000	0.000000	0.000000	0.000000	-42.656132	38.954452	-35.451834	-19.234426	-0.000000	0.000000	0.000000	-0.000000	-40.377960	-19.807480	2.136400	-0.061462	0.870420	0.593626	-1.000000	-1.000000	-1.000000	-1.000000	-1.000000	-1.000000	-1.000000	138.482759	0.000000	-1.000000	-1.000000	534377.000000	1772919098.704641
-2655.990000	20152.530000	-19849.635000	-14619.330000	0.000000	0.000000	0.000000	0.000000	-59.469543	-1.312824	-90.119009	-60.661850	-0.000000	0.000000	0.000000	-0.000000	-40.377960	-19.807480	2.136400	-0.061462	0.870420	0.593626	-1.000000	-1.000000	-1.000000	-1.000000	-1.000000	-1.000000	-1.000000	138.482759	0.000000	-1.000000	-1.000000	534378.000000	1772919098.708524
-2394.270000	20224.440000	-19515.645000	-14423.355000	0.000000	0.000000	0.000000	0.000000	-28.678080	-50.189961	-91.033910	-67.202330	-0.000000	0.000000	0.000000	-0.000000	-40.377960	-19.807480	2.136400	-0.061462	0.870420	0.593626	-1.000000	-1.000000	-1.000000	-1.000000	-1.000000	-1.000000	-1.000000	138.482759	0.000000	-1.000000	-1.000000	534379.000000	1772919098.708526
-2142.675000	20253.735000	-19277.370000	-14161.410000	0.000000	0.000000	0.000000	0.000000	41.452276	-62.909208	-20.985981	-21.801783	-0.000000	0.000000	0.000000	-0.000000	-40.377960	-19.807480	2.136400	-0.061462	0.870420	0.593626	-1.000000	-1.000000	-1.000000	-1.000000	-1.000000	-1.000000	-1.000000	138.482759	0.000000	-1.000000	-1.000000	534380.000000	1772919098.712550
-2372.895000	20227.005000	-19512.495000	-14160.780000	0.000000	0.000000	0.000000	0.000000	113.360229	-26.757562	82.318562	62.137855	-0.000000	0.000000	0.000000	-0.000000	-40.377960	-19.807480	2.136400	-0.061462	0.870420	0.593626	-1.000000	-1.000000	-1.000000	-1.000000	-1.000000	-1.000000	-1.000000	138.482759	0.000000	-1.000000	-1.000000	534381.000000	1772919098.712553
-2459.475000	20239.605000	-19582.290000	-14186.655000	0.000000	0.000000	0.000000	0.000000	125.796405	29.176720	134.342262	128.643403	-0.000000	0.000000	0.000000	-0.000000	-40.377960	-19.807480	2.136400	-0.061462	0.870420	0.593626	-1.000000	-1.000000	-1.000000	-1.000000	-1.000000	-1.000000	-1.000000	138.482759	0.000000	-1.000000	-1.000000	534382.000000	1772919098.716584
-2510.055000	20260.530000	-19502.595000	-14242.905000	0.000000	0.000000	0.000000	0.000000	51.514896	67.687145	88.589788	122.463073	-0.000000	0.000000	0.000000	-0.000000	-40.377960	-19.807480	2.136400	-0.061462	0.870420	0.593626	-1.000000	-1.000000	-1.000000	-1.000000	-1.000000	-1.000000	-1.000000	138.482759	0.000000	-1.000000	-1.000000	534383.000000	1772919098.716587
-2680.965000	20209.410000	-19649.115000	-14439.420000	0.000000	0.000000	0.000000	0.000000	-66.517229	71.182814	-15.580320	38.211499	-0.000000	0.000000	0.000000	-0.000000	-78.939980	-27.117020	16.999640	-0.068664	0.904417	0.602049	-1.000000	-1.000000	-1.000000	-1.000000	-1.000000	-1.000000	-1.000000	138.482759	0.000000	-1.000000	-1.000000	534384.000000	1772919098.720643
-2850.525000	20104.920000	-19851.840000	-14674.320000	0.000000	0.000000	0.000000	0.000000	-160.733279	41.135188	-111.447766	-83.190619	-0.000000	0.000000	0.000000	-0.000000	-78.939980	-27.117020	16.999640	-0.068664	0.904417	0.602049	-1.000000	-1.000000	-1.000000	-1.000000	-1.000000	-1.000000	-1.000000	138.482759	0.000000	-1.000000	-1.000000	534385.000000	1772919098.720646
-2785.005000	20080.350000	-19767.015000	-14665.320000	0.000000	0.000000	0.000000	0.000000	-186.477701	-8.293710	-158.171062	-181.781736	-0.000000	0.000000	0.000000	-0.000000	-78.939980	-27.117020	16.999640	-0.068664	0.904417	0.602049	-1.000000	-1.000000	-1.000000	-1.000000	-1.000000	-1.000000	-1.000000	138.482759	0.000000	-1.000000	-1.000000	534386.000000	1772919098.724891
-2466.675000	20057.040000	-19550.205000	-14471.640000	0.000000	0.000000	0.000000	0.000000	-124.681152	-52.419275	-132.971744	-198.556964	-0.000000	0.000000	0.000000	-0.000000	-78.939980	-27.117020	16.999640	-0.068664	0.904417	0.602049	-1.000000	-1.000000	-1.000000	-1.000000	-1.000000	-1.000000	-1.000000	138.482759	0.000000	-1.000000	-1.000000	534387.000000	1772919098.724894
-2399.220000	20043.450000	-19375.560000	-14264.550000	0.000000	0.000000	0.000000	0.000000	10.858084	-68.251153	-34.140238	-107.148149	-0.000000	0.000000	0.000000	-0.000000	-78.939980	-27.117020	16.999640	-0.068664	0.904417	0.602049	-1.000000	-1.000000	-1.000000	-1.000000	-1.000000	-1.000000	-1.000000	138.482759	0.000000	-1.000000	-1.000000	534388.000000	1772919098.728623
-2284.245000	20017.080000	-19109.115000	-13985.595000	0.000000	0.000000	0.000000	0.000000	157.244027	-50.817852	98.929249	56.960449	-0.000000	0.000000	0.000000	-0.000000	-78.939980	-27.117020	16.999640	-0.068664	0.904417	0.602049	-1.000000	-1.000000	-1.000000	-1.000000	-1.000000	-1.000000	-1.000000	138.482759	0.000000	-1.000000	-1.000000	534389.000000	1772919098.728626
-2210.265000	20075.445000	-19134.000000	-14090.670000	0.000000	0.000000	0.000000	0.000000	234.671630	-12.856587	198.230053	206.884061	-0.000000	0.000000	0.000000	-0.000000	-78.939980	-27.117020	16.999640	-0.068664	0.904417	0.602049	-1.000000	-1.000000	-1.000000	-1.000000	-1.000000	-1.000000	-1.000000	138.482759	0.000000	-1.000000	-1.000000	534390.000000	1772919098.733048
-2339.505000	20100.285000	-19409.670000	-14345.145000	0.000000	0.000000	0.000000	0.000000	202.878699	28.109253	200.200206	248.854857	-0.000000	0.000000	0.000000	-0.000000	-78.939980	-27.117020	16.999640	-0.068664	0.904417	0.602049	-1.000000	-1.000000	-1.000000	-1.000000	-1.000000	-1.000000	-1.000000	138.482759	0.000000	-1.000000	-1.000000	534391.000000	1772919098.733051
-2669.220000	20122.335000	-19766.790000	-14481.855000	0.000000	0.000000	0.000000	0.000000	73.356327	56.928634	81.114802	145.827868	-0.000000	0.000000	0.000000	-0.000000	-78.939980	-27.117020	16.999640	-0.068664	0.904417	0.602049	-1.000000	-1.000000	-1.000000	-1.000000	-1.000000	-1.000000	-1.000000	138.482759	0.000000	-1.000000	-1.000000	534392.000000	1772919098.736578
-2689.515000	20213.685000	-19830.015000	-14535.495000	0.000000	0.000000	0.000000	0.000000	-100.493778	64.404485	-108.941747	-41.774895	-0.000000	0.000000	0.000000	-0.000000	-78.939980	-27.117020	16.999640	-0.068664	0.904417	0.602049	-1.000000	-1.000000	-1.000000	-1.000000	-1.000000	-1.000000	-1.000000	138.482759	0.000000	-1.000000	-1.000000	534393.000000	1772919098.736582
-2565.405000	20232.990000	-19713.870000	-14530.860000	0.000000	0.000000	0.000000	0.000000	-230.504719	51.485536	-255.980551	-197.095835	-0.000000	0.000000	0.000000	-0.000000	-37.371740	-41.095180	43.613080	-0.051941	0.927000	0.660765	-1.000000	-1.000000	-1.000000	-1.000000	-1.000000	-1.000000	-1.000000	138.482759	0.000000	-1.000000	-1.000000	534394.000000	1772919098.740774
-2533.095000	20268.405000	-19704.915000	-14648.040000	0.000000	0.000000	0.000000	0.000000	-240.490141	25.164157	-262.269649	-237.655788	-0.000000	0.000000	0.000000	-0.000000	-37.371740	-41.095180	43.613080	-0.051941	0.927000	0.660765	-1.000000	-1.000000	-1.000000	-1.000000	-1.000000	-1.000000	-1.000000	138.482759	0.000000	-1.000000	-1.000000	534395.000000	1772919098.740777
-2530.305000	20247.975000	-19705.185000	-14604.435000	0.000000	0.000000	0.000000	0.000000	-131.225566	-7.534555	-128.172258	-163.276653	-0.000000	0.000000	0.000000	-0.000000	-37.371740	-41.095180	43.613080	-0.051941	0.927000	0.660765	-1.000000	-1.000000	-1.000000	-1.000000	-1.000000	-1.000000	-1.000000	138.482759	0.000000	-1.000000	-1.000000	534396.000000	1772919098.745219
-2354.985000	20207.250000	-19467.675000	-14282.865000	0.000000	0.000000	0.000000	0.000000	25.347564	-40.046645	60.677955	-24.755506	-0.000000	0.000000	0.000000	-0.000000	-37.371740	-41.095180	43.613080	-0.051941	0.927000	0.660765	-1.000000	-1.000000	-1.000000	-1.000000	-1.000000	-1.000000	-1.000000	138.482759	0.000000	-1.000000	-1.000000	534397.000000	1772919098.745222
-2302.380000	20170.350000	-19382.670000	-14240.295000	0.000000	0.000000	0.000000	0.000000	150.905442	-65.394052	211.835907	121.445124	-0.000000	0.000000	0.000000	-0.000000	-37.371740	-41.095180	43.613080	-0.051941	0.927000	0.660765	-1.000000	-1.000000	-1.000000	-1.000000	-1.000000	-1.000000	-1.000000	138.482759	0.000000	-1.000000	-1.000000	534398.000000	1772919098.751467
-2296.845000	20184.030000	-19275.390000	-14240.295000	0.000000	0.000000	0.000000	0.000000	199.307210	-75.020548	270.665604	217.143218	-0.000000	0.000000	0.000000	-0.000000	-37.371740	-41.095180	43.613080	-0.051941	0.927000	0.660765	-1.000000	-1.000000	-1.000000	-1.000000	-1.000000	-1.000000	-1.000000	138.482759	0.000000	-1.000000	-1.000000	534399.000000	1772919098.751470
-2244.780000	20224.080000	-19130.130000	-14157.405000	0.000000	0.000000	0.000000	0.000000	162.181340	-61.062414	227.164536	217.355085	-0.000000	0.000000	0.000000	-0.000000	-37.371740	-41.095180	43.613080	-0.051941	0.927000	0.660765	-1.000000	-1.000000	-1.000000	-1.000000	-1.000000	-1.000000	-1.000000	138.482759	0.000000	-1.000000	-1.000000	534400.000000	1772919098.754614
-2465.640000	20220.885000	-19707.030000	-14591.430000	0.000000	0.000000	0.000000	0.000000	64.117197	-24.740852	101.811075	119.730322	-0.000000	0.000000	0.000000	-0.000000	-37.371740	-41.095180	43.613080	-0.051941	0.927000	0.660765	-1.000000	-1.000000	-1.000000	-1.000000	-1.000000	-1.000000	-1.000000	138.482759	0.000000	-1.000000	-1.000000	534401.000000	1772919098.754617
-2680.965000	20178.630000	-20168.280000	-14840.010000	0.000000	0.000000	0.000000	0.000000	-57.316665	17.999282	-81.125923	-41.681109	-0.000000	0.000000	0.000000	-0.000000	-37.371740	-41.095180	43.613080	-0.051941	0.927000	0.660765	-1.000000	-1.000000	-1.000000	-1.000000	-1.000000	-1.000000	-1.000000	138.482759	0.000000	-1.000000	-1.000000	534402.000000	1772919098.757976
-2553.570000	20204.280000	-19795.275000	-14603.670000	0.000000	0.000000	0.000000	0.000000	-157.878039	46.380264	-262.351660	-196.433923	-0.000000	0.000000	0.000000	-0.000000	-37.371740	-41.095180	43.613080	-0.051941	0.927000	0.660765	-1.000000	-1.000000	-1.000000	-1.000000	-1.000000	-1.000000	-1.000000	138.482759	0.000000	-1.000000	-1.000000	534403.000000	1772919098.757979
-2381.895000	20149.245000	-19591.020000	-14464.935000	0.000000	0.000000	0.000000	0.000000	-183.859618	50.977586	-324.920384	-248.480566	-0.000000	0.000000	0.000000	-0.000000	10.712520	-41.446160	61.848780	-0.042175	0.915159	0.693236	-1.000000	-1.000000	-1.000000	-1.000000	-1.000000	-1.000000	-1.000000	138.482759	0.000000	-1.000000	-1.000000	534404.000000	1772919098.760857
-2336.670000	20096.685000	-19463.490000	-14359.590000	0.000000	0.000000	0.000000	0.000000	-110.949655	35.094443	-201.826619	-156.114817	-0.000000	0.000000	0.000000	-0.000000	10.712520	-41.446160	61.848780	-0.042175	0.915159	0.693236	-1.000000	-1.000000	-1.000000	-1.000000	-1.000000	-1.000000	-1.000000	138.482759	0.000000	-1.000000	-1.000000	534405.000000	1772919098.760860
-2157.120000	20125.035000	-19258.245000	-14171.940000	0.000000	0.000000	0.000000	0.000000	20.120427	9.452192	34.794062	20.710287	-0.000000	0.000000	0.000000	-0.000000	10.712520	-41.446160	61.848780	-0.042175	0.915159	0.693236	-1.000000	-1.000000	-1.000000	-1.000000	-1.000000	-1.000000	-1.000000	138.482759	0.000000	-1.000000	-1.000000	534406.000000	1772919098.764637
-2348.235000	20169.405000	-19622.340000	-14443.965000	0.000000	0.000000	0.000000	0.000000	130.782503	-9.608554	234.135889	170.616432	-0.000000	0.000000	0.000000	-0.000000	10.712520	-41.446160	61.848780	-0.042175	0.915159	0.693236	-1.000000	-1.000000	-1.000000	-1.000000	-1.000000	-1.000000	-1.000000	138.482759	0.000000	-1.000000	-1.000000	534407.000000	1772919098.764640
-2341.170000	20211.795000	-19698.480000	-14472.675000	0.000000	0.000000	0.000000	0.000000	157.814888	-9.799565	277.094516	205.601509	-0.000000	0.000000	0.000000	-0.000000	10.712520	-41.446160	61.848780	-0.042175	0.915159	0.693236	-1.000000	-1.000000	-1.000000	-1.000000	-1.000000	-1.000000	-1.000000	138.482759	0.000000	-1.000000	-1.000000	534408.000000	1772919098.768708
-2473.245000	20120.625000	-19742.490000	-14558.355000	0.000000	0.000000	0.000000	0.000000	93.230893	3.745037	156.829663	117.794972	-0.000000	0.000000	0.000000	-0.000000	10.712520	-41.446160	61.848780	-0.042175	0.915159	0.693236	-1.000000	-1.000000	-1.000000	-1.000000	-1.000000	-1.000000	-1.000000	138.482759	0.000000	-1.000000	-1.000000	534409.000000	1772919098.768711
-2423.250000	19963.620000	-19690.155000	-14525.505000	0.000000	0.000000	0.000000	0.000000	-13.478295	9.619107	-23.520470	-19.872138	-0.000000	0.000000	0.000000	-0.000000	10.712520	-41.446160	61.848780	-0.042175	0.915159	0.693236	-1.000000	-1.000000	-1.000000	-1.000000	-1.000000	-1.000000	-1.000000	138.482759	0.000000	-1.000000	-1.000000	534410.000000	1772919098.772746
-2267.055000	19945.620000	-19681.965000	-14470.245000	0.000000	0.000000	0.000000	0.000000	-92.250724	-7.084597	-145.501755	-117.532673	-0.000000	0.000000	0.000000	-0.000000	10.712520	-41.446160	61.848780	-0.042175	0.915159	0.693236	-1.000000	-1.000000	-1.000000	-1.000000	-1.000000	-1.000000	-1.000000	138.482759	0.000000	-1.000000	-1.000000	534411.000000	1772919098.772749
-2348.280000	19998.630000	-19740.555000	-14468.580000	0.000000	0.000000	0.000000	0.000000	-100.519001	-32.332530	-160.392245	-129.938606	-0.000000	0.000000	0.000000	-0.000000	10.712520	-41.446160	61.848780	-0.042175	0.915159	0.693236	-1.000000	-1.000000	-1.000000	-1.000000	-1.000000	-1.000000	-1.000000	138.482759	0.000000	-1.000000	-1.000000	534412.000000	1772919098.776782
-2401.380000	20053.845000	-19765.890000	-14433.525000	0.000000	0.000000	0.000000	0.000000	-53.792080	-36.034234	-96.751061	-72.481457	-0.000000	0.000000	0.000000	-0.000000	10.712520	-41.446160	61.848780	-0.042175	0.915159	0.693236	-1.000000	-1.000000	-1.000000	-1.000000	-1.000000	-1.000000	-1.000000	138.482759	0.000000	-1.000000	-1.000000	534413.000000	1772919098.776784
-2388.915000	19958.445000	-19540.485000	-14320.305000	0.000000	0.000000	0.000000	0.000000	-0.469525	-9.216192	-8.728404	7.780487	-0.000000	0.000000	0.000000	-0.000000	53.989880	-54.005140	101.906280	-0.070801	0.842954	0.688536	-1.000000	-1.000000	-1.000000	-1.000000	-1.000000	-1.000000	-1.000000	138.482759	0.000000	-1.000000	-1.000000	534414.000000	1772919098.780766
-2464.245000	19941.300000	-19215.765000	-14382.630000	0.000000	0.000000	0.000000	0.000000	28.104068	24.943048	73.508521	68.514815	-0.000000	0.000000	0.000000	-0.000000	53.989880	-54.005140	101.906280	-0.070801	0.842954	0.688536	-1.000000	-1.000000	-1.000000	-1.000000	-1.000000	-1.000000	-1.000000	138.482759	0.000000	-1.000000	-1.000000	534415.000000	1772919098.780769
-2433.645000	19938.735000	-18939.105000	-14465.925000	0.000000	0.000000	0.000000	0.000000	29.903396	40.368945	141.026698	83.271649	-0.000000	0.000000	0.000000	-0.000000	53.989880	-54.005140	101.906280	-0.070801	0.842954	0.688536	-1.000000	-1.000000	-1.000000	-1.000000	-1.000000	-1.000000	-1.000000	138.482759	0.000000	-1.000000	-1.000000	534416.000000	1772919098.784668
-2448.405000	19941.345000	-19276.110000	-14481.360000	0.000000	0.000000	0.000000	0.000000	18.978593	33.457739	167.296203	48.358676	-0.000000	0.000000	0.000000	-0.000000	53.989880	-54.005140	101.906280	-0.070801	0.842954	0.688536	-1.000000	-1.000000	-1.000000	-1.000000	-1.000000	-1.000000	-1.000000	138.482759	0.000000	-1.000000	-1.000000	534417.000000	1772919098.784671
-2597.805000	19997.235000	-19966.140000	-14618.880000	0.000000	0.000000	0.000000	0.000000	7.488670	17.364759	97.102179	-12.380433	-0.000000	0.000000	0.000000	-0.000000	53.989880	-54.005140	101.906280	-0.070801	0.842954	0.688536	-1.000000	-1.000000	-1.000000	-1.000000	-1.000000	-1.000000	-1.000000	138.482759	0.000000	-1.000000	-1.000000	534418.000000	1772919098.788772
-2564.460000	19993.995000	-20156.175000	-14620.185000	0.000000	0.000000	0.000000	0.000000	-3.183152	5.308009	-85.366540	-64.421397	-0.000000	0.000000	0.000000	-0.000000	53.989880	-54.005140	101.906280	-0.070801	0.842954	0.688536	-1.000000	-1.000000	-1.000000	-1.000000	-1.000000	-1.000000	-1.000000	138.482759	0.000000	-1.000000	-1.000000	534419.000000	1772919098.788776
-2415.015000	19987.245000	-20014.515000	-14555.565000	0.000000	0.000000	0.000000	0.000000	-7.208122	-0.006642	-280.393924	-80.265762	-0.000000	0.000000	0.000000	-0.000000	53.989880	-54.005140	101.906280	-0.070801	0.842954	0.688536	-1.000000	-1.000000	-1.000000	-1.000000	-1.000000	-1.000000	-1.000000	138.482759	0.000000	-1.000000	-1.000000	534420.000000	1772919098.792783
-2402.145000	20019.330000	-19843.020000	-14438.475000	0.000000	0.000000	0.000000	0.000000	7.552467	-3.744339	-332.850920	-48.056152	-0.000000	0.000000	0.000000	-0.000000	53.989880	-54.005140	101.906280	-0.070801	0.842954	0.688536	-1.000000	-1.000000	-1.000000	-1.000000	-1.000000	-1.000000	-1.000000	138.482759	0.000000	-1.000000	-1.000000	534421.000000	1772919098.792786
-2602.530000	20006.910000	-19940.040000	-14438.295000	0.000000	0.000000	0.000000	0.000000	31.031499	-8.861658	-187.314066	17.379622	-0.000000	0.000000	0.000000	-0.000000	53.989880	-54.005140	101.906280	-0.070801	0.842954	0.688536	-1.000000	-1.000000	-1.000000	-1.000000	-1.000000	-1.000000	-1.000000	138.482759	0.000000	-1.000000	-1.000000	534422.000000	1772919098.796799
-2387.790000	20061.945000	-19867.410000	-14180.580000	0.000000	0.000000	0.000000	0.000000	36.314266	-13.547724	59.723374	81.316535	-0.000000	0.000000	0.000000	-0.000000	53.989880	-54.005140	101.906280	-0.070801	0.842954	0.688536	-1.000000	-1.000000	-1.000000	-1.000000	-1.000000	-1.000000	-1.000000	138.482759	0.000000	-1.000000	-1.000000	534423.000000	1772919098.796801
-2392.785000	20079.945000	-19760.400000	-14070.510000	0.000000	0.000000	0.000000	0.000000	21.382833	-14.239272	261.954302	116.825185	-0.000000	0.000000	0.000000	-0.000000	-110.238240	-48.740440	110.558700	-0.008118	0.827574	0.624571	-1.000000	-1.000000	-1.000000	-1.000000	-1.000000	-1.000000	-1.000000	138.482759	0.000000	-1.000000	-1.000000	534424.000000	1772919098.800783
-2431.980000	20042.730000	-19781.325000	-14269.770000	0.000000	0.000000	0.000000	0.000000	3.652343	-10.829269	333.268368	108.177464	-0.000000	0.000000	0.000000	-0.000000	-110.238240	-48.740440	110.558700	-0.008118	0.827574	0.624571	-1.000000	-1.000000	-1.000000	-1.000000	-1.000000	-1.000000	-1.000000	138.482759	0.000000	-1.000000	-1.000000	534425.000000	1772919098.800785
-2604.015000	20015.235000	-20015.190000	-14697.045000	0.000000	0.000000	0.000000	0.000000	-15.053047	-9.162742	263.876069	37.230125	-0.000000	0.000000	0.000000	-0.000000	-110.238240	-48.740440	110.558700	-0.008118	0.827574	0.624571	-1.000000	-1.000000	-1.000000	-1.000000	-1.000000	-1.000000	-1.000000	138.482759	0.000000	-1.000000	-1.000000	534426.000000	1772919098.804887
-2723.355000	20033.730000	-20216.025000	-14836.365000	0.000000	0.000000	0.000000	0.000000	-42.987671	-12.547603	93.740272	-90.214786	-0.000000	0.000000	0.000000	-0.000000	-110.238240	-48.740440	110.558700	-0.008118	0.827574	0.624571	-1.000000	-1.000000	-1.000000	-1.000000	-1.000000	-1.000000	-1.000000	138.482759	0.000000	-1.000000	-1.000000	534427.000000	1772919098.804889
-2560.905000	20044.170000	-19996.110000	-14635.620000	0.000000	0.000000	0.000000	0.000000	-69.372155	-15.296556	-95.875163	-205.672978	-0.000000	0.000000	0.000000	-0.000000	-110.238240	-48.740440	110.558700	-0.008118	0.827574	0.624571	-1.000000	-1.000000	-1.000000	-1.000000	-1.000000	-1.000000	-1.000000	138.482759	0.000000	-1.000000	-1.000000	534428.000000	1772919098.808862
-2644.965000	20083.230000	-19940.445000	-14537.160000	0.000000	0.000000	0.000000	0.000000	-65.724504	-9.874535	-206.167174	-215.542246	-0.000000	0.000000	0.000000	-0.000000	-110.238240	-48.740440	110.558700	-0.008118	0.827574	0.624571	-1.000000	-1.000000	-1.000000	-1.000000	-1.000000	-1.000000	-1.000000	138.482759	0.000000	-1.000000	-1.000000	534429.000000	1772919098.808865
-2586.510000	20166.120000	-19824.210000	-14421.330000	0.000000	0.000000	0.000000	0.000000	-23.605864	5.347942	-188.766718	-95.334856	-0.000000	0.000000	0.000000	-0.000000	-110.238240	-48.740440	110.558700	-0.008118	0.827574	0.624571	-1.000000	-1.000000	-1.000000	-1.000000	-1.000000	-1.000000	-1.000000	138.482759	0.000000	-1.000000	-1.000000	534430.000000	1772919098.812824
-2578.770000	20287.800000	-19694.655000	-14365.845000	0.000000	0.000000	0.000000	0.000000	33.046595	26.756371	-79.675275	82.444363	-0.000000	0.000000	0.000000	-0.000000	-110.238240	-48.740440	110.558700	-0.008118	0.827574	0.624571	-1.000000	-1.000000	-1.000000	-1.000000	-1.000000	-1.000000	-1.000000	138.482759	0.000000	-1.000000	-1.000000	534431.000000	1772919098.812828
-2602.395000	20389.050000	-19670.805000	-14413.005000	0.000000	0.000000	0.000000	0.000000	73.466273	47.276250	42.298198	211.992115	-0.000000	0.000000	0.000000	-0.000000	-110.238240	-48.740440	110.558700	-0.008118	0.827574	0.624571	-1.000000	-1.000000	-1.000000	-1.000000	-1.000000	-1.000000	-1.000000	138.482759	0.000000	-1.000000	-1.000000	534432.000000	1772919098.816823
-2547.675000	20395.215000	-19618.965000	-14324.130000	0.000000	0.000000	0.000000	0.000000	80.323654	55.283289	110.390838	229.636139	-0.000000	0.000000	0.000000	-0.000000	-110.238240	-48.740440	110.558700	-0.008118	0.827574	0.624571	-1.000000	-1.000000	-1.000000	-1.000000	-1.000000	-1.000000	-1.000000	138.482759	0.000000	-1.000000	-1.000000	534433.000000	1772919098.816826
-2587.680000	20446.380000	-19825.020000	-14450.760000	0.000000	0.000000	0.000000	0.000000	56.150476	39.478247	97.309695	143.628720	-0.000000	0.000000	0.000000	-0.000000	-115.274040	-30.077460	-32.732700	0.098449	0.668883	0.592894	-1.000000	-1.000000	-1.000000	-1.000000	-1.000000	-1.000000	-1.000000	138.482759	0.000000	-1.000000	-1.000000	534434.000000	1772919098.820720
-2649.780000	20393.820000	-20119.545000	-14619.510000	0.000000	0.000000	0.000000	0.000000	14.945662	0.272788	13.357797	6.620833	-0.000000	0.000000	0.000000	-0.000000	-115.274040	-30.077460	-32.732700	0.098449	0.668883	0.592894	-1.000000	-1.000000	-1.000000	-1.000000	-1.000000	-1.000000	-1.000000	138.482759	0.000000	-1.000000	-1.000000	534435.000000	1772919098.820723
-2696.580000	20355.840000	-20131.965000	-14699.790000	0.000000	0.000000	0.000000	0.000000	-28.986208	-48.482443	-99.202247	-122.974058	-0.000000	0.000000	0.000000	-0.000000	-115.274040	-30.077460	-32.732700	0.098449	0.668883	0.592894	-1.000000	-1.000000	-1.000000	-1.000000	-1.000000	-1.000000	-1.000000	138.482759	0.000000	-1.000000	-1.000000	534436.000000	1772919098.824847
-2696.130000	20423.430000	-19921.185000	-14498.550000	0.000000	0.000000	0.000000	0.000000	-60.718296	-85.487378	-168.232028	-191.000891	-0.000000	0.000000	0.000000	-0.000000	-115.274040	-30.077460	-32.732700	0.098449	0.668883	0.592894	-1.000000	-1.000000	-1.000000	-1.000000	-1.000000	-1.000000	-1.000000	138.482759	0.000000	-1.000000	-1.000000	534437.000000	1772919098.824850
-2662.830000	20501.190000	-19807.335000	-14395.140000	0.000000	0.000000	0.000000	0.000000	-66.196639	-88.837202	-133.690014	-161.732169	-0.000000	0.000000	0.000000	-0.000000	-115.274040	-30.077460	-32.732700	0.098449	0.668883	0.592894	-1.000000	-1.000000	-1.000000	-1.000000	-1.000000	-1.000000	-1.000000	138.482759	0.000000	-1.000000	-1.000000	534438.000000	1772919098.828908
-2526.120000	20579.490000	-19644.660000	-14311.755000	0.000000	0.000000	0.000000	0.000000	-39.753649	-51.346421	-6.569421	-50.803661	-0.000000	0.000000	0.000000	-0.000000	-115.274040	-30.077460	-32.732700	0.098449	0.668883	0.592894	-1.000000	-1.000000	-1.000000	-1.000000	-1.000000	-1.000000	-1.000000	138.482759	0.000000	-1.000000	-1.000000	534439.000000	1772919098.828911
-2732.670000	20653.155000	-19870.290000	-14586.390000	0.000000	0.000000	0.000000	0.000000	5.234447	9.368519	130.624071	69.382007	-0.000000	0.000000	0.000000	-0.000000	-115.274040	-30.077460	-32.732700	0.098449	0.668883	0.592894	-1.000000	-1.000000	-1.000000	-1.000000	-1.000000	-1.000000	-1.000000	138.482759	0.000000	-1.000000	-1.000000	534440.000000	1772919098.832799
-2568.780000	20698.695000	-19721.340000	-14437.665000	0.000000	0.000000	0.000000	0.000000	39.245794	62.134583	189.038093	122.915383	-0.000000	0.000000	0.000000	-0.000000	-115.274040	-30.077460	-32.732700	0.098449	0.668883	0.592894	-1.000000	-1.000000	-1.000000	-1.000000	-1.000000	-1.000000	-1.000000	138.482759	0.000000	-1.000000	-1.000000	534441.000000	1772919098.832802
-2716.605000	20726.685000	-19773.900000	-14430.690000	0.000000	0.000000	0.000000	0.000000	44.418622	82.163328	145.213296	97.089176	-0.000000	0.000000	0.000000	-0.000000	-115.274040	-30.077460	-32.732700	0.098449	0.668883	0.592894	-1.000000	-1.000000	-1.000000	-1.000000	-1.000000	-1.000000	-1.000000	138.482759	0.000000	-1.000000	-1.000000	534442.000000	1772919098.836971
-2950.290000	20736.585000	-20026.530000	-14608.665000	0.000000	0.000000	0.000000	0.000000	20.560507	63.496556	39.284537	33.364083	-0.000000	0.000000	0.000000	-0.000000	-115.274040	-30.077460	-32.732700	0.098449	0.668883	0.592894	-1.000000	-1.000000	-1.000000	-1.000000	-1.000000	-1.000000	-1.000000	138.482759	0.000000	-1.000000	-1.000000	534443.000000	1772919098.836973
-2900.700000	20722.635000	-20037.600000	-14700.195000	0.000000	0.000000	0.000000	0.000000	-23.438283	18.875203	-75.968593	-31.761217	-0.000000	0.000000	0.000000	-0.000000	-16.923340	-4.089680	-35.510020	0.066528	0.538024	0.570799	-1.000000	-1.000000	-1.000000	-1.000000	-1.000000	-1.000000	-1.000000	138.482759	0.000000	-1.000000	-1.000000	534444.000000	1772919098.840868
-2841.615000	20667.870000	-20109.105000	-14743.305000	0.000000	0.000000	0.000000	0.000000	-57.502980	-30.569842	-152.410101	-78.271335	-0.000000	0.000000	0.000000	-0.000000	-16.923340	-4.089680	-35.510020	0.066528	0.538024	0.570799	-1.000000	-1.000000	-1.000000	-1.000000	-1.000000	-1.000000	-1.000000	138.482759	0.000000	-1.000000	-1.000000	534445.000000	1772919098.840871
-2879.145000	20659.905000	-19996.290000	-14605.020000	0.000000	0.000000	0.000000	0.000000	-49.286612	-65.877597	-154.884827	-85.986537	-0.000000	0.000000	0.000000	-0.000000	-16.923340	-4.089680	-35.510020	0.066528	0.538024	0.570799	-1.000000	-1.000000	-1.000000	-1.000000	-1.000000	-1.000000	-1.000000	138.482759	0.000000	-1.000000	-1.000000	534446.000000	1772919098.847751
-2628.495000	20704.095000	-19581.075000	-14359.005000	0.000000	0.000000	0.000000	0.000000	0.797256	-73.742936	-76.073665	-40.391856	-0.000000	0.000000	0.000000	-0.000000	-16.923340	-4.089680	-35.510020	0.066528	0.538024	0.570799	-1.000000	-1.000000	-1.000000	-1.000000	-1.000000	-1.000000	-1.000000	138.482759	0.000000	-1.000000	-1.000000	534447.000000	1772919098.847754
-2568.240000	20901.555000	-19563.345000	-14401.710000	0.000000	0.000000	0.000000	0.000000	66.949506	-46.766734	55.831840	43.932919	-0.000000	0.000000	0.000000	-0.000000	-16.923340	-4.089680	-35.510020	0.066528	0.538024	0.570799	-1.000000	-1.000000	-1.000000	-1.000000	-1.000000	-1.000000	-1.000000	138.482759	0.000000	-1.000000	-1.000000	534448.000000	1772919098.850708
-2686.320000	20942.820000	-19949.985000	-14514.165000	0.000000	0.000000	0.000000	0.000000	111.463983	9.553126	163.341577	112.550998	-0.000000	0.000000	0.000000	-0.000000	-16.923340	-4.089680	-35.510020	0.066528	0.538024	0.570799	-1.000000	-1.000000	-1.000000	-1.000000	-1.000000	-1.000000	-1.000000	138.482759	0.000000	-1.000000	-1.000000	534449.000000	1772919098.850711
-2761.290000	20908.980000	-20144.430000	-14585.130000	0.000000	0.000000	0.000000	0.000000	97.039779	66.475425	157.861680	110.621997	-0.000000	0.000000	0.000000	-0.000000	-16.923340	-4.089680	-35.510020	0.066528	0.538024	0.570799	-1.000000	-1.000000	-1.000000	-1.000000	-1.000000	-1.000000	-1.000000	138.482759	0.000000	-1.000000	-1.000000	534450.000000	1772919098.853886
-2883.105000	20941.560000	-20123.730000	-14688.315000	0.000000	0.000000	0.000000	0.000000	20.385443	86.731863	35.770390	36.351997	-0.000000	0.000000	0.000000	-0.000000	-16.923340	-4.089680	-35.510020	0.066528	0.538024	0.570799	-1.000000	-1.000000	-1.000000	-1.000000	-1.000000	-1.000000	-1.000000	138.482759	0.000000	-1.000000	-1.000000	534451.000000	1772919098.853890
-2893.005000	20829.735000	-20055.285000	-14644.665000	0.000000	0.000000	0.000000	0.000000	-76.467510	57.138632	-104.067739	-59.128318	-0.000000	0.000000	0.000000	-0.000000	-16.923340	-4.089680	-35.510020	0.066528	0.538024	0.570799	-1.000000	-1.000000	-1.000000	-1.000000	-1.000000	-1.000000	-1.000000	138.482759	0.000000	-1.000000	-1.000000	534452.000000	1772919098.857000
-2819.520000	20857.635000	-19892.520000	-14556.150000	0.000000	0.000000	0.000000	0.000000	-135.364044	-3.375751	-156.007056	-113.430341	-0.000000	0.000000	0.000000	-0.000000	-16.923340	-4.089680	-35.510020	0.066528	0.538024	0.570799	-1.000000	-1.000000	-1.000000	-1.000000	-1.000000	-1.000000	-1.000000	138.482759	0.000000	-1.000000	-1.000000	534453.000000	1772919098.857003
-2805.885000	20903.085000	-19847.025000	-14580.765000	0.000000	0.000000	0.000000	0.000000	-121.873684	-58.077022	-94.201140	-96.941511	-0.000000	0.000000	0.000000	-0.000000	-27.086500	19.700660	22.798440	0.023437	0.640501	0.571227	-1.000000	-1.000000	-1.000000	-1.000000	-1.000000	-1.000000	-1.000000	138.482759	0.000000	-1.000000	-1.000000	534454.000000	1772919098.863114
-2572.515000	20959.695000	-19606.275000	-14409.765000	0.000000	0.000000	0.000000	0.000000	-45.280706	-74.483907	27.544256	-28.723892	-0.000000	0.000000	0.000000	-0.000000	-27.086500	19.700660	22.798440	0.023437	0.640501	0.571227	-1.000000	-1.000000	-1.000000	-1.000000	-1.000000	-1.000000	-1.000000	138.482759	0.000000	-1.000000	-1.000000	534455.000000	1772919098.863117
-2592.405000	21020.580000	-19636.830000	-14375.655000	0.000000	0.000000	0.000000	0.000000	53.036554	-46.607430	130.879300	48.611987	-0.000000	0.000000	0.000000	-0.000000	-27.086500	19.700660	22.798440	0.023437	0.640501	0.571227	-1.000000	-1.000000	-1.000000	-1.000000	-1.000000	-1.000000	-1.000000	138.482759	0.000000	-1.000000	-1.000000	534456.000000	1772919098.864927
-2684.880000	21025.845000	-19592.955000	-14413.005000	0.000000	0.000000	0.000000	0.000000	118.881086	3.279700	159.533942	95.549817	-0.000000	0.000000	0.000000	-0.000000	-27.086500	19.700660	22.798440	0.023437	0.640501	0.571227	-1.000000	-1.000000	-1.000000	-1.000000	-1.000000	-1.000000	-1.000000	138.482759	0.000000	-1.000000	-1.000000	534457.000000	1772919098.864930
-2754.135000	21073.590000	-19631.880000	-14384.115000	0.000000	0.000000	0.000000	0.000000	112.224248	43.692364	102.375519	89.363238	-0.000000	0.000000	0.000000	-0.000000	-27.086500	19.700660	22.798440	0.023437	0.640501	0.571227	-1.000000	-1.000000	-1.000000	-1.000000	-1.000000	-1.000000	-1.000000	138.482759	0.000000	-1.000000	-1.000000	534458.000000	1772919098.869067
-2685.690000	21143.520000	-19893.600000	-14532.750000	0.000000	0.000000	0.000000	0.000000	41.941214	56.538185	-9.377340	35.687147	-0.000000	0.000000	0.000000	-0.000000	-27.086500	19.700660	22.798440	0.023437	0.640501	0.571227	-1.000000	-1.000000	-1.000000	-1.000000	-1.000000	-1.000000	-1.000000	138.482759	0.000000	-1.000000	-1.000000	534459.000000	1772919098.869070
-2744.190000	21181.230000	-19957.680000	-14666.760000	0.000000	0.000000	0.000000	0.000000	-40.105960	44.505106	-126.997594	-39.343883	-0.000000	0.000000	0.000000	-0.000000	-27.086500	19.700660	22.798440	0.023437	0.640501	0.571227	-1.000000	-1.000000	-1.000000	-1.000000	-1.000000	-1.000000	-1.000000	138.482759	0.000000	-1.000000	-1.000000	534460.000000	1772919098.872978
-2841.975000	21066.615000	-19974.825000	-14653.395000	0.000000	0.000000	0.000000	0.000000	-88.744614	17.206767	-198.424730	-102.437445	-0.000000	0.000000	0.000000	-0.000000	-27.086500	19.700660	22.798440	0.023437	0.640501	0.571227	-1.000000	-1.000000	-1.000000	-1.000000	-1.000000	-1.000000	-1.000000	138.482759	0.000000	-1.000000	-1.000000	534461.000000	1772919098.872981
-2785.545000	20841.345000	-19726.740000	-14525.145000	0.000000	0.000000	0.000000	0.000000	-92.571109	-23.012745	-181.063438	-117.988024	-0.000000	0.000000	0.000000	-0.000000	-27.086500	19.700660	22.798440	0.023437	0.640501	0.571227	-1.000000	-1.000000	-1.000000	-1.000000	-1.000000	-1.000000	-1.000000	138.482759	0.000000	-1.000000	-1.000000	534462.000000	1772919098.877008
-2659.815000	20860.335000	-19412.370000	-14340.780000	0.000000	0.000000	0.000000	0.000000	-57.267536	-70.261914	-67.033021	-66.399818	-0.000000	0.000000	0.000000	-0.000000	-27.086500	19.700660	22.798440	0.023437	0.640501	0.571227	-1.000000	-1.000000	-1.000000	-1.000000	-1.000000	-1.000000	-1.000000	138.482759	0.000000	-1.000000	-1.000000	534463.000000	1772919098.877010
-2546.640000	20856.285000	-19451.970000	-14264.055000	0.000000	0.000000	0.000000	0.000000	5.949260	-97.833251	95.396776	32.248490	-0.000000	0.000000	0.000000	-0.000000	-42.361760	8.118320	6.943300	0.025085	0.764769	0.635863	-1.000000	-1.000000	-1.000000	-1.000000	-1.000000	-1.000000	-1.000000	138.482759	0.000000	-1.000000	-1.000000	534464.000000	1772919098.881076
-2588.445000	20866.545000	-19782.855000	-14319.315000	0.000000	0.000000	0.000000	0.000000	70.668605	-77.851478	207.203367	120.572604	-0.000000	0.000000	0.000000	-0.000000	-42.361760	8.118320	6.943300	0.025085	0.764769	0.635863	-1.000000	-1.000000	-1.000000	-1.000000	-1.000000	-1.000000	-1.000000	138.482759	0.000000	-1.000000	-1.000000	534465.000000	1772919098.881079
-2621.745000	20916.630000	-19811.025000	-14303.295000	0.000000	0.000000	0.000000	0.000000	99.531190	-13.773589	187.595679	142.456642	-0.000000	0.000000	0.000000	-0.000000	-42.361760	8.118320	6.943300	0.025085	0.764769	0.635863	-1.000000	-1.000000	-1.000000	-1.000000	-1.000000	-1.000000	-1.000000	138.482759	0.000000	-1.000000	-1.000000	534466.000000	1772919098.885052
-2701.170000	21042.135000	-19948.500000	-14655.825000	0.000000	0.000000	0.000000	0.000000	72.421374	64.046038	54.304695	81.738802	-0.000000	0.000000	0.000000	-0.000000	-42.361760	8.118320	6.943300	0.025085	0.764769	0.635863	-1.000000	-1.000000	-1.000000	-1.000000	-1.000000	-1.000000	-1.000000	138.482759	0.000000	-1.000000	-1.000000	534467.000000	1772919098.885055
-2799.495000	21084.390000	-19968.255000	-14841.225000	0.000000	0.000000	0.000000	0.000000	4.031282	122.102272	-95.349120	-35.597086	-0.000000	0.000000	0.000000	-0.000000	-42.361760	8.118320	6.943300	0.025085	0.764769	0.635863	-1.000000	-1.000000	-1.000000	-1.000000	-1.000000	-1.000000	-1.000000	138.482759	0.000000	-1.000000	-1.000000	534468.000000	1772919098.889005
-2717.370000	21029.940000	-19913.715000	-14590.800000	0.000000	0.000000	0.000000	0.000000	-65.723074	134.777281	-170.253964	-146.027118	-0.000000	0.000000	0.000000	-0.000000	-42.361760	8.118320	6.943300	0.025085	0.764769	0.635863	-1.000000	-1.000000	-1.000000	-1.000000	-1.000000	-1.000000	-1.000000	138.482759	0.000000	-1.000000	-1.000000	534469.000000	1772919098.889007
-2651.040000	20960.820000	-19872.360000	-14463.720000	0.000000	0.000000	0.000000	0.000000	-94.110806	91.313940	-138.927574	-169.504974	-0.000000	0.000000	0.000000	-0.000000	-42.361760	8.118320	6.943300	0.025085	0.764769	0.635863	-1.000000	-1.000000	-1.000000	-1.000000	-1.000000	-1.000000	-1.000000	138.482759	0.000000	-1.000000	-1.000000	534470.000000	1772919098.893106
-2668.455000	20984.580000	-19631.565000	-14356.980000	0.000000	0.000000	0.000000	0.000000	-65.620310	8.487661	-30.656156	-79.590424	-0.000000	0.000000	0.000000	-0.000000	-42.361760	8.118320	6.943300	0.025085	0.764769	0.635863	-1.000000	-1.000000	-1.000000	-1.000000	-1.000000	-1.000000	-1.000000	138.482759	0.000000	-1.000000	-1.000000	534471.000000	1772919098.893110
-2656.935000	21128.895000	-19519.380000	-14354.325000	0.000000	0.000000	0.000000	0.000000	-5.608942	-69.249477	95.043001	61.923551	-0.000000	0.000000	0.000000	-0.000000	-42.361760	8.118320	6.943300	0.025085	0.764769	0.635863	-1.000000	-1.000000	-1.000000	-1.000000	-1.000000	-1.000000	-1.000000	138.482759	0.000000	-1.000000	-1.000000	534472.000000	1772919098.897088
-2610.270000	21285.000000	-19660.680000	-14409.675000	0.000000	0.000000	0.000000	0.000000	46.024543	-96.721243	174.173736	159.913194	-0.000000	0.000000	0.000000	-0.000000	-42.361760	8.118320	6.943300	0.025085	0.764769	0.635863	-1.000000	-1.000000	-1.000000	-1.000000	-1.000000	-1.000000	-1.000000	138.482759	0.000000	-1.000000	-1.000000	534473.000000	1772919098.897091
-2504.565000	21337.290000	-19704.465000	-14440.410000	0.000000	0.000000	0.000000	0.000000	68.661989	-64.234518	160.218540	159.510673	-0.000000	0.000000	0.000000	-0.000000	-1.342880	-4.654300	-17.549000	0.013733	0.715696	0.689024	-1.000000	-1.000000	-1.000000	-1.000000	-1.000000	-1.000000	-1.000000	138.482759	0.000000	-1.000000	-1.000000	534474.000000	1772919098.901063
-2696.490000	21354.345000	-19876.230000	-14597.370000	0.000000	0.000000	0.000000	0.000000	60.892825	-6.076411	57.265123	72.718445	-0.000000	0.000000	0.000000	-0.000000	-1.342880	-4.654300	-17.549000	0.013733	0.715696	0.689024	-1.000000	-1.000000	-1.000000	-1.000000	-1.000000	-1.000000	-1.000000	138.482759	0.000000	-1.000000	-1.000000	534475.000000	1772919098.901067
-2855.970000	21211.515000	-19989.270000	-14729.220000	0.000000	0.000000	0.000000	0.000000	22.155638	28.645499	-78.562794	-46.450940	-0.000000	0.000000	0.000000	-0.000000	-1.342880	-4.654300	-17.549000	0.013733	0.715696	0.689024	-1.000000	-1.000000	-1.000000	-1.000000	-1.000000	-1.000000	-1.000000	138.482759	0.000000	-1.000000	-1.000000	534476.000000	1772919098.905050
-2833.245000	21135.735000	-19987.200000	-14756.535000	0.000000	0.000000	0.000000	0.000000	-37.739570	13.461581	-176.238413	-138.163507	-0.000000	0.000000	0.000000	-0.000000	-1.342880	-4.654300	-17.549000	0.013733	0.715696	0.689024	-1.000000	-1.000000	-1.000000	-1.000000	-1.000000	-1.000000	-1.000000	138.482759	0.000000	-1.000000	-1.000000	534477.000000	1772919098.905053
-2729.475000	21139.110000	-19860.840000	-14626.080000	0.000000	0.000000	0.000000	0.000000	-81.347155	-35.902213	-185.163276	-157.618100	-0.000000	0.000000	0.000000	-0.000000	-1.342880	-4.654300	-17.549000	0.013733	0.715696	0.689024	-1.000000	-1.000000	-1.000000	-1.000000	-1.000000	-1.000000	-1.000000	138.482759	0.000000	-1.000000	-1.000000	534478.000000	1772919098.909087
-2628.090000	21166.830000	-19759.005000	-14495.490000	0.000000	0.000000	0.000000	0.000000	-70.443999	-74.544652	-99.614142	-92.206935	-0.000000	0.000000	0.000000	-0.000000	-1.342880	-4.654300	-17.549000	0.013733	0.715696	0.689024	-1.000000	-1.000000	-1.000000	-1.000000	-1.000000	-1.000000	-1.000000	138.482759	0.000000	-1.000000	-1.000000	534479.000000	1772919098.909089
-2630.385000	21193.020000	-19725.255000	-14437.440000	0.000000	0.000000	0.000000	0.000000	-8.330006	-67.837864	33.774650	25.003376	-0.000000	0.000000	0.000000	-0.000000	-1.342880	-4.654300	-17.549000	0.013733	0.715696	0.689024	-1.000000	-1.000000	-1.000000	-1.000000	-1.000000	-1.000000	-1.000000	138.482759	0.000000	-1.000000	-1.000000	534480.000000	1772919098.913072
-2631.375000	21250.710000	-19736.775000	-14490.450000	0.000000	0.000000	0.000000	0.000000	60.225073	-17.437117	141.526426	127.352308	-0.000000	0.000000	0.000000	-0.000000	-1.342880	-4.654300	-17.549000	0.013733	0.715696	0.689024	-1.000000	-1.000000	-1.000000	-1.000000	-1.000000	-1.000000	-1.000000	138.482759	0.000000	-1.000000	-1.000000	534481.000000	1772919098.913075
-2680.695000	21313.485000	-19678.545000	-14473.890000	0.000000	0.000000	0.000000	0.000000	88.773668	47.644264	171.480386	157.456756	-0.000000	0.000000	0.000000	-0.000000	-1.342880	-4.654300	-17.549000	0.013733	0.715696	0.689024	-1.000000	-1.000000	-1.000000	-1.000000	-1.000000	-1.000000	-1.000000	138.482759	0.000000	-1.000000	-1.000000	534482.000000	1772919098.918439
-2691.270000	21419.595000	-19733.220000	-14505.660000	0.000000	0.000000	0.000000	0.000000	63.860621	95.658015	122.057942	106.841710	-0.000000	0.000000	0.000000	-0.000000	-1.342880	-4.654300	-17.549000	0.013733	0.715696	0.689024	-1.000000	-1.000000	-1.000000	-1.000000	-1.000000	-1.000000	-1.000000	138.482759	0.000000	-1.000000	-1.000000	534483.000000	1772919098.918442
-2615.040000	21516.525000	-19812.240000	-14625.495000	0.000000	0.000000	0.000000	0.000000	9.158002	109.504426	28.309759	11.784871	-0.000000	0.000000	0.000000	-0.000000	16.145080	-1.037680	16.312940	0.009460	0.714903	0.683043	-1.000000	-1.000000	-1.000000	-1.000000	-1.000000	-1.000000	-1.000000	138.482759	0.000000	-1.000000	-1.000000	534484.000000	1772919098.921096
-2870.415000	21502.980000	-19971.225000	-14656.410000	0.000000	0.000000	0.000000	0.000000	-41.432476	87.377589	-68.281379	-79.872831	-0.000000	0.000000	0.000000	-0.000000	16.145080	-1.037680	16.312940	0.009460	0.714903	0.683043	-1.000000	-1.000000	-1.000000	-1.000000	-1.000000	-1.000000	-1.000000	138.482759	0.000000	-1.000000	-1.000000	534485.000000	1772919098.921099
-2900.430000	21603.915000	-20095.605000	-14707.170000	0.000000	0.000000	0.000000	0.000000	-73.671515	37.577258	-135.891910	-130.700468	-0.000000	0.000000	0.000000	-0.000000	16.145080	-1.037680	16.312940	0.009460	0.714903	0.683043	-1.000000	-1.000000	-1.000000	-1.000000	-1.000000	-1.000000	-1.000000	138.482759	0.000000	-1.000000	-1.000000	534486.000000	1772919098.925204
-2858.895000	21699.180000	-19954.710000	-14640.165000	0.000000	0.000000	0.000000	0.000000	-83.051238	-19.758632	-151.190343	-122.942938	-0.000000	0.000000	0.000000	-0.000000	16.145080	-1.037680	16.312940	0.009460	0.714903	0.683043	-1.000000	-1.000000	-1.000000	-1.000000	-1.000000	-1.000000	-1.000000	138.482759	0.000000	-1.000000	-1.000000	534487.000000	1772919098.925207
-2759.850000	21710.160000	-19735.605000	-14470.830000	0.000000	0.000000	0.000000	0.000000	-57.878243	-60.911146	-97.669366	-60.987023	-0.000000	0.000000	0.000000	-0.000000	16.145080	-1.037680	16.312940	0.009460	0.714903	0.683043	-1.000000	-1.000000	-1.000000	-1.000000	-1.000000	-1.000000	-1.000000	138.482759	0.000000	-1.000000	-1.000000	534488.000000	1772919098.930784
-2669.715000	21694.410000	-19657.980000	-14398.065000	0.000000	0.000000	0.000000	0.000000	2.647347	-77.590551	13.553287	30.636994	-0.000000	0.000000	0.000000	-0.000000	16.145080	-1.037680	16.312940	0.009460	0.714903	0.683043	-1.000000	-1.000000	-1.000000	-1.000000	-1.000000	-1.000000	-1.000000	138.482759	0.000000	-1.000000	-1.000000	534489.000000	1772919098.930787
-2628.540000	21827.835000	-19576.485000	-14391.315000	0.000000	0.000000	0.000000	0.000000	72.741833	-74.497082	128.278569	109.470117	-0.000000	0.000000	0.000000	-0.000000	16.145080	-1.037680	16.312940	0.009460	0.714903	0.683043	-1.000000	-1.000000	-1.000000	-1.000000	-1.000000	-1.000000	-1.000000	138.482759	0.000000	-1.000000	-1.000000	534490.000000	1772919098.933167
-2739.870000	21861.990000	-19635.705000	-14460.345000	0.000000	0.000000	0.000000	0.000000	111.948706	-54.253885	180.544233	132.499629	-0.000000	0.000000	0.000000	-0.000000	16.145080	-1.037680	16.312940	0.009460	0.714903	0.683043	-1.000000	-1.000000	-1.000000	-1.000000	-1.000000	-1.000000	-1.000000	138.482759	0.000000	-1.000000	-1.000000	534491.000000	1772919098.933170
-3029.670000	21896.325000	-20020.635000	-14760.270000	0.000000	0.000000	0.000000	0.000000	88.002216	-21.743452	134.230209	81.511033	-0.000000	0.000000	0.000000	-0.000000	16.145080	-1.037680	16.312940	0.009460	0.714903	0.683043	-1.000000	-1.000000	-1.000000	-1.000000	-1.000000	-1.000000	-1.000000	138.482759	0.000000	-1.000000	-1.000000	534492.000000	1772919098.937280
-3064.815000	21924.990000	-20181.060000	-14808.645000	0.000000	0.000000	0.000000	0.000000	3.411534	9.273951	1.821596	-23.267149	-0.000000	0.000000	0.000000	-0.000000	16.145080	-1.037680	16.312940	0.009460	0.714903	0.683043	-1.000000	-1.000000	-1.000000	-1.000000	-1.000000	-1.000000	-1.000000	138.482759	0.000000	-1.000000	-1.000000	534493.000000	1772919098.937282
-2840.670000	21895.110000	-20007.630000	-14645.205000	0.000000	0.000000	0.000000	0.000000	-86.685990	25.429636	-144.116524	-120.179759	-0.000000	0.000000	0.000000	-0.000000	15.290520	0.839300	32.778480	0.019836	0.786497	0.667601	-1.000000	-1.000000	-1.000000	-1.000000	-1.000000	-1.000000	-1.000000	138.482759	0.000000	-1.000000	-1.000000	534494.000000	1772919098.941314
-2702.160000	21817.170000	-19773.765000	-14518.755000	0.000000	0.000000	0.000000	0.000000	-108.611534	21.112820	-201.014336	-138.897518	-0.000000	0.000000	0.000000	-0.000000	15.290520	0.839300	32.778480	0.019836	0.786497	0.667601	-1.000000	-1.000000	-1.000000	-1.000000	-1.000000	-1.000000	-1.000000	138.482759	0.000000	-1.000000	-1.000000	534495.000000	1772919098.941317
-2732.265000	21824.550000	-19798.515000	-14528.835000	0.000000	0.000000	0.000000	0.000000	-44.948706	1.064811	-124.999174	-65.061797	-0.000000	0.000000	0.000000	-0.000000	15.290520	0.839300	32.778480	0.019836	0.786497	0.667601	-1.000000	-1.000000	-1.000000	-1.000000	-1.000000	-1.000000	-1.000000	138.482759	0.000000	-1.000000	-1.000000	534496.000000	1772919098.945144
-2711.115000	21909.555000	-19677.240000	-14442.300000	0.000000	0.000000	0.000000	0.000000	46.660975	-17.010433	24.265911	44.798356	-0.000000	0.000000	0.000000	-0.000000	15.290520	0.839300	32.778480	0.019836	0.786497	0.667601	-1.000000	-1.000000	-1.000000	-1.000000	-1.000000	-1.000000	-1.000000	138.482759	0.000000	-1.000000	-1.000000	534497.000000	1772919098.945146
-2770.020000	21965.580000	-19697.445000	-14390.730000	0.000000	0.000000	0.000000	0.000000	95.721022	-13.278232	145.162032	120.454107	-0.000000	0.000000	0.000000	-0.000000	15.290520	0.839300	32.778480	0.019836	0.786497	0.667601	-1.000000	-1.000000	-1.000000	-1.000000	-1.000000	-1.000000	-1.000000	138.482759	0.000000	-1.000000	-1.000000	534498.000000	1772919098.950087
-2779.515000	22036.905000	-19812.915000	-14439.690000	0.000000	0.000000	0.000000	0.000000	76.632163	14.274511	172.523901	127.859901	-0.000000	0.000000	0.000000	-0.000000	15.290520	0.839300	32.778480	0.019836	0.786497	0.667601	-1.000000	-1.000000	-1.000000	-1.000000	-1.000000	-1.000000	-1.000000	138.482759	0.000000	-1.000000	-1.000000	534499.000000	1772919098.950089
-2795.130000	22141.980000	-19957.680000	-14521.455000	0.000000	0.000000	0.000000	0.000000	13.112660	48.233884	101.334260	71.652520	-0.000000	0.000000	0.000000	-0.000000	15.290520	0.839300	32.778480	0.019836	0.786497	0.667601	-1.000000	-1.000000	-1.000000	-1.000000	-1.000000	-1.000000	-1.000000	138.482759	0.000000	-1.000000	-1.000000	534500.000000	1772919098.953331
-2909.205000	22323.015000	-20052.945000	-14690.970000	0.000000	0.000000	0.000000	0.000000	-52.281067	70.346611	-22.414188	-19.547018	-0.000000	0.000000	0.000000	-0.000000	15.290520	0.839300	32.778480	0.019836	0.786497	0.667601	-1.000000	-1.000000	-1.000000	-1.000000	-1.000000	-1.000000	-1.000000	138.482759	0.000000	-1.000000	-1.000000	534501.000000	1772919098.953334
-2957.580000	22350.735000	-20041.515000	-14793.030000	0.000000	0.000000	0.000000	0.000000	-90.115921	71.815068	-127.772033	-106.475342	-0.000000	0.000000	0.000000	-0.000000	15.290520	0.839300	32.778480	0.019836	0.786497	0.667601	-1.000000	-1.000000	-1.000000	-1.000000	-1.000000	-1.000000	-1.000000	138.482759	0.000000	-1.000000	-1.000000	534502.000000	1772919098.961256
-2940.660000	22311.810000	-19975.365000	-14664.330000	0.000000	0.000000	0.000000	0.000000	-90.091278	46.720139	-157.518100	-148.347141	-0.000000	0.000000	0.000000	-0.000000	15.290520	0.839300	32.778480	0.019836	0.786497	0.667601	-1.000000	-1.000000	-1.000000	-1.000000	-1.000000	-1.000000	-1.000000	138.482759	0.000000	-1.000000	-1.000000	534503.000000	1772919098.961259
-2813.670000	22341.060000	-19882.755000	-14538.240000	0.000000	0.000000	0.000000	0.000000	-51.776567	-5.089854	-99.555767	-115.851271	-0.000000	0.000000	0.000000	-0.000000	-11.338180	2.350040	6.607580	0.026245	0.756041	0.649779	-1.000000	-1.000000	-1.000000	-1.000000	-1.000000	-1.000000	-1.000000	138.482759	0.000000	-1.000000	-1.000000	534504.000000	1772919098.961264
-2688.075000	22427.235000	-19721.160000	-14433.480000	0.000000	0.000000	0.000000	0.000000	15.382344	-63.495699	10.705609	-16.935928	-0.000000	0.000000	0.000000	-0.000000	-11.338180	2.350040	6.607580	0.026245	0.756041	0.649779	-1.000000	-1.000000	-1.000000	-1.000000	-1.000000	-1.000000	-1.000000	138.482759	0.000000	-1.000000	-1.000000	534505.000000	1772919098.961267
-2729.205000	22525.695000	-19746.405000	-14482.530000	0.000000	0.000000	0.000000	0.000000	84.216166	-95.318512	114.047791	94.445468	-0.000000	0.000000	0.000000	-0.000000	-11.338180	2.350040	6.607580	0.026245	0.756041	0.649779	-1.000000	-1.000000	-1.000000	-1.000000	-1.000000	-1.000000	-1.000000	138.482759	0.000000	-1.000000	-1.000000	534506.000000	1772919098.967535
-2871.720000	22579.155000	-19876.230000	-14555.520000	0.000000	0.000000	0.000000	0.000000	113.548139	-82.951659	154.505885	151.227321	-0.000000	0.000000	0.000000	-0.000000	-11.338180	2.350040	6.607580	0.026245	0.756041	0.649779	-1.000000	-1.000000	-1.000000	-1.000000	-1.000000	-1.000000	-1.000000	138.482759	0.000000	-1.000000	-1.000000	534507.000000	1772919098.967537
-2896.425000	22690.935000	-19848.240000	-14545.890000	0.000000	0.000000	0.000000	0.000000	78.719970	-37.767775	110.009970	123.391567	-0.000000	0.000000	0.000000	-0.000000	-11.338180	2.350040	6.607580	0.026245	0.756041	0.649779	-1.000000	-1.000000	-1.000000	-1.000000	-1.000000	-1.000000	-1.000000	138.482759	0.000000	-1.000000	-1.000000	534508.000000	1772919098.969216
-2932.965000	22751.235000	-20051.415000	-14818.365000	0.000000	0.000000	0.000000	0.000000	0.600382	13.571456	9.740480	33.881867	-0.000000	0.000000	0.000000	-0.000000	-11.338180	2.350040	6.607580	0.026245	0.756041	0.649779	-1.000000	-1.000000	-1.000000	-1.000000	-1.000000	-1.000000	-1.000000	138.482759	0.000000	-1.000000	-1.000000	534509.000000	1772919098.969219
-2883.420000	22768.650000	-19999.170000	-14787.810000	0.000000	0.000000	0.000000	0.000000	-69.338486	46.628482	-89.629602	-68.095082	-0.000000	0.000000	0.000000	-0.000000	-11.338180	2.350040	6.607580	0.026245	0.756041	0.649779	-1.000000	-1.000000	-1.000000	-1.000000	-1.000000	-1.000000	-1.000000	138.482759	0.000000	-1.000000	-1.000000	534510.000000	1772919098.973337
-2830.770000	22747.860000	-19869.570000	-14614.740000	0.000000	0.000000	0.000000	0.000000	-90.240917	47.814784	-135.633999	-127.763877	-0.000000	0.000000	0.000000	-0.000000	-11.338180	2.350040	6.607580	0.026245	0.756041	0.649779	-1.000000	-1.000000	-1.000000	-1.000000	-1.000000	-1.000000	-1.000000	138.482759	0.000000	-1.000000	-1.000000	534511.000000	1772919098.973340
-2693.880000	22782.870000	-19802.790000	-14541.795000	0.000000	0.000000	0.000000	0.000000	-55.404502	20.616983	-103.360688	-106.704439	-0.000000	0.000000	0.000000	-0.000000	-11.338180	2.350040	6.607580	0.026245	0.756041	0.649779	-1.000000	-1.000000	-1.000000	-1.000000	-1.000000	-1.000000	-1.000000	138.482759	0.000000	-1.000000	-1.000000	534512.000000	1772919098.977306
-2802.780000	22850.730000	-19864.215000	-14611.590000	0.000000	0.000000	0.000000	0.000000	7.612743	-14.085395	-18.002112	-21.489256	-0.000000	0.000000	0.000000	-0.000000	-11.338180	2.350040	6.607580	0.026245	0.756041	0.649779	-1.000000	-1.000000	-1.000000	-1.000000	-1.000000	-1.000000	-1.000000	138.482759	0.000000	-1.000000	-1.000000	534513.000000	1772919098.977309
-2878.920000	22897.575000	-19904.940000	-14641.605000	0.000000	0.000000	0.000000	0.000000	52.504066	-32.230620	59.708210	62.855556	-0.000000	0.000000	0.000000	-0.000000	-6.653360	8.454040	-10.788820	0.042541	0.687498	0.649962	-1.000000	-1.000000	-1.000000	-1.000000	-1.000000	-1.000000	-1.000000	138.482759	0.000000	-1.000000	-1.000000	534514.000000	1772919098.981299
-2786.715000	22935.285000	-19818.090000	-14569.920000	0.000000	0.000000	0.000000	0.000000	51.204973	-25.357129	86.485569	94.424073	-0.000000	0.000000	0.000000	-0.000000	-6.653360	8.454040	-10.788820	0.042541	0.687498	0.649962	-1.000000	-1.000000	-1.000000	-1.000000	-1.000000	-1.000000	-1.000000	138.482759	0.000000	-1.000000	-1.000000	534515.000000	1772919098.981302
-2734.740000	22884.390000	-19815.840000	-14541.345000	0.000000	0.000000	0.000000	0.000000	19.969308	-5.228570	66.070974	72.857753	-0.000000	0.000000	0.000000	-0.000000	-6.653360	8.454040	-10.788820	0.042541	0.687498	0.649962	-1.000000	-1.000000	-1.000000	-1.000000	-1.000000	-1.000000	-1.000000	138.482759	0.000000	-1.000000	-1.000000	534516.000000	1772919098.985276
-2730.015000	22874.445000	-19858.905000	-14588.415000	0.000000	0.000000	0.000000	0.000000	-7.113091	8.733193	25.928312	27.464759	-0.000000	0.000000	0.000000	-0.000000	-6.653360	8.454040	-10.788820	0.042541	0.687498	0.649962	-1.000000	-1.000000	-1.000000	-1.000000	-1.000000	-1.000000	-1.000000	138.482759	0.000000	-1.000000	-1.000000	534517.000000	1772919098.985279
-2880.540000	22840.020000	-19952.955000	-14717.835000	0.000000	0.000000	0.000000	0.000000	-18.989894	7.078480	-14.870935	-19.560708	-0.000000	0.000000	0.000000	-0.000000	-6.653360	8.454040	-10.788820	0.042541	0.687498	0.649962	-1.000000	-1.000000	-1.000000	-1.000000	-1.000000	-1.000000	-1.000000	138.482759	0.000000	-1.000000	-1.000000	534518.000000	1772919098.989351
-2944.755000	22689.855000	-19967.895000	-14746.140000	0.000000	0.000000	0.000000	0.000000	-28.126797	-6.545135	-47.511258	-58.726215	-0.000000	0.000000	0.000000	-0.000000	-6.653360	8.454040	-10.788820	0.042541	0.687498	0.649962	-1.000000	-1.000000	-1.000000	-1.000000	-1.000000	-1.000000	-1.000000	138.482759	0.000000	-1.000000	-1.000000	534519.000000	1772919098.989356
-2865.375000	22660.470000	-19851.030000	-14674.860000	0.000000	0.000000	0.000000	0.000000	-39.108700	-23.863860	-60.206984	-77.534521	-0.000000	0.000000	0.000000	-0.000000	-6.653360	8.454040	-10.788820	0.042541	0.687498	0.649962	-1.000000	-1.000000	-1.000000	-1.000000	-1.000000	-1.000000	-1.000000	138.482759	0.000000	-1.000000	-1.000000	534520.000000	1772919098.993306
-2829.195000	22673.790000	-19744.470000	-14555.520000	0.000000	0.000000	0.000000	0.000000	-36.032746	-31.971574	-39.668523	-59.694402	-0.000000	0.000000	0.000000	-0.000000	-6.653360	8.454040	-10.788820	0.042541	0.687498	0.649962	-1.000000	-1.000000	-1.000000	-1.000000	-1.000000	-1.000000	-1.000000	138.482759	0.000000	-1.000000	-1.000000	534521.000000	1772919098.993311
-2724.975000	22663.890000	-19657.980000	-14434.335000	0.000000	0.000000	0.000000	0.000000	-6.744731	-17.775951	10.125306	-4.602538	-0.000000	0.000000	0.000000	-0.000000	-6.653360	8.454040	-10.788820	0.042541	0.687498	0.649962	-1.000000	-1.000000	-1.000000	-1.000000	-1.000000	-1.000000	-1.000000	138.482759	0.000000	-1.000000	-1.000000	534522.000000	1772919098.997399
-2683.890000	22635.540000	-19739.475000	-14473.125000	0.000000	0.000000	0.000000	0.000000	37.820763	15.906617	59.112017	60.155781	-0.000000	0.000000	0.000000	-0.000000	-6.653360	8.454040	-10.788820	0.042541	0.687498	0.649962	-1.000000	-1.000000	-1.000000	-1.000000	-1.000000	-1.000000	-1.000000	138.482759	0.000000	-1.000000	-1.000000	534523.000000	1772919098.997402
-2652.030000	22582.755000	-19651.770000	-14435.370000	0.000000	0.000000	0.000000	0.000000	71.671459	48.888856	72.745577	93.708960	-0.000000	0.000000	0.000000	-0.000000	-5.356260	8.454040	6.775440	0.028320	0.707396	0.656492	-1.000000	-1.000000	-1.000000	-1.000000	-1.000000	-1.000000	-1.000000	138.482759	0.000000	-1.000000	-1.000000	534524.000000	1772919099.001305
-2708.505000	22572.945000	-19790.325000	-14530.860000	0.000000	0.000000	0.000000	0.000000	72.051303	61.577974	41.974545	73.879152	-0.000000	0.000000	0.000000	-0.000000	-5.356260	8.454040	6.775440	0.028320	0.707396	0.656492	-1.000000	-1.000000	-1.000000	-1.000000	-1.000000	-1.000000	-1.000000	138.482759	0.000000	-1.000000	-1.000000	534525.000000	1772919099.001308
-2808.405000	22596.615000	-19933.020000	-14665.905000	0.000000	0.000000	0.000000	0.000000	33.007794	51.042436	-17.349682	10.259790	-0.000000	0.000000	0.000000	-0.000000	-5.356260	8.454040	6.775440	0.028320	0.707396	0.656492	-1.000000	-1.000000	-1.000000	-1.000000	-1.000000	-1.000000	-1.000000	138.482759	0.000000	-1.000000	-1.000000	534526.000000	1772919099.005362
-2790.945000	22324.500000	-19860.570000	-14624.865000	0.000000	0.000000	0.000000	0.000000	-28.648306	24.457559	-76.992094	-64.366270	-0.000000	0.000000	0.000000	-0.000000	-5.356260	8.454040	6.775440	0.028320	0.707396	0.656492	-1.000000	-1.000000	-1.000000	-1.000000	-1.000000	-1.000000	-1.000000	138.482759	0.000000	-1.000000	-1.000000	534527.000000	1772919099.005366
-2789.145000	22085.775000	-19886.625000	-14612.490000	0.000000	0.000000	0.000000	0.000000	-78.545703	-17.614408	-101.942332	-107.393524	-0.000000	0.000000	0.000000	-0.000000	-5.356260	8.454040	6.775440	0.028320	0.707396	0.656492	-1.000000	-1.000000	-1.000000	-1.000000	-1.000000	-1.000000	-1.000000	138.482759	0.000000	-1.000000	-1.000000	534528.000000	1772919099.009438
-2703.555000	22085.685000	-19858.230000	-14545.575000	0.000000	0.000000	0.000000	0.000000	-86.669208	-67.401887	-74.288953	-92.351324	-0.000000	0.000000	0.000000	-0.000000	-5.356260	8.454040	6.775440	0.028320	0.707396	0.656492	-1.000000	-1.000000	-1.000000	-1.000000	-1.000000	-1.000000	-1.000000	138.482759	0.000000	-1.000000	-1.000000	534529.000000	1772919099.009441
-2604.600000	22057.020000	-19611.135000	-14368.365000	0.000000	0.000000	0.000000	0.000000	-47.902593	-91.941560	-6.598942	-26.897392	-0.000000	0.000000	0.000000	-0.000000	-5.356260	8.454040	6.775440	0.028320	0.707396	0.656492	-1.000000	-1.000000	-1.000000	-1.000000	-1.000000	-1.000000	-1.000000	138.482759	0.000000	-1.000000	-1.000000	534530.000000	1772919099.013427
-2617.830000	22077.495000	-19591.155000	-14348.115000	0.000000	0.000000	0.000000	0.000000	15.016824	-62.555824	72.762628	55.547312	-0.000000	0.000000	0.000000	-0.000000	-5.356260	8.454040	6.775440	0.028320	0.707396	0.656492	-1.000000	-1.000000	-1.000000	-1.000000	-1.000000	-1.000000	-1.000000	138.482759	0.000000	-1.000000	-1.000000	534531.000000	1772919099.013431
-2680.695000	22123.395000	-19701.315000	-14456.790000	0.000000	0.000000	0.000000	0.000000	62.885154	11.130712	124.101823	109.239436	-0.000000	0.000000	0.000000	-0.000000	-5.356260	8.454040	6.775440	0.028320	0.707396	0.656492	-1.000000	-1.000000	-1.000000	-1.000000	-1.000000	-1.000000	-1.000000	138.482759	0.000000	-1.000000	-1.000000	534532.000000	1772919099.017370
-2700.765000	22155.480000	-19711.845000	-14481.855000	0.000000	0.000000	0.000000	0.000000	66.420659	90.120781	111.422238	99.493847	-0.000000	0.000000	0.000000	-0.000000	-5.356260	8.454040	6.775440	0.028320	0.707396	0.656492	-1.000000	-1.000000	-1.000000	-1.000000	-1.000000	-1.000000	-1.000000	138.482759	0.000000	-1.000000	-1.000000	534533.000000	1772919099.017373
-2824.830000	22155.750000	-19900.890000	-14620.590000	0.000000	0.000000	0.000000	0.000000	27.595452	133.978369	36.302444	31.430962	-0.000000	0.000000	0.000000	-0.000000	-2.899400	4.547480	12.131700	0.008606	0.767271	0.673826	-1.000000	-1.000000	-1.000000	-1.000000	-1.000000	-1.000000	-1.000000	138.482759	0.000000	-1.000000	-1.000000	534534.000000	1772919099.021403
-2855.520000	22187.880000	-20106.405000	-14683.995000	0.000000	0.000000	0.000000	0.000000	-27.102162	122.813924	-63.953615	-54.499626	-0.000000	0.000000	0.000000	-0.000000	-2.899400	4.547480	12.131700	0.008606	0.767271	0.673826	-1.000000	-1.000000	-1.000000	-1.000000	-1.000000	-1.000000	-1.000000	138.482759	0.000000	-1.000000	-1.000000	534535.000000	1772919099.021406
-2760.345000	22239.720000	-19952.775000	-14590.575000	0.000000	0.000000	0.000000	0.000000	-63.407853	66.725034	-139.111770	-109.687933	-0.000000	0.000000	0.000000	-0.000000	-2.899400	4.547480	12.131700	0.008606	0.767271	0.673826	-1.000000	-1.000000	-1.000000	-1.000000	-1.000000	-1.000000	-1.000000	138.482759	0.000000	-1.000000	-1.000000	534536.000000	1772919099.025480
-2695.815000	22206.285000	-19786.005000	-14432.580000	0.000000	0.000000	0.000000	0.000000	-55.553234	-5.067156	-140.030156	-99.571869	-0.000000	0.000000	0.000000	-0.000000	-2.899400	4.547480	12.131700	0.008606	0.767271	0.673826	-1.000000	-1.000000	-1.000000	-1.000000	-1.000000	-1.000000	-1.000000	138.482759	0.000000	-1.000000	-1.000000	534537.000000	1772919099.025483
-2637.450000	22189.410000	-19679.535000	-14335.920000	0.000000	0.000000	0.000000	0.000000	-6.328105	-66.083748	-53.373009	-25.434453	-0.000000	0.000000	0.000000	-0.000000	-2.899400	4.547480	12.131700	0.008606	0.767271	0.673826	-1.000000	-1.000000	-1.000000	-1.000000	-1.000000	-1.000000	-1.000000	138.482759	0.000000	-1.000000	-1.000000	534538.000000	1772919099.033504
-2592.045000	22278.555000	-19642.635000	-14318.010000	0.000000	0.000000	0.000000	0.000000	52.291438	-99.945941	71.692961	68.398597	-0.000000	0.000000	0.000000	-0.000000	-2.899400	4.547480	12.131700	0.008606	0.767271	0.673826	-1.000000	-1.000000	-1.000000	-1.000000	-1.000000	-1.000000	-1.000000	138.482759	0.000000	-1.000000	-1.000000	534539.000000	1772919099.033508
-2641.005000	22379.850000	-19673.460000	-14429.790000	0.000000	0.000000	0.000000	0.000000	83.276295	-96.234637	156.726218	121.067100	-0.000000	0.000000	0.000000	-0.000000	-2.899400	4.547480	12.131700	0.008606	0.767271	0.673826	-1.000000	-1.000000	-1.000000	-1.000000	-1.000000	-1.000000	-1.000000	138.482759	0.000000	-1.000000	-1.000000	534540.000000	1772919099.033512
-2644.155000	22406.130000	-19709.685000	-14524.740000	0.000000	0.000000	0.000000	0.000000	68.165631	-57.682538	153.133689	97.403852	-0.000000	0.000000	0.000000	-0.000000	-2.899400	4.547480	12.131700	0.008606	0.767271	0.673826	-1.000000	-1.000000	-1.000000	-1.000000	-1.000000	-1.000000	-1.000000	138.482759	0.000000	-1.000000	-1.000000	534541.000000	1772919099.033515
-2708.640000	22426.065000	-19831.770000	-14604.255000	0.000000	0.000000	0.000000	0.000000	16.495001	-7.253425	69.102771	12.812220	-0.000000	0.000000	0.000000	-0.000000	-2.899400	4.547480	12.131700	0.008606	0.767271	0.673826	-1.000000	-1.000000	-1.000000	-1.000000	-1.000000	-1.000000	-1.000000	138.482759	0.000000	-1.000000	-1.000000	534542.000000	1772919099.037473
-2745.945000	22423.005000	-19866.510000	-14628.780000	0.000000	0.000000	0.000000	0.000000	-43.256669	26.468345	-45.500066	-78.872142	-0.000000	0.000000	0.000000	-0.000000	-2.899400	4.547480	12.131700	0.008606	0.767271	0.673826	-1.000000	-1.000000	-1.000000	-1.000000	-1.000000	-1.000000	-1.000000	138.482759	0.000000	-1.000000	-1.000000	534543.000000	1772919099.037477
