Channel1	Channel2	Channel3	Channel4	Channel5	Channel6	Channel7	Channel8	FilteredChannel1	FilteredChannel2	FilteredChannel3	FilteredChannel4	FilteredChannel5	FilteredChannel6	FilteredChannel7	FilteredChannel8	GyroX	GyroY	GyroZ	AccX	AccY	AccZ	PPG1	PPG2	rawPPG1	rawPPG2	rawPPG3	Hr	Hrv	Battery	Trigger	PhysicalTrigger	AutoTrigger	NumMeasurements	Timestamp
-2790.045000	22983.525000	-20501.640000	-14878.980000	0.000000	0.000000	0.000000	0.000000	-55.249519	51.910369	-84.123979	-86.589320	-0.000000	0.000000	0.000000	-0.000000	4.440660	0.076300	-1.388660	-0.031860	0.790281	0.608275	-1.000000	-1.000000	-1.000000	-1.000000	-1.000000	-1.000000	-1.000000	138.965517	0.000000	-1.000000	-1.000000	543908.000000	1772919117.824508
-2764.710000	22965.255000	-20454.480000	-14828.985000	0.000000	0.000000	0.000000	0.000000	-59.202438	-9.177755	-90.981650	-98.267680	-0.000000	0.000000	0.000000	-0.000000	4.440660	0.076300	-1.388660	-0.031860	0.790281	0.608275	-1.000000	-1.000000	-1.000000	-1.000000	-1.000000	-1.000000	-1.000000	138.965517	0.000000	-1.000000	-1.000000	543909.000000	1772919117.824511
-2713.140000	22909.635000	-20376.495000	-14748.345000	0.000000	0.000000	0.000000	0.000000	-27.655035	-80.586849	-45.220885	-53.075451	-0.000000	0.000000	0.000000	-0.000000	4.440660	0.076300	-1.388660	-0.031860	0.790281	0.608275	-1.000000	-1.000000	-1.000000	-1.000000	-1.000000	-1.000000	-1.000000	138.965517	0.000000	-1.000000	-1.000000	543910.000000	1772919117.826286
-2643.525000	22875.705000	-20277.630000	-14640.480000	0.000000	0.000000	0.000000	0.000000	21.507209	-129.022875	27.766358	23.848637	-0.000000	0.000000	0.000000	-0.000000	4.440660	0.076300	-1.388660	-0.031860	0.790281	0.608275	-1.000000	-1.000000	-1.000000	-1.000000	-1.000000	-1.000000	-1.000000	138.965517	0.000000	-1.000000	-1.000000	543911.000000	1772919117.826289
-2656.170000	22941.315000	-20306.115000	-14662.170000	0.000000	0.000000	0.000000	0.000000	61.762054	-130.574952	88.308131	90.616581	-0.000000	0.000000	0.000000	-0.000000	4.440660	0.076300	-1.388660	-0.031860	0.790281	0.608275	-1.000000	-1.000000	-1.000000	-1.000000	-1.000000	-1.000000	-1.000000	138.965517	0.000000	-1.000000	-1.000000	543912.000000	1772919117.830540
-2680.965000	22957.425000	-20349.495000	-14707.530000	0.000000	0.000000	0.000000	0.000000	71.165624	-82.088772	102.766077	110.241134	-0.000000	0.000000	0.000000	-0.000000	4.440660	0.076300	-1.388660	-0.031860	0.790281	0.608275	-1.000000	-1.000000	-1.000000	-1.000000	-1.000000	-1.000000	-1.000000	138.965517	0.000000	-1.000000	-1.000000	543913.000000	1772919117.830543
-2722.410000	22937.220000	-20404.665000	-14764.770000	0.000000	0.000000	0.000000	0.000000	43.706805	-5.466658	62.291823	71.013862	-0.000000	0.000000	0.000000	-0.000000	4.791640	0.335720	-0.671440	-0.032776	0.789549	0.608702	-1.000000	-1.000000	-1.000000	-1.000000	-1.000000	-1.000000	-1.000000	138.965517	0.000000	-1.000000	-1.000000	543914.000000	1772919117.834221
-2796.795000	22929.930000	-20508.435000	-14875.425000	0.000000	0.000000	0.000000	0.000000	-6.689566	62.134835	-11.046911	-5.719641	-0.000000	0.000000	0.000000	-0.000000	4.791640	0.335720	-0.671440	-0.032776	0.789549	0.608702	-1.000000	-1.000000	-1.000000	-1.000000	-1.000000	-1.000000	-1.000000	138.965517	0.000000	-1.000000	-1.000000	543915.000000	1772919117.834224
-2778.930000	22844.070000	-20488.230000	-14862.690000	0.000000	0.000000	0.000000	0.000000	-54.350583	91.675303	-78.615152	-79.503126	-0.000000	0.000000	0.000000	-0.000000	4.791640	0.335720	-0.671440	-0.032776	0.789549	0.608702	-1.000000	-1.000000	-1.000000	-1.000000	-1.000000	-1.000000	-1.000000	138.965517	0.000000	-1.000000	-1.000000	543916.000000	1772919117.839447
-2728.755000	22697.955000	-20427.975000	-14800.860000	0.000000	0.000000	0.000000	0.000000	-73.846352	75.149938	-104.682477	-111.362399	-0.000000	0.000000	0.000000	-0.000000	4.791640	0.335720	-0.671440	-0.032776	0.789549	0.608702	-1.000000	-1.000000	-1.000000	-1.000000	-1.000000	-1.000000	-1.000000	138.965517	0.000000	-1.000000	-1.000000	543917.000000	1772919117.839450
-2685.105000	22591.665000	-20363.580000	-14732.550000	0.000000	0.000000	0.000000	0.000000	-53.756492	24.961774	-74.817235	-83.773465	-0.000000	0.000000	0.000000	-0.000000	4.791640	0.335720	-0.671440	-0.032776	0.789549	0.608702	-1.000000	-1.000000	-1.000000	-1.000000	-1.000000	-1.000000	-1.000000	138.965517	0.000000	-1.000000	-1.000000	543918.000000	1772919117.872597
-2607.840000	22508.235000	-20252.970000	-14615.730000	0.000000	0.000000	0.000000	0.000000	-5.521425	-30.519505	-5.847183	-12.324241	-0.000000	0.000000	0.000000	-0.000000	4.791640	0.335720	-0.671440	-0.032776	0.789549	0.608702	-1.000000	-1.000000	-1.000000	-1.000000	-1.000000	-1.000000	-1.000000	138.965517	0.000000	-1.000000	-1.000000	543919.000000	1772919117.872601
-2613.330000	22574.160000	-20252.250000	-14605.245000	0.000000	0.000000	0.000000	0.000000	43.708470	-58.448314	64.501832	63.869261	-0.000000	0.000000	0.000000	-0.000000	4.791640	0.335720	-0.671440	-0.032776	0.789549	0.608702	-1.000000	-1.000000	-1.000000	-1.000000	-1.000000	-1.000000	-1.000000	138.965517	0.000000	-1.000000	-1.000000	543920.000000	1772919117.874205
-2656.665000	22681.710000	-20311.920000	-14666.625000	0.000000	0.000000	0.000000	0.000000	66.408644	-38.349123	97.700520	103.115442	-0.000000	0.000000	0.000000	-0.000000	4.791640	0.335720	-0.671440	-0.032776	0.789549	0.608702	-1.000000	-1.000000	-1.000000	-1.000000	-1.000000	-1.000000	-1.000000	138.965517	0.000000	-1.000000	-1.000000	543921.000000	1772919117.874209
-2684.160000	22716.270000	-20361.870000	-14718.420000	0.000000	0.000000	0.000000	0.000000	50.072903	21.954722	75.109343	83.460943	-0.000000	0.000000	0.000000	-0.000000	4.791640	0.335720	-0.671440	-0.032776	0.789549	0.608702	-1.000000	-1.000000	-1.000000	-1.000000	-1.000000	-1.000000	-1.000000	138.965517	0.000000	-1.000000	-1.000000	543922.000000	1772919117.874213
-2739.870000	22656.420000	-20460.195000	-14818.905000	0.000000	0.000000	0.000000	0.000000	5.721579	83.598822	10.485115	17.137898	-0.000000	0.000000	0.000000	-0.000000	4.791640	0.335720	-0.671440	-0.032776	0.789549	0.608702	-1.000000	-1.000000	-1.000000	-1.000000	-1.000000	-1.000000	-1.000000	138.965517	0.000000	-1.000000	-1.000000	543923.000000	1772919117.874216
-2783.565000	22733.775000	-20508.840000	-14882.355000	0.000000	0.000000	0.000000	0.000000	-40.960304	104.293611	-59.951363	-58.543707	-0.000000	0.000000	0.000000	-0.000000	3.815000	-0.381500	-1.052940	-0.032471	0.789244	0.609190	-1.000000	-1.000000	-1.000000	-1.000000	-1.000000	-1.000000	-1.000000	138.965517	0.000000	-1.000000	-1.000000	543924.000000	1772919117.874219
-2760.075000	22782.510000	-20468.475000	-14841.090000	0.000000	0.000000	0.000000	0.000000	-65.867023	75.047864	-98.779148	-103.467464	-0.000000	0.000000	0.000000	-0.000000	3.815000	-0.381500	-1.052940	-0.032471	0.789244	0.609190	-1.000000	-1.000000	-1.000000	-1.000000	-1.000000	-1.000000	-1.000000	138.965517	0.000000	-1.000000	-1.000000	543925.000000	1772919117.874221
-2728.125000	22737.060000	-20418.570000	-14786.505000	0.000000	0.000000	0.000000	0.000000	-56.547730	18.755663	-84.959082	-93.346350	-0.000000	0.000000	0.000000	-0.000000	3.815000	-0.381500	-1.052940	-0.032471	0.789244	0.609190	-1.000000	-1.000000	-1.000000	-1.000000	-1.000000	-1.000000	-1.000000	138.965517	0.000000	-1.000000	-1.000000	543926.000000	1772919117.874228
-2669.175000	22732.020000	-20325.510000	-14690.790000	0.000000	0.000000	0.000000	0.000000	-17.425653	-38.596886	-25.181398	-32.601112	-0.000000	0.000000	0.000000	-0.000000	3.815000	-0.381500	-1.052940	-0.032471	0.789244	0.609190	-1.000000	-1.000000	-1.000000	-1.000000	-1.000000	-1.000000	-1.000000	138.965517	0.000000	-1.000000	-1.000000	543927.000000	1772919117.874230
-2614.770000	22772.790000	-20266.245000	-14623.065000	0.000000	0.000000	0.000000	0.000000	32.152097	-78.466790	49.519772	47.194968	-0.000000	0.000000	0.000000	-0.000000	3.815000	-0.381500	-1.052940	-0.032471	0.789244	0.609190	-1.000000	-1.000000	-1.000000	-1.000000	-1.000000	-1.000000	-1.000000	138.965517	0.000000	-1.000000	-1.000000	543928.000000	1772919117.874233
-2631.240000	22743.360000	-20299.635000	-14653.755000	0.000000	0.000000	0.000000	0.000000	67.534832	-88.915903	100.321490	104.285116	-0.000000	0.000000	0.000000	-0.000000	3.815000	-0.381500	-1.052940	-0.032471	0.789244	0.609190	-1.000000	-1.000000	-1.000000	-1.000000	-1.000000	-1.000000	-1.000000	138.965517	0.000000	-1.000000	-1.000000	543929.000000	1772919117.874235
-2664.540000	22710.510000	-20342.025000	-14696.190000	0.000000	0.000000	0.000000	0.000000	69.978576	-71.717250	99.949197	108.042545	-0.000000	0.000000	0.000000	-0.000000	3.815000	-0.381500	-1.052940	-0.032471	0.789244	0.609190	-1.000000	-1.000000	-1.000000	-1.000000	-1.000000	-1.000000	-1.000000	138.965517	0.000000	-1.000000	-1.000000	543930.000000	1772919117.874238
-2730.105000	22699.620000	-20430.090000	-14785.920000	0.000000	0.000000	0.000000	0.000000	36.814435	-40.893664	48.266131	56.308491	-0.000000	0.000000	0.000000	-0.000000	3.815000	-0.381500	-1.052940	-0.032471	0.789244	0.609190	-1.000000	-1.000000	-1.000000	-1.000000	-1.000000	-1.000000	-1.000000	138.965517	0.000000	-1.000000	-1.000000	543931.000000	1772919117.874240
-2787.120000	22702.995000	-20505.015000	-14872.995000	0.000000	0.000000	0.000000	0.000000	-15.798882	-9.467720	-27.615868	-23.660288	-0.000000	0.000000	0.000000	-0.000000	3.815000	-0.381500	-1.052940	-0.032471	0.789244	0.609190	-1.000000	-1.000000	-1.000000	-1.000000	-1.000000	-1.000000	-1.000000	138.965517	0.000000	-1.000000	-1.000000	543932.000000	1772919117.874243
-2760.525000	22650.570000	-20459.340000	-14831.325000	0.000000	0.000000	0.000000	0.000000	-60.589881	15.564015	-88.184414	-90.392110	-0.000000	0.000000	0.000000	-0.000000	3.815000	-0.381500	-1.052940	-0.032471	0.789244	0.609190	-1.000000	-1.000000	-1.000000	-1.000000	-1.000000	-1.000000	-1.000000	138.965517	0.000000	-1.000000	-1.000000	543933.000000	1772919117.874244
-2723.400000	22612.500000	-20414.070000	-14782.770000	0.000000	0.000000	0.000000	0.000000	-72.763908	29.323505	-100.840642	-108.180281	-0.000000	0.000000	0.000000	-0.000000	4.623780	0.412020	-1.113980	-0.031921	0.790098	0.610289	-1.000000	-1.000000	-1.000000	-1.000000	-1.000000	-1.000000	-1.000000	138.965517	0.000000	-1.000000	-1.000000	543934.000000	1772919117.880330
-2668.185000	22571.820000	-20337.615000	-14703.570000	0.000000	0.000000	0.000000	0.000000	-45.258372	29.847529	-59.215135	-67.735400	-0.000000	0.000000	0.000000	-0.000000	4.623780	0.412020	-1.113980	-0.031921	0.790098	0.610289	-1.000000	-1.000000	-1.000000	-1.000000	-1.000000	-1.000000	-1.000000	138.965517	0.000000	-1.000000	-1.000000	543935.000000	1772919117.880334
-2605.365000	22580.280000	-20249.415000	-14605.380000	0.000000	0.000000	0.000000	0.000000	6.090378	21.951247	12.478188	7.462253	-0.000000	0.000000	0.000000	-0.000000	4.623780	0.412020	-1.113980	-0.031921	0.790098	0.610289	-1.000000	-1.000000	-1.000000	-1.000000	-1.000000	-1.000000	-1.000000	138.965517	0.000000	-1.000000	-1.000000	543936.000000	1772919117.881530
-2603.610000	22600.485000	-20259.630000	-14609.700000	0.000000	0.000000	0.000000	0.000000	53.032969	15.147949	75.303817	76.534877	-0.000000	0.000000	0.000000	-0.000000	4.623780	0.412020	-1.113980	-0.031921	0.790098	0.610289	-1.000000	-1.000000	-1.000000	-1.000000	-1.000000	-1.000000	-1.000000	138.965517	0.000000	-1.000000	-1.000000	543937.000000	1772919117.881533
-2608.560000	22559.625000	-20272.365000	-14623.605000	0.000000	0.000000	0.000000	0.000000	70.821412	14.803821	96.398281	103.190349	-0.000000	0.000000	0.000000	-0.000000	4.623780	0.412020	-1.113980	-0.031921	0.790098	0.610289	-1.000000	-1.000000	-1.000000	-1.000000	-1.000000	-1.000000	-1.000000	138.965517	0.000000	-1.000000	-1.000000	543938.000000	1772919117.883613
-2707.155000	22589.910000	-20389.275000	-14744.295000	0.000000	0.000000	0.000000	0.000000	50.171684	17.282414	65.069221	73.603646	-0.000000	0.000000	0.000000	-0.000000	4.623780	0.412020	-1.113980	-0.031921	0.790098	0.610289	-1.000000	-1.000000	-1.000000	-1.000000	-1.000000	-1.000000	-1.000000	138.965517	0.000000	-1.000000	-1.000000	543939.000000	1772919117.883615
-2779.920000	22627.485000	-20497.680000	-14858.505000	0.000000	0.000000	0.000000	0.000000	0.603136	17.676413	-3.149702	2.353019	-0.000000	0.000000	0.000000	-0.000000	4.623780	0.412020	-1.113980	-0.031921	0.790098	0.610289	-1.000000	-1.000000	-1.000000	-1.000000	-1.000000	-1.000000	-1.000000	138.965517	0.000000	-1.000000	-1.000000	543940.000000	1772919117.886564
-2737.350000	22543.335000	-20460.105000	-14828.850000	0.000000	0.000000	0.000000	0.000000	-51.854572	13.909052	-72.849681	-73.379598	-0.000000	0.000000	0.000000	-0.000000	4.623780	0.412020	-1.113980	-0.031921	0.790098	0.610289	-1.000000	-1.000000	-1.000000	-1.000000	-1.000000	-1.000000	-1.000000	138.965517	0.000000	-1.000000	-1.000000	543941.000000	1772919117.886567
-2708.685000	22493.700000	-20412.315000	-14780.385000	0.000000	0.000000	0.000000	0.000000	-75.313650	1.937726	-103.191219	-109.452960	-0.000000	0.000000	0.000000	-0.000000	4.623780	0.412020	-1.113980	-0.031921	0.790098	0.610289	-1.000000	-1.000000	-1.000000	-1.000000	-1.000000	-1.000000	-1.000000	138.965517	0.000000	-1.000000	-1.000000	543942.000000	1772919117.890479
-2674.890000	22422.240000	-20362.140000	-14724.990000	0.000000	0.000000	0.000000	0.000000	-55.002162	-19.249666	-74.764669	-83.328385	-0.000000	0.000000	0.000000	-0.000000	4.623780	0.412020	-1.113980	-0.031921	0.790098	0.610289	-1.000000	-1.000000	-1.000000	-1.000000	-1.000000	-1.000000	-1.000000	138.965517	0.000000	-1.000000	-1.000000	543943.000000	1772919117.890482
-2594.070000	22409.370000	-20255.220000	-14610.420000	0.000000	0.000000	0.000000	0.000000	-4.583854	-39.991313	-4.862852	-10.959434	-0.000000	0.000000	0.000000	-0.000000	3.509800	-0.350980	-0.640920	-0.033325	0.789854	0.609618	-1.000000	-1.000000	-1.000000	-1.000000	-1.000000	-1.000000	-1.000000	138.965517	0.000000	-1.000000	-1.000000	543944.000000	1772919117.897018
-2577.780000	22385.115000	-20242.980000	-14589.135000	0.000000	0.000000	0.000000	0.000000	47.129529	-45.971980	67.104275	66.932564	-0.000000	0.000000	0.000000	-0.000000	3.509800	-0.350980	-0.640920	-0.033325	0.789854	0.609618	-1.000000	-1.000000	-1.000000	-1.000000	-1.000000	-1.000000	-1.000000	138.965517	0.000000	-1.000000	-1.000000	543945.000000	1772919117.897021
-2628.090000	22369.095000	-20290.545000	-14633.820000	0.000000	0.000000	0.000000	0.000000	72.706875	-30.899819	102.586966	108.571617	-0.000000	0.000000	0.000000	-0.000000	3.509800	-0.350980	-0.640920	-0.033325	0.789854	0.609618	-1.000000	-1.000000	-1.000000	-1.000000	-1.000000	-1.000000	-1.000000	138.965517	0.000000	-1.000000	-1.000000	543946.000000	1772919117.904131
-2660.130000	22406.265000	-20345.040000	-14693.760000	0.000000	0.000000	0.000000	0.000000	58.173103	-0.995787	82.622816	91.564360	-0.000000	0.000000	0.000000	-0.000000	3.509800	-0.350980	-0.640920	-0.033325	0.789854	0.609618	-1.000000	-1.000000	-1.000000	-1.000000	-1.000000	-1.000000	-1.000000	138.965517	0.000000	-1.000000	-1.000000	543947.000000	1772919117.904134
-2725.920000	22383.450000	-20444.220000	-14799.645000	0.000000	0.000000	0.000000	0.000000	11.997825	30.604627	18.779259	25.659277	-0.000000	0.000000	0.000000	-0.000000	3.509800	-0.350980	-0.640920	-0.033325	0.789854	0.609618	-1.000000	-1.000000	-1.000000	-1.000000	-1.000000	-1.000000	-1.000000	138.965517	0.000000	-1.000000	-1.000000	543948.000000	1772919117.907892
-2742.255000	22318.380000	-20462.490000	-14827.230000	0.000000	0.000000	0.000000	0.000000	-39.725468	48.807109	-54.012356	-53.233264	-0.000000	0.000000	0.000000	-0.000000	3.509800	-0.350980	-0.640920	-0.033325	0.789854	0.609618	-1.000000	-1.000000	-1.000000	-1.000000	-1.000000	-1.000000	-1.000000	138.965517	0.000000	-1.000000	-1.000000	543949.000000	1772919117.907895
-2714.085000	22306.455000	-20419.065000	-14783.220000	0.000000	0.000000	0.000000	0.000000	-68.918354	43.459517	-96.479032	-102.464525	-0.000000	0.000000	0.000000	-0.000000	3.509800	-0.350980	-0.640920	-0.033325	0.789854	0.609618	-1.000000	-1.000000	-1.000000	-1.000000	-1.000000	-1.000000	-1.000000	138.965517	0.000000	-1.000000	-1.000000	543950.000000	1772919117.907900
-2666.655000	22191.885000	-20358.180000	-14719.770000	0.000000	0.000000	0.000000	0.000000	-60.149115	17.534174	-85.580272	-95.113670	-0.000000	0.000000	0.000000	-0.000000	3.509800	-0.350980	-0.640920	-0.033325	0.789854	0.609618	-1.000000	-1.000000	-1.000000	-1.000000	-1.000000	-1.000000	-1.000000	138.965517	0.000000	-1.000000	-1.000000	543951.000000	1772919117.907902
-2599.605000	22133.745000	-20259.720000	-14616.945000	0.000000	0.000000	0.000000	0.000000	-18.735843	-16.228629	-28.109389	-35.981825	-0.000000	0.000000	0.000000	-0.000000	3.509800	-0.350980	-0.640920	-0.033325	0.789854	0.609618	-1.000000	-1.000000	-1.000000	-1.000000	-1.000000	-1.000000	-1.000000	138.965517	0.000000	-1.000000	-1.000000	543952.000000	1772919117.910934
-2581.920000	22221.495000	-20232.720000	-14577.705000	0.000000	0.000000	0.000000	0.000000	32.354043	-40.099891	43.679844	41.666266	-0.000000	0.000000	0.000000	-0.000000	3.509800	-0.350980	-0.640920	-0.033325	0.789854	0.609618	-1.000000	-1.000000	-1.000000	-1.000000	-1.000000	-1.000000	-1.000000	138.965517	0.000000	-1.000000	-1.000000	543953.000000	1772919117.910936
-2621.655000	22321.845000	-20285.910000	-14630.580000	0.000000	0.000000	0.000000	0.000000	64.612746	-35.056147	89.714557	94.634004	-0.000000	0.000000	0.000000	-0.000000	3.845520	-0.122080	-0.808780	-0.031982	0.788511	0.610228	-1.000000	-1.000000	-1.000000	-1.000000	-1.000000	-1.000000	-1.000000	138.965517	0.000000	-1.000000	-1.000000	543954.000000	1772919117.914677
-2630.430000	22277.565000	-20313.540000	-14660.640000	0.000000	0.000000	0.000000	0.000000	60.237292	0.287719	84.341370	93.574520	-0.000000	0.000000	0.000000	-0.000000	3.845520	-0.122080	-0.808780	-0.031982	0.788511	0.610228	-1.000000	-1.000000	-1.000000	-1.000000	-1.000000	-1.000000	-1.000000	138.965517	0.000000	-1.000000	-1.000000	543955.000000	1772919117.914680
-2682.045000	22225.005000	-20399.400000	-14748.435000	0.000000	0.000000	0.000000	0.000000	23.818757	38.155788	32.657311	41.256504	-0.000000	0.000000	0.000000	-0.000000	3.845520	-0.122080	-0.808780	-0.031982	0.788511	0.610228	-1.000000	-1.000000	-1.000000	-1.000000	-1.000000	-1.000000	-1.000000	138.965517	0.000000	-1.000000	-1.000000	543956.000000	1772919117.918718
-2757.015000	22320.360000	-20488.095000	-14850.315000	0.000000	0.000000	0.000000	0.000000	-23.555159	48.893949	-35.658194	-32.169288	-0.000000	0.000000	0.000000	-0.000000	3.845520	-0.122080	-0.808780	-0.031982	0.788511	0.610228	-1.000000	-1.000000	-1.000000	-1.000000	-1.000000	-1.000000	-1.000000	138.965517	0.000000	-1.000000	-1.000000	543957.000000	1772919117.918720
-2758.950000	22376.025000	-20453.760000	-14818.770000	0.000000	0.000000	0.000000	0.000000	-59.043344	32.745798	-85.327609	-88.727420	-0.000000	0.000000	0.000000	-0.000000	3.845520	-0.122080	-0.808780	-0.031982	0.788511	0.610228	-1.000000	-1.000000	-1.000000	-1.000000	-1.000000	-1.000000	-1.000000	138.965517	0.000000	-1.000000	-1.000000	543958.000000	1772919117.922650
-2715.885000	22338.945000	-20400.930000	-14763.420000	0.000000	0.000000	0.000000	0.000000	-65.597349	8.342969	-89.875705	-98.359139	-0.000000	0.000000	0.000000	-0.000000	3.845520	-0.122080	-0.808780	-0.031982	0.788511	0.610228	-1.000000	-1.000000	-1.000000	-1.000000	-1.000000	-1.000000	-1.000000	138.965517	0.000000	-1.000000	-1.000000	543959.000000	1772919117.922653
-2646.315000	22255.335000	-20313.360000	-14670.315000	0.000000	0.000000	0.000000	0.000000	-37.680547	-15.734825	-44.975593	-53.886241	-0.000000	0.000000	0.000000	-0.000000	3.845520	-0.122080	-0.808780	-0.031982	0.788511	0.610228	-1.000000	-1.000000	-1.000000	-1.000000	-1.000000	-1.000000	-1.000000	138.965517	0.000000	-1.000000	-1.000000	543960.000000	1772919117.926653
-2571.120000	22226.130000	-20231.640000	-14575.545000	0.000000	0.000000	0.000000	0.000000	13.025365	-40.266396	26.398049	22.073643	-0.000000	0.000000	0.000000	-0.000000	3.845520	-0.122080	-0.808780	-0.031982	0.788511	0.610228	-1.000000	-1.000000	-1.000000	-1.000000	-1.000000	-1.000000	-1.000000	138.965517	0.000000	-1.000000	-1.000000	543961.000000	1772919117.926656
-2589.030000	22201.920000	-20255.670000	-14595.705000	0.000000	0.000000	0.000000	0.000000	60.515243	-59.135516	85.917254	88.751735	-0.000000	0.000000	0.000000	-0.000000	3.845520	-0.122080	-0.808780	-0.031982	0.788511	0.610228	-1.000000	-1.000000	-1.000000	-1.000000	-1.000000	-1.000000	-1.000000	138.965517	0.000000	-1.000000	-1.000000	543962.000000	1772919117.935302
-2616.615000	22167.900000	-20296.620000	-14640.570000	0.000000	0.000000	0.000000	0.000000	77.330191	-60.558518	100.236635	108.736220	-0.000000	0.000000	0.000000	-0.000000	3.845520	-0.122080	-0.808780	-0.031982	0.788511	0.610228	-1.000000	-1.000000	-1.000000	-1.000000	-1.000000	-1.000000	-1.000000	138.965517	0.000000	-1.000000	-1.000000	543963.000000	1772919117.935305
-2663.685000	22178.565000	-20370.690000	-14715.045000	0.000000	0.000000	0.000000	0.000000	52.449268	-40.076561	60.665630	69.975241	-0.000000	0.000000	0.000000	-0.000000	5.066320	-0.198380	-0.656180	-0.032226	0.789244	0.610655	-1.000000	-1.000000	-1.000000	-1.000000	-1.000000	-1.000000	-1.000000	138.965517	0.000000	-1.000000	-1.000000	543964.000000	1772919117.935309
-2712.195000	22068.270000	-20449.170000	-14802.525000	0.000000	0.000000	0.000000	0.000000	-0.267946	-6.421387	-11.131553	-6.191040	-0.000000	0.000000	0.000000	-0.000000	5.066320	-0.198380	-0.656180	-0.032226	0.789244	0.610655	-1.000000	-1.000000	-1.000000	-1.000000	-1.000000	-1.000000	-1.000000	138.965517	0.000000	-1.000000	-1.000000	543965.000000	1772919117.935311
-2719.620000	22021.425000	-20426.400000	-14789.655000	0.000000	0.000000	0.000000	0.000000	-51.807146	22.733173	-76.369944	-78.451013	-0.000000	0.000000	0.000000	-0.000000	5.066320	-0.198380	-0.656180	-0.032226	0.789244	0.610655	-1.000000	-1.000000	-1.000000	-1.000000	-1.000000	-1.000000	-1.000000	138.965517	0.000000	-1.000000	-1.000000	543966.000000	1772919117.938781
-2682.675000	21961.440000	-20383.020000	-14741.055000	0.000000	0.000000	0.000000	0.000000	-75.048808	34.581886	-99.755934	-107.858164	-0.000000	0.000000	0.000000	-0.000000	5.066320	-0.198380	-0.656180	-0.032226	0.789244	0.610655	-1.000000	-1.000000	-1.000000	-1.000000	-1.000000	-1.000000	-1.000000	138.965517	0.000000	-1.000000	-1.000000	543967.000000	1772919117.938783
-2614.275000	21873.870000	-20319.930000	-14674.860000	0.000000	0.000000	0.000000	0.000000	-58.311472	29.960631	-69.390254	-79.227042	-0.000000	0.000000	0.000000	-0.000000	5.066320	-0.198380	-0.656180	-0.032226	0.789244	0.610655	-1.000000	-1.000000	-1.000000	-1.000000	-1.000000	-1.000000	-1.000000	138.965517	0.000000	-1.000000	-1.000000	543968.000000	1772919117.942711
-2528.955000	21775.455000	-20200.590000	-14548.590000	0.000000	0.000000	0.000000	0.000000	-10.682647	16.446527	-3.103269	-9.356373	-0.000000	0.000000	0.000000	-0.000000	5.066320	-0.198380	-0.656180	-0.032226	0.789244	0.610655	-1.000000	-1.000000	-1.000000	-1.000000	-1.000000	-1.000000	-1.000000	138.965517	0.000000	-1.000000	-1.000000	543969.000000	1772919117.942715
-2535.300000	21752.595000	-20205.270000	-14543.595000	0.000000	0.000000	0.000000	0.000000	42.151159	2.468677	63.763372	64.377223	-0.000000	0.000000	0.000000	-0.000000	5.066320	-0.198380	-0.656180	-0.032226	0.789244	0.610655	-1.000000	-1.000000	-1.000000	-1.000000	-1.000000	-1.000000	-1.000000	138.965517	0.000000	-1.000000	-1.000000	543970.000000	1772919117.946681
-2583.315000	21780.270000	-20258.190000	-14598.000000	0.000000	0.000000	0.000000	0.000000	69.680508	-1.813877	95.111116	102.173030	-0.000000	0.000000	0.000000	-0.000000	5.066320	-0.198380	-0.656180	-0.032226	0.789244	0.610655	-1.000000	-1.000000	-1.000000	-1.000000	-1.000000	-1.000000	-1.000000	138.965517	0.000000	-1.000000	-1.000000	543971.000000	1772919117.946683
-2628.405000	21793.455000	-20310.840000	-14654.880000	0.000000	0.000000	0.000000	0.000000	54.960115	10.128992	72.724250	82.364737	-0.000000	0.000000	0.000000	-0.000000	5.066320	-0.198380	-0.656180	-0.032226	0.789244	0.610655	-1.000000	-1.000000	-1.000000	-1.000000	-1.000000	-1.000000	-1.000000	138.965517	0.000000	-1.000000	-1.000000	543972.000000	1772919117.951282
-2691.540000	21770.505000	-20418.120000	-14767.965000	0.000000	0.000000	0.000000	0.000000	7.387193	31.495149	9.235985	16.200318	-0.000000	0.000000	0.000000	-0.000000	5.066320	-0.198380	-0.656180	-0.032226	0.789244	0.610655	-1.000000	-1.000000	-1.000000	-1.000000	-1.000000	-1.000000	-1.000000	138.965517	0.000000	-1.000000	-1.000000	543973.000000	1772919117.951285
-2724.930000	21850.785000	-20458.575000	-14815.755000	0.000000	0.000000	0.000000	0.000000	-44.641082	46.533378	-60.507337	-59.868659	-0.000000	0.000000	0.000000	-0.000000	4.806900	0.259420	-0.885080	-0.031799	0.787535	0.610960	-1.000000	-1.000000	-1.000000	-1.000000	-1.000000	-1.000000	-1.000000	138.965517	0.000000	-1.000000	-1.000000	543974.000000	1772919117.954803
-2699.685000	21861.135000	-20411.010000	-14769.810000	0.000000	0.000000	0.000000	0.000000	-72.154570	45.925266	-98.993219	-104.805878	-0.000000	0.000000	0.000000	-0.000000	4.806900	0.259420	-0.885080	-0.031799	0.787535	0.610960	-1.000000	-1.000000	-1.000000	-1.000000	-1.000000	-1.000000	-1.000000	138.965517	0.000000	-1.000000	-1.000000	543975.000000	1772919117.954805
-2684.025000	21902.220000	-20367.045000	-14726.475000	0.000000	0.000000	0.000000	0.000000	-60.756229	30.384700	-84.364238	-93.408781	-0.000000	0.000000	0.000000	-0.000000	4.806900	0.259420	-0.885080	-0.031799	0.787535	0.610960	-1.000000	-1.000000	-1.000000	-1.000000	-1.000000	-1.000000	-1.000000	138.965517	0.000000	-1.000000	-1.000000	543976.000000	1772919117.958955
-2621.295000	21940.695000	-20272.770000	-14626.170000	0.000000	0.000000	0.000000	0.000000	-17.451765	5.639632	-23.770836	-31.355815	-0.000000	0.000000	0.000000	-0.000000	4.806900	0.259420	-0.885080	-0.031799	0.787535	0.610960	-1.000000	-1.000000	-1.000000	-1.000000	-1.000000	-1.000000	-1.000000	138.965517	0.000000	-1.000000	-1.000000	543977.000000	1772919117.958959
-2601.270000	21954.420000	-20233.485000	-14574.915000	0.000000	0.000000	0.000000	0.000000	34.764959	-20.137009	50.447189	48.199553	-0.000000	0.000000	0.000000	-0.000000	4.806900	0.259420	-0.885080	-0.031799	0.787535	0.610960	-1.000000	-1.000000	-1.000000	-1.000000	-1.000000	-1.000000	-1.000000	138.965517	0.000000	-1.000000	-1.000000	543978.000000	1772919117.966915
-2632.545000	21977.145000	-20276.955000	-14618.295000	0.000000	0.000000	0.000000	0.000000	69.227093	-39.866107	98.814511	103.204707	-0.000000	0.000000	0.000000	-0.000000	4.806900	0.259420	-0.885080	-0.031799	0.787535	0.610960	-1.000000	-1.000000	-1.000000	-1.000000	-1.000000	-1.000000	-1.000000	138.965517	0.000000	-1.000000	-1.000000	543979.000000	1772919117.966918
-2622.330000	21898.620000	-20308.455000	-14650.920000	0.000000	0.000000	0.000000	0.000000	69.061643	-51.244794	95.449678	104.294009	-0.000000	0.000000	0.000000	-0.000000	4.806900	0.259420	-0.885080	-0.031799	0.787535	0.610960	-1.000000	-1.000000	-1.000000	-1.000000	-1.000000	-1.000000	-1.000000	138.965517	0.000000	-1.000000	-1.000000	543980.000000	1772919117.966921
-2668.320000	21833.325000	-20400.525000	-14744.430000	0.000000	0.000000	0.000000	0.000000	37.196678	-57.065063	43.267963	51.915875	-0.000000	0.000000	0.000000	-0.000000	4.806900	0.259420	-0.885080	-0.031799	0.787535	0.610960	-1.000000	-1.000000	-1.000000	-1.000000	-1.000000	-1.000000	-1.000000	138.965517	0.000000	-1.000000	-1.000000	543981.000000	1772919117.966923
-2697.030000	21701.295000	-20437.605000	-14794.470000	0.000000	0.000000	0.000000	0.000000	-7.933943	-60.418662	-28.756936	-24.766542	-0.000000	0.000000	0.000000	-0.000000	4.806900	0.259420	-0.885080	-0.031799	0.787535	0.610960	-1.000000	-1.000000	-1.000000	-1.000000	-1.000000	-1.000000	-1.000000	138.965517	0.000000	-1.000000	-1.000000	543982.000000	1772919117.971300
-2669.715000	21625.110000	-20391.480000	-14749.965000	0.000000	0.000000	0.000000	0.000000	-44.369473	-59.421632	-82.178360	-84.879575	-0.000000	0.000000	0.000000	-0.000000	4.806900	0.259420	-0.885080	-0.031799	0.787535	0.610960	-1.000000	-1.000000	-1.000000	-1.000000	-1.000000	-1.000000	-1.000000	138.965517	0.000000	-1.000000	-1.000000	543983.000000	1772919117.971303
-2645.190000	21573.045000	-20348.460000	-14703.120000	0.000000	0.000000	0.000000	0.000000	-55.409696	-47.140715	-88.702189	-96.606613	-0.000000	0.000000	0.000000	-0.000000	6.165040	0.640920	-1.022420	-0.030762	0.787962	0.611876	-1.000000	-1.000000	-1.000000	-1.000000	-1.000000	-1.000000	-1.000000	138.965517	0.000000	-1.000000	-1.000000	543984.000000	1772919117.975357
-2589.390000	21536.190000	-20264.850000	-14616.720000	0.000000	0.000000	0.000000	0.000000	-37.510114	-17.794682	-46.903348	-55.595326	-0.000000	0.000000	0.000000	-0.000000	6.165040	0.640920	-1.022420	-0.030762	0.787962	0.611876	-1.000000	-1.000000	-1.000000	-1.000000	-1.000000	-1.000000	-1.000000	138.965517	0.000000	-1.000000	-1.000000	543985.000000	1772919117.975359
-2530.530000	21519.405000	-20186.505000	-14527.260000	0.000000	0.000000	0.000000	0.000000	-1.960537	24.776677	18.176971	13.466954	-0.000000	0.000000	0.000000	-0.000000	6.165040	0.640920	-1.022420	-0.030762	0.787962	0.611876	-1.000000	-1.000000	-1.000000	-1.000000	-1.000000	-1.000000	-1.000000	138.965517	0.000000	-1.000000	-1.000000	543986.000000	1772919117.979007
-2556.990000	21523.095000	-20227.905000	-14565.060000	0.000000	0.000000	0.000000	0.000000	31.398480	66.930159	70.628724	72.336964	-0.000000	0.000000	0.000000	-0.000000	6.165040	0.640920	-1.022420	-0.030762	0.787962	0.611876	-1.000000	-1.000000	-1.000000	-1.000000	-1.000000	-1.000000	-1.000000	138.965517	0.000000	-1.000000	-1.000000	543987.000000	1772919117.979010
-2587.770000	21519.855000	-20271.555000	-14611.095000	0.000000	0.000000	0.000000	0.000000	43.032691	93.298013	81.102761	88.059272	-0.000000	0.000000	0.000000	-0.000000	6.165040	0.640920	-1.022420	-0.030762	0.787962	0.611876	-1.000000	-1.000000	-1.000000	-1.000000	-1.000000	-1.000000	-1.000000	138.965517	0.000000	-1.000000	-1.000000	543988.000000	1772919117.982831
-2645.595000	21526.650000	-20351.475000	-14693.490000	0.000000	0.000000	0.000000	0.000000	25.390952	94.398610	43.517285	51.597913	-0.000000	0.000000	0.000000	-0.000000	6.165040	0.640920	-1.022420	-0.030762	0.787962	0.611876	-1.000000	-1.000000	-1.000000	-1.000000	-1.000000	-1.000000	-1.000000	138.965517	0.000000	-1.000000	-1.000000	543989.000000	1772919117.982834
-2731.410000	21623.940000	-20462.130000	-14815.845000	0.000000	0.000000	0.000000	0.000000	-11.610540	72.237407	-21.012568	-16.478305	-0.000000	0.000000	0.000000	-0.000000	6.165040	0.640920	-1.022420	-0.030762	0.787962	0.611876	-1.000000	-1.000000	-1.000000	-1.000000	-1.000000	-1.000000	-1.000000	138.965517	0.000000	-1.000000	-1.000000	543990.000000	1772919117.988113
-2726.145000	21687.885000	-20444.355000	-14804.145000	0.000000	0.000000	0.000000	0.000000	-46.908803	39.917185	-77.418364	-79.110931	-0.000000	0.000000	0.000000	-0.000000	6.165040	0.640920	-1.022420	-0.030762	0.787962	0.611876	-1.000000	-1.000000	-1.000000	-1.000000	-1.000000	-1.000000	-1.000000	138.965517	0.000000	-1.000000	-1.000000	543991.000000	1772919117.988115
-2699.415000	21713.085000	-20403.855000	-14760.765000	0.000000	0.000000	0.000000	0.000000	-58.473536	9.635628	-93.521461	-100.663049	-0.000000	0.000000	0.000000	-0.000000	6.165040	0.640920	-1.022420	-0.030762	0.787962	0.611876	-1.000000	-1.000000	-1.000000	-1.000000	-1.000000	-1.000000	-1.000000	138.965517	0.000000	-1.000000	-1.000000	543992.000000	1772919117.991021
-2657.205000	21732.390000	-20344.680000	-14699.880000	0.000000	0.000000	0.000000	0.000000	-36.110745	-16.624469	-57.864186	-66.462159	-0.000000	0.000000	0.000000	-0.000000	6.165040	0.640920	-1.022420	-0.030762	0.787962	0.611876	-1.000000	-1.000000	-1.000000	-1.000000	-1.000000	-1.000000	-1.000000	138.965517	0.000000	-1.000000	-1.000000	543993.000000	1772919117.991025
-2595.195000	21773.340000	-20252.115000	-14596.560000	0.000000	0.000000	0.000000	0.000000	10.047154	-40.314087	11.294787	6.162678	-0.000000	0.000000	0.000000	-0.000000	6.119260	0.320460	-1.602300	-0.031311	0.788999	0.611082	-1.000000	-1.000000	-1.000000	-1.000000	-1.000000	-1.000000	-1.000000	138.965517	0.000000	-1.000000	-1.000000	543994.000000	1772919117.998010
-2585.385000	21752.055000	-20250.720000	-14588.415000	0.000000	0.000000	0.000000	0.000000	55.622796	-58.604587	77.342623	78.730584	-0.000000	0.000000	0.000000	-0.000000	6.119260	0.320460	-1.602300	-0.031311	0.788999	0.611082	-1.000000	-1.000000	-1.000000	-1.000000	-1.000000	-1.000000	-1.000000	138.965517	0.000000	-1.000000	-1.000000	543995.000000	1772919117.998013
-2602.260000	21713.805000	-20286.270000	-14626.890000	0.000000	0.000000	0.000000	0.000000	75.984834	-68.044085	105.175207	112.561801	-0.000000	0.000000	0.000000	-0.000000	6.119260	0.320460	-1.602300	-0.031311	0.788999	0.611082	-1.000000	-1.000000	-1.000000	-1.000000	-1.000000	-1.000000	-1.000000	138.965517	0.000000	-1.000000	-1.000000	543996.000000	1772919117.999944
-2638.395000	21665.520000	-20341.305000	-14680.710000	0.000000	0.000000	0.000000	0.000000	59.610497	-68.227718	79.656802	89.121520	-0.000000	0.000000	0.000000	-0.000000	6.119260	0.320460	-1.602300	-0.031311	0.788999	0.611082	-1.000000	-1.000000	-1.000000	-1.000000	-1.000000	-1.000000	-1.000000	138.965517	0.000000	-1.000000	-1.000000	543997.000000	1772919117.999960
-2709.810000	21663.045000	-20450.970000	-14796.945000	0.000000	0.000000	0.000000	0.000000	14.335394	-58.549778	14.195867	20.772981	-0.000000	0.000000	0.000000	-0.000000	6.119260	0.320460	-1.602300	-0.031311	0.788999	0.611082	-1.000000	-1.000000	-1.000000	-1.000000	-1.000000	-1.000000	-1.000000	138.965517	0.000000	-1.000000	-1.000000	543998.000000	1772919118.003421
-2719.935000	21622.680000	-20449.260000	-14806.530000	0.000000	0.000000	0.000000	0.000000	-37.502661	-37.450517	-57.476180	-57.097020	-0.000000	0.000000	0.000000	-0.000000	6.119260	0.320460	-1.602300	-0.031311	0.788999	0.611082	-1.000000	-1.000000	-1.000000	-1.000000	-1.000000	-1.000000	-1.000000	138.965517	0.000000	-1.000000	-1.000000	543999.000000	1772919118.003424
-2696.220000	21655.395000	-20410.920000	-14768.370000	0.000000	0.000000	0.000000	0.000000	-69.681314	-6.745013	-97.695380	-103.788660	-0.000000	0.000000	0.000000	-0.000000	6.119260	0.320460	-1.602300	-0.031311	0.788999	0.611082	-1.000000	-1.000000	-1.000000	-1.000000	-1.000000	-1.000000	-1.000000	138.965517	0.000000	-1.000000	-1.000000	544000.000000	1772919118.009436
-2682.090000	21630.240000	-20361.240000	-14714.325000	0.000000	0.000000	0.000000	0.000000	-65.932318	26.642623	-84.979554	-94.519586	-0.000000	0.000000	0.000000	-0.000000	6.119260	0.320460	-1.602300	-0.031311	0.788999	0.611082	-1.000000	-1.000000	-1.000000	-1.000000	-1.000000	-1.000000	-1.000000	138.965517	0.000000	-1.000000	-1.000000	544001.000000	1772919118.009439
-2605.500000	21623.670000	-20258.055000	-14607.495000	0.000000	0.000000	0.000000	0.000000	-29.911137	52.199836	-27.801536	-35.794962	-0.000000	0.000000	0.000000	-0.000000	6.119260	0.320460	-1.602300	-0.031311	0.788999	0.611082	-1.000000	-1.000000	-1.000000	-1.000000	-1.000000	-1.000000	-1.000000	138.965517	0.000000	-1.000000	-1.000000	544002.000000	1772919118.012693
-2589.255000	21651.885000	-20236.095000	-14572.665000	0.000000	0.000000	0.000000	0.000000	18.619226	61.371562	41.883492	39.637060	-0.000000	0.000000	0.000000	-0.000000	6.119260	0.320460	-1.602300	-0.031311	0.788999	0.611082	-1.000000	-1.000000	-1.000000	-1.000000	-1.000000	-1.000000	-1.000000	138.965517	0.000000	-1.000000	-1.000000	544003.000000	1772919118.012695
-2598.390000	21603.780000	-20271.015000	-14605.920000	0.000000	0.000000	0.000000	0.000000	54.616545	53.094070	86.310948	91.001593	-0.000000	0.000000	0.000000	-0.000000	5.417300	0.778260	-1.541260	-0.032226	0.788816	0.610533	-1.000000	-1.000000	-1.000000	-1.000000	-1.000000	-1.000000	-1.000000	138.965517	0.000000	-1.000000	-1.000000	544004.000000	1772919118.016783
-2609.640000	21528.450000	-20305.980000	-14643.990000	0.000000	0.000000	0.000000	0.000000	60.037060	30.328848	81.643635	90.773689	-0.000000	0.000000	0.000000	-0.000000	5.417300	0.778260	-1.541260	-0.032226	0.788816	0.610533	-1.000000	-1.000000	-1.000000	-1.000000	-1.000000	-1.000000	-1.000000	138.965517	0.000000	-1.000000	-1.000000	544005.000000	1772919118.016786
-2683.215000	21556.350000	-20416.320000	-14759.370000	0.000000	0.000000	0.000000	0.000000	33.751889	-0.590897	31.864396	40.426317	-0.000000	0.000000	0.000000	-0.000000	5.417300	0.778260	-1.541260	-0.032226	0.788816	0.610533	-1.000000	-1.000000	-1.000000	-1.000000	-1.000000	-1.000000	-1.000000	138.965517	0.000000	-1.000000	-1.000000	544006.000000	1772919118.018990
-2748.105000	21660.030000	-20483.145000	-14838.480000	0.000000	0.000000	0.000000	0.000000	-10.154267	-23.790443	-35.883717	-32.638942	-0.000000	0.000000	0.000000	-0.000000	5.417300	0.778260	-1.541260	-0.032226	0.788816	0.610533	-1.000000	-1.000000	-1.000000	-1.000000	-1.000000	-1.000000	-1.000000	138.965517	0.000000	-1.000000	-1.000000	544007.000000	1772919118.018993
-2727.585000	21676.320000	-20441.340000	-14796.945000	0.000000	0.000000	0.000000	0.000000	-49.575784	-23.356700	-85.774466	-89.688141	-0.000000	0.000000	0.000000	-0.000000	5.417300	0.778260	-1.541260	-0.032226	0.788816	0.610533	-1.000000	-1.000000	-1.000000	-1.000000	-1.000000	-1.000000	-1.000000	138.965517	0.000000	-1.000000	-1.000000	544008.000000	1772919118.022924
-2701.845000	21668.535000	-20397.510000	-14751.135000	0.000000	0.000000	0.000000	0.000000	-62.428666	-3.564212	-89.226068	-98.103346	-0.000000	0.000000	0.000000	-0.000000	5.417300	0.778260	-1.541260	-0.032226	0.788816	0.610533	-1.000000	-1.000000	-1.000000	-1.000000	-1.000000	-1.000000	-1.000000	138.965517	0.000000	-1.000000	-1.000000	544009.000000	1772919118.022926
-2637.945000	21657.690000	-20305.305000	-14656.545000	0.000000	0.000000	0.000000	0.000000	-39.874388	13.899507	-42.600141	-51.448966	-0.000000	0.000000	0.000000	-0.000000	5.417300	0.778260	-1.541260	-0.032226	0.788816	0.610533	-1.000000	-1.000000	-1.000000	-1.000000	-1.000000	-1.000000	-1.000000	138.965517	0.000000	-1.000000	-1.000000	544010.000000	1772919118.026883
-2577.240000	21677.355000	-20238.615000	-14575.545000	0.000000	0.000000	0.000000	0.000000	6.437136	13.735821	28.995988	25.013707	-0.000000	0.000000	0.000000	-0.000000	5.417300	0.778260	-1.541260	-0.032226	0.788816	0.610533	-1.000000	-1.000000	-1.000000	-1.000000	-1.000000	-1.000000	-1.000000	138.965517	0.000000	-1.000000	-1.000000	544011.000000	1772919118.026886
-2587.365000	21652.695000	-20270.610000	-14604.705000	0.000000	0.000000	0.000000	0.000000	51.000821	-1.417774	86.377597	89.467570	-0.000000	0.000000	0.000000	-0.000000	5.417300	0.778260	-1.541260	-0.032226	0.788816	0.610533	-1.000000	-1.000000	-1.000000	-1.000000	-1.000000	-1.000000	-1.000000	138.965517	0.000000	-1.000000	-1.000000	544012.000000	1772919118.031361
-2635.245000	21705.255000	-20324.205000	-14660.955000	0.000000	0.000000	0.000000	0.000000	67.843995	-18.729948	97.090470	105.654754	-0.000000	0.000000	0.000000	-0.000000	5.417300	0.778260	-1.541260	-0.032226	0.788816	0.610533	-1.000000	-1.000000	-1.000000	-1.000000	-1.000000	-1.000000	-1.000000	138.965517	0.000000	-1.000000	-1.000000	544013.000000	1772919118.031364
-2704.095000	21794.085000	-20417.175000	-14755.545000	0.000000	0.000000	0.000000	0.000000	45.669157	-24.545596	54.362944	63.691555	-0.000000	0.000000	0.000000	-0.000000	6.180300	0.518840	0.167860	-0.033996	0.789915	0.610594	-1.000000	-1.000000	-1.000000	-1.000000	-1.000000	-1.000000	-1.000000	138.965517	0.000000	-1.000000	-1.000000	544014.000000	1772919118.034951
-2762.100000	21820.275000	-20501.145000	-14853.240000	0.000000	0.000000	0.000000	0.000000	-3.772062	-12.767912	-18.481408	-13.518648	-0.000000	0.000000	0.000000	-0.000000	6.180300	0.518840	0.167860	-0.033996	0.789915	0.610594	-1.000000	-1.000000	-1.000000	-1.000000	-1.000000	-1.000000	-1.000000	138.965517	0.000000	-1.000000	-1.000000	544015.000000	1772919118.034954
-2741.445000	21837.825000	-20471.355000	-14828.580000	0.000000	0.000000	0.000000	0.000000	-51.750961	7.698995	-81.484416	-83.682946	-0.000000	0.000000	0.000000	-0.000000	6.180300	0.518840	0.167860	-0.033996	0.789915	0.610594	-1.000000	-1.000000	-1.000000	-1.000000	-1.000000	-1.000000	-1.000000	138.965517	0.000000	-1.000000	-1.000000	544016.000000	1772919118.039063
-2699.505000	21787.200000	-20417.670000	-14771.970000	0.000000	0.000000	0.000000	0.000000	-69.305283	18.983135	-98.930071	-107.230214	-0.000000	0.000000	0.000000	-0.000000	6.180300	0.518840	0.167860	-0.033996	0.789915	0.610594	-1.000000	-1.000000	-1.000000	-1.000000	-1.000000	-1.000000	-1.000000	138.965517	0.000000	-1.000000	-1.000000	544017.000000	1772919118.039066
-2636.505000	21617.955000	-20323.620000	-14674.230000	0.000000	0.000000	0.000000	0.000000	-45.653057	7.495142	-60.211662	-70.031051	-0.000000	0.000000	0.000000	-0.000000	6.180300	0.518840	0.167860	-0.033996	0.789915	0.610594	-1.000000	-1.000000	-1.000000	-1.000000	-1.000000	-1.000000	-1.000000	138.965517	0.000000	-1.000000	-1.000000	544018.000000	1772919118.043687
-2566.395000	21523.815000	-20218.995000	-14560.245000	0.000000	0.000000	0.000000	0.000000	5.116115	-26.698260	13.325024	7.470941	-0.000000	0.000000	0.000000	-0.000000	6.180300	0.518840	0.167860	-0.033996	0.789915	0.610594	-1.000000	-1.000000	-1.000000	-1.000000	-1.000000	-1.000000	-1.000000	138.965517	0.000000	-1.000000	-1.000000	544019.000000	1772919118.043690
-2569.275000	21524.715000	-20237.445000	-14571.630000	0.000000	0.000000	0.000000	0.000000	53.753082	-62.977226	81.124051	82.447961	-0.000000	0.000000	0.000000	-0.000000	6.180300	0.518840	0.167860	-0.033996	0.789915	0.610594	-1.000000	-1.000000	-1.000000	-1.000000	-1.000000	-1.000000	-1.000000	138.965517	0.000000	-1.000000	-1.000000	544020.000000	1772919118.047065
-2589.255000	21457.440000	-20273.670000	-14607.495000	0.000000	0.000000	0.000000	0.000000	72.521758	-71.255607	104.679353	112.460236	-0.000000	0.000000	0.000000	-0.000000	6.180300	0.518840	0.167860	-0.033996	0.789915	0.610594	-1.000000	-1.000000	-1.000000	-1.000000	-1.000000	-1.000000	-1.000000	138.965517	0.000000	-1.000000	-1.000000	544021.000000	1772919118.047067
-2630.655000	21432.420000	-20335.770000	-14672.250000	0.000000	0.000000	0.000000	0.000000	50.971340	-40.426907	70.112139	80.158232	-0.000000	0.000000	0.000000	-0.000000	6.180300	0.518840	0.167860	-0.033996	0.789915	0.610594	-1.000000	-1.000000	-1.000000	-1.000000	-1.000000	-1.000000	-1.000000	138.965517	0.000000	-1.000000	-1.000000	544022.000000	1772919118.051003
-2716.290000	21469.500000	-20454.705000	-14797.170000	0.000000	0.000000	0.000000	0.000000	1.143718	14.134146	-3.380506	3.621880	-0.000000	0.000000	0.000000	-0.000000	6.180300	0.518840	0.167860	-0.033996	0.789915	0.610594	-1.000000	-1.000000	-1.000000	-1.000000	-1.000000	-1.000000	-1.000000	138.965517	0.000000	-1.000000	-1.000000	544023.000000	1772919118.051007
-2697.795000	21350.925000	-20432.205000	-14781.465000	0.000000	0.000000	0.000000	0.000000	-50.588405	65.630101	-76.530405	-76.117625	-0.000000	0.000000	0.000000	-0.000000	4.455920	0.228900	-0.244160	-0.032349	0.789793	0.608946	-1.000000	-1.000000	-1.000000	-1.000000	-1.000000	-1.000000	-1.000000	138.965517	0.000000	-1.000000	-1.000000	544024.000000	1772919118.057193
-2650.680000	21203.280000	-20371.140000	-14718.870000	0.000000	0.000000	0.000000	0.000000	-75.717010	86.706058	-109.290171	-115.472604	-0.000000	0.000000	0.000000	-0.000000	4.455920	0.228900	-0.244160	-0.032349	0.789793	0.608946	-1.000000	-1.000000	-1.000000	-1.000000	-1.000000	-1.000000	-1.000000	138.965517	0.000000	-1.000000	-1.000000	544025.000000	1772919118.057197
-2619.315000	21218.985000	-20326.140000	-14675.175000	0.000000	0.000000	0.000000	0.000000	-59.439371	66.085376	-82.791925	-92.181094	-0.000000	0.000000	0.000000	-0.000000	4.455920	0.228900	-0.244160	-0.032349	0.789793	0.608946	-1.000000	-1.000000	-1.000000	-1.000000	-1.000000	-1.000000	-1.000000	138.965517	0.000000	-1.000000	-1.000000	544026.000000	1772919118.059564
-2536.470000	21228.390000	-20212.380000	-14555.520000	0.000000	0.000000	0.000000	0.000000	-11.720631	24.167917	-12.929750	-20.766207	-0.000000	0.000000	0.000000	-0.000000	4.455920	0.228900	-0.244160	-0.032349	0.789793	0.608946	-1.000000	-1.000000	-1.000000	-1.000000	-1.000000	-1.000000	-1.000000	138.965517	0.000000	-1.000000	-1.000000	544027.000000	1772919118.059566
-2498.805000	21086.415000	-20161.845000	-14491.845000	0.000000	0.000000	0.000000	0.000000	40.930372	-8.658232	62.149216	59.614304	-0.000000	0.000000	0.000000	-0.000000	4.455920	0.228900	-0.244160	-0.032349	0.789793	0.608946	-1.000000	-1.000000	-1.000000	-1.000000	-1.000000	-1.000000	-1.000000	138.965517	0.000000	-1.000000	-1.000000	544028.000000	1772919118.063008
-2552.490000	21030.570000	-20230.560000	-14562.315000	0.000000	0.000000	0.000000	0.000000	70.823719	-23.840645	103.626573	107.559672	-0.000000	0.000000	0.000000	-0.000000	4.455920	0.228900	-0.244160	-0.032349	0.789793	0.608946	-1.000000	-1.000000	-1.000000	-1.000000	-1.000000	-1.000000	-1.000000	138.965517	0.000000	-1.000000	-1.000000	544029.000000	1772919118.063011
-2597.175000	21027.330000	-20283.030000	-14616.810000	0.000000	0.000000	0.000000	0.000000	61.061663	-27.322794	88.823793	97.003890	-0.000000	0.000000	0.000000	-0.000000	4.455920	0.228900	-0.244160	-0.032349	0.789793	0.608946	-1.000000	-1.000000	-1.000000	-1.000000	-1.000000	-1.000000	-1.000000	138.965517	0.000000	-1.000000	-1.000000	544030.000000	1772919118.067185
-2682.765000	21070.170000	-20398.770000	-14738.175000	0.000000	0.000000	0.000000	0.000000	16.002200	-19.344069	24.942283	32.713967	-0.000000	0.000000	0.000000	-0.000000	4.455920	0.228900	-0.244160	-0.032349	0.789793	0.608946	-1.000000	-1.000000	-1.000000	-1.000000	-1.000000	-1.000000	-1.000000	138.965517	0.000000	-1.000000	-1.000000	544031.000000	1772919118.067188
-2709.045000	21095.550000	-20439.855000	-14793.255000	0.000000	0.000000	0.000000	0.000000	-39.505856	1.637239	-53.436897	-50.494931	-0.000000	0.000000	0.000000	-0.000000	4.455920	0.228900	-0.244160	-0.032349	0.789793	0.608946	-1.000000	-1.000000	-1.000000	-1.000000	-1.000000	-1.000000	-1.000000	138.965517	0.000000	-1.000000	-1.000000	544032.000000	1772919118.071077
-2664.180000	21056.670000	-20386.575000	-14739.525000	0.000000	0.000000	0.000000	0.000000	-73.760554	26.465648	-103.246566	-106.877724	-0.000000	0.000000	0.000000	-0.000000	4.455920	0.228900	-0.244160	-0.032349	0.789793	0.608946	-1.000000	-1.000000	-1.000000	-1.000000	-1.000000	-1.000000	-1.000000	138.965517	0.000000	-1.000000	-1.000000	544033.000000	1772919118.071086
-2618.820000	20931.210000	-20328.480000	-14675.715000	0.000000	0.000000	0.000000	0.000000	-65.945511	35.947444	-95.868751	-103.932831	-0.000000	0.000000	0.000000	-0.000000	4.043900	0.564620	-0.701960	-0.030334	0.790281	0.610045	-1.000000	-1.000000	-1.000000	-1.000000	-1.000000	-1.000000	-1.000000	138.965517	0.000000	-1.000000	-1.000000	544034.000000	1772919118.075044
-2546.190000	20861.820000	-20225.295000	-14565.105000	0.000000	0.000000	0.000000	0.000000	-19.831923	16.813868	-34.991268	-42.432994	-0.000000	0.000000	0.000000	-0.000000	4.043900	0.564620	-0.701960	-0.030334	0.790281	0.610045	-1.000000	-1.000000	-1.000000	-1.000000	-1.000000	-1.000000	-1.000000	138.965517	0.000000	-1.000000	-1.000000	544035.000000	1772919118.075047
-2471.085000	20746.710000	-20136.645000	-14460.615000	0.000000	0.000000	0.000000	0.000000	39.138593	-22.939169	46.112379	44.174716	-0.000000	0.000000	0.000000	-0.000000	4.043900	0.564620	-0.701960	-0.030334	0.790281	0.610045	-1.000000	-1.000000	-1.000000	-1.000000	-1.000000	-1.000000	-1.000000	138.965517	0.000000	-1.000000	-1.000000	544036.000000	1772919118.078907
-2496.555000	20718.855000	-20175.930000	-14500.665000	0.000000	0.000000	0.000000	0.000000	79.671881	-58.571825	104.285203	109.534811	-0.000000	0.000000	0.000000	-0.000000	4.043900	0.564620	-0.701960	-0.030334	0.790281	0.610045	-1.000000	-1.000000	-1.000000	-1.000000	-1.000000	-1.000000	-1.000000	138.965517	0.000000	-1.000000	-1.000000	544037.000000	1772919118.078910
-2541.465000	20763.135000	-20232.000000	-14560.560000	0.000000	0.000000	0.000000	0.000000	79.287317	-65.345075	107.359119	117.003720	-0.000000	0.000000	0.000000	-0.000000	4.043900	0.564620	-0.701960	-0.030334	0.790281	0.610045	-1.000000	-1.000000	-1.000000	-1.000000	-1.000000	-1.000000	-1.000000	138.965517	0.000000	-1.000000	-1.000000	544038.000000	1772919118.083290
-2616.705000	20809.125000	-20332.530000	-14666.895000	0.000000	0.000000	0.000000	0.000000	36.093296	-33.343352	52.078896	60.353618	-0.000000	0.000000	0.000000	-0.000000	4.043900	0.564620	-0.701960	-0.030334	0.790281	0.610045	-1.000000	-1.000000	-1.000000	-1.000000	-1.000000	-1.000000	-1.000000	138.965517	0.000000	-1.000000	-1.000000	544039.000000	1772919118.083294
-2695.725000	20827.485000	-20438.415000	-14785.290000	0.000000	0.000000	0.000000	0.000000	-28.556051	23.204339	-32.862316	-31.058804	-0.000000	0.000000	0.000000	-0.000000	4.043900	0.564620	-0.701960	-0.030334	0.790281	0.610045	-1.000000	-1.000000	-1.000000	-1.000000	-1.000000	-1.000000	-1.000000	138.965517	0.000000	-1.000000	-1.000000	544040.000000	1772919118.087131
-2705.985000	20922.120000	-20434.320000	-14783.130000	0.000000	0.000000	0.000000	0.000000	-81.670847	74.086223	-103.236568	-109.339668	-0.000000	0.000000	0.000000	-0.000000	4.043900	0.564620	-0.701960	-0.030334	0.790281	0.610045	-1.000000	-1.000000	-1.000000	-1.000000	-1.000000	-1.000000	-1.000000	138.965517	0.000000	-1.000000	-1.000000	544041.000000	1772919118.087133
-2679.795000	20941.875000	-20389.680000	-14737.815000	0.000000	0.000000	0.000000	0.000000	-95.436271	94.879642	-121.406901	-132.421440	-0.000000	0.000000	0.000000	-0.000000	4.043900	0.564620	-0.701960	-0.030334	0.790281	0.610045	-1.000000	-1.000000	-1.000000	-1.000000	-1.000000	-1.000000	-1.000000	138.965517	0.000000	-1.000000	-1.000000	544042.000000	1772919118.091247
-2619.135000	20908.080000	-20305.890000	-14651.640000	0.000000	0.000000	0.000000	0.000000	-61.603517	76.978851	-76.369475	-86.596620	-0.000000	0.000000	0.000000	-0.000000	4.043900	0.564620	-0.701960	-0.030334	0.790281	0.610045	-1.000000	-1.000000	-1.000000	-1.000000	-1.000000	-1.000000	-1.000000	138.965517	0.000000	-1.000000	-1.000000	544043.000000	1772919118.091250
-2552.040000	20951.955000	-20211.615000	-14538.465000	0.000000	0.000000	0.000000	0.000000	3.466525	27.462076	8.908980	4.782803	-0.000000	0.000000	0.000000	-0.000000	3.815000	0.244160	-1.113980	-0.031372	0.790830	0.610533	-1.000000	-1.000000	-1.000000	-1.000000	-1.000000	-1.000000	-1.000000	138.965517	0.000000	-1.000000	-1.000000	544044.000000	1772919118.095063
-2547.405000	20952.450000	-20222.280000	-14542.965000	0.000000	0.000000	0.000000	0.000000	67.210663	-31.181697	90.009046	94.478364	-0.000000	0.000000	0.000000	-0.000000	3.815000	0.244160	-1.113980	-0.031372	0.790830	0.610533	-1.000000	-1.000000	-1.000000	-1.000000	-1.000000	-1.000000	-1.000000	138.965517	0.000000	-1.000000	-1.000000	544045.000000	1772919118.095066
-2584.845000	21008.880000	-20271.420000	-14598.540000	0.000000	0.000000	0.000000	0.000000	97.116468	-72.132393	124.039688	135.276778	-0.000000	0.000000	0.000000	-0.000000	3.815000	0.244160	-1.113980	-0.031372	0.790830	0.610533	-1.000000	-1.000000	-1.000000	-1.000000	-1.000000	-1.000000	-1.000000	138.965517	0.000000	-1.000000	-1.000000	544046.000000	1772919118.099086
-2648.115000	21095.370000	-20347.695000	-14681.250000	0.000000	0.000000	0.000000	0.000000	78.008030	-79.389978	93.437267	105.523268	-0.000000	0.000000	0.000000	-0.000000	3.815000	0.244160	-1.113980	-0.031372	0.790830	0.610533	-1.000000	-1.000000	-1.000000	-1.000000	-1.000000	-1.000000	-1.000000	138.965517	0.000000	-1.000000	-1.000000	544047.000000	1772919118.099089
-2735.100000	21133.845000	-20468.430000	-14815.845000	0.000000	0.000000	0.000000	0.000000	20.672505	-54.245627	15.974688	22.130685	-0.000000	0.000000	0.000000	-0.000000	3.815000	0.244160	-1.113980	-0.031372	0.790830	0.610533	-1.000000	-1.000000	-1.000000	-1.000000	-1.000000	-1.000000	-1.000000	138.965517	0.000000	-1.000000	-1.000000	544048.000000	1772919118.105303
-2740.320000	21126.555000	-20465.640000	-14822.730000	0.000000	0.000000	0.000000	0.000000	-44.274153	-15.236532	-66.729449	-70.070049	-0.000000	0.000000	0.000000	-0.000000	3.815000	0.244160	-1.113980	-0.031372	0.790830	0.610533	-1.000000	-1.000000	-1.000000	-1.000000	-1.000000	-1.000000	-1.000000	138.965517	0.000000	-1.000000	-1.000000	544049.000000	1772919118.105308
-2714.535000	21151.440000	-20426.400000	-14780.790000	0.000000	0.000000	0.000000	0.000000	-82.118266	13.517590	-110.498258	-121.636851	-0.000000	0.000000	0.000000	-0.000000	3.815000	0.244160	-1.113980	-0.031372	0.790830	0.610533	-1.000000	-1.000000	-1.000000	-1.000000	-1.000000	-1.000000	-1.000000	138.965517	0.000000	-1.000000	-1.000000	544050.000000	1772919118.108893
-2680.515000	21211.605000	-20379.780000	-14729.940000	0.000000	0.000000	0.000000	0.000000	-73.595386	21.360251	-92.737990	-105.555883	-0.000000	0.000000	0.000000	-0.000000	3.815000	0.244160	-1.113980	-0.031372	0.790830	0.610533	-1.000000	-1.000000	-1.000000	-1.000000	-1.000000	-1.000000	-1.000000	138.965517	0.000000	-1.000000	-1.000000	544051.000000	1772919118.108897
-2603.475000	21292.065000	-20270.655000	-14608.845000	0.000000	0.000000	0.000000	0.000000	-26.242137	16.242761	-26.140434	-33.535513	-0.000000	0.000000	0.000000	-0.000000	3.815000	0.244160	-1.113980	-0.031372	0.790830	0.610533	-1.000000	-1.000000	-1.000000	-1.000000	-1.000000	-1.000000	-1.000000	138.965517	0.000000	-1.000000	-1.000000	544052.000000	1772919118.111896
-2577.105000	21317.310000	-20246.130000	-14569.110000	0.000000	0.000000	0.000000	0.000000	32.647373	10.759837	51.765652	54.030680	-0.000000	0.000000	0.000000	-0.000000	3.815000	0.244160	-1.113980	-0.031372	0.790830	0.610533	-1.000000	-1.000000	-1.000000	-1.000000	-1.000000	-1.000000	-1.000000	138.965517	0.000000	-1.000000	-1.000000	544053.000000	1772919118.111901
-2592.045000	21253.500000	-20279.520000	-14597.910000	0.000000	0.000000	0.000000	0.000000	71.820400	6.508290	99.631524	110.916448	-0.000000	0.000000	0.000000	-0.000000	4.333840	0.595140	-1.358140	-0.031982	0.788084	0.610716	-1.000000	-1.000000	-1.000000	-1.000000	-1.000000	-1.000000	-1.000000	138.965517	0.000000	-1.000000	-1.000000	544054.000000	1772919118.115188
-2625.840000	21262.230000	-20330.910000	-14650.650000	0.000000	0.000000	0.000000	0.000000	71.347746	-3.625623	92.544047	107.575397	-0.000000	0.000000	0.000000	-0.000000	4.333840	0.595140	-1.358140	-0.031982	0.788084	0.610716	-1.000000	-1.000000	-1.000000	-1.000000	-1.000000	-1.000000	-1.000000	138.965517	0.000000	-1.000000	-1.000000	544055.000000	1772919118.115191
-2697.165000	21211.380000	-20428.110000	-14762.520000	0.000000	0.000000	0.000000	0.000000	32.853364	-20.203019	35.860430	47.083799	-0.000000	0.000000	0.000000	-0.000000	4.333840	0.595140	-1.358140	-0.031982	0.788084	0.610716	-1.000000	-1.000000	-1.000000	-1.000000	-1.000000	-1.000000	-1.000000	138.965517	0.000000	-1.000000	-1.000000	544056.000000	1772919118.119153
-2742.795000	21195.180000	-20481.345000	-14831.595000	0.000000	0.000000	0.000000	0.000000	-22.656468	-34.068677	-39.155642	-37.949717	-0.000000	0.000000	0.000000	-0.000000	4.333840	0.595140	-1.358140	-0.031982	0.788084	0.610716	-1.000000	-1.000000	-1.000000	-1.000000	-1.000000	-1.000000	-1.000000	138.965517	0.000000	-1.000000	-1.000000	544057.000000	1772919118.119156
-2761.155000	21384.180000	-20488.275000	-14836.905000	0.000000	0.000000	0.000000	0.000000	-66.680625	-32.115295	-93.325078	-103.518360	-0.000000	0.000000	0.000000	-0.000000	4.333840	0.595140	-1.358140	-0.031982	0.788084	0.610716	-1.000000	-1.000000	-1.000000	-1.000000	-1.000000	-1.000000	-1.000000	138.965517	0.000000	-1.000000	-1.000000	544058.000000	1772919118.125365
-2739.690000	21472.830000	-20454.615000	-14800.815000	0.000000	0.000000	0.000000	0.000000	-77.251503	-3.718243	-99.275321	-115.973454	-0.000000	0.000000	0.000000	-0.000000	4.333840	0.595140	-1.358140	-0.031982	0.788084	0.610716	-1.000000	-1.000000	-1.000000	-1.000000	-1.000000	-1.000000	-1.000000	138.965517	0.000000	-1.000000	-1.000000	544059.000000	1772919118.125367
-2649.240000	21465.405000	-20330.415000	-14678.640000	0.000000	0.000000	0.000000	0.000000	-48.812086	41.463762	-54.114074	-68.873004	-0.000000	0.000000	0.000000	-0.000000	4.333840	0.595140	-1.358140	-0.031982	0.788084	0.610716	-1.000000	-1.000000	-1.000000	-1.000000	-1.000000	-1.000000	-1.000000	138.965517	0.000000	-1.000000	-1.000000	544060.000000	1772919118.127260
-2590.920000	21537.765000	-20254.545000	-14588.190000	0.000000	0.000000	0.000000	0.000000	5.870719	72.135371	20.720719	14.752284	-0.000000	0.000000	0.000000	-0.000000	4.333840	0.595140	-1.358140	-0.031982	0.788084	0.610716	-1.000000	-1.000000	-1.000000	-1.000000	-1.000000	-1.000000	-1.000000	138.965517	0.000000	-1.000000	-1.000000	544061.000000	1772919118.127264
-2620.440000	21594.690000	-20301.345000	-14625.360000	0.000000	0.000000	0.000000	0.000000	59.058827	66.993149	86.969923	92.022580	-0.000000	0.000000	0.000000	-0.000000	4.333840	0.595140	-1.358140	-0.031982	0.788084	0.610716	-1.000000	-1.000000	-1.000000	-1.000000	-1.000000	-1.000000	-1.000000	138.965517	0.000000	-1.000000	-1.000000	544062.000000	1772919118.131089
-2663.055000	21683.835000	-20361.285000	-14682.690000	0.000000	0.000000	0.000000	0.000000	80.091062	33.327328	106.190379	119.660588	-0.000000	0.000000	0.000000	-0.000000	4.333840	0.595140	-1.358140	-0.031982	0.788084	0.610716	-1.000000	-1.000000	-1.000000	-1.000000	-1.000000	-1.000000	-1.000000	138.965517	0.000000	-1.000000	-1.000000	544063.000000	1772919118.131092
-2744.055000	21786.480000	-20476.980000	-14795.955000	0.000000	0.000000	0.000000	0.000000	55.795320	-5.904911	65.261362	81.032710	-0.000000	0.000000	0.000000	-0.000000	6.638100	0.625660	-1.098720	-0.032165	0.786497	0.612852	-1.000000	-1.000000	-1.000000	-1.000000	-1.000000	-1.000000	-1.000000	138.965517	0.000000	-1.000000	-1.000000	544064.000000	1772919118.135276
-2820.195000	21816.720000	-20581.605000	-14914.260000	0.000000	0.000000	0.000000	0.000000	0.107311	-32.287210	-13.401252	-2.305306	-0.000000	0.000000	0.000000	-0.000000	6.638100	0.625660	-1.098720	-0.032165	0.786497	0.612852	-1.000000	-1.000000	-1.000000	-1.000000	-1.000000	-1.000000	-1.000000	138.965517	0.000000	-1.000000	-1.000000	544065.000000	1772919118.135279
-2796.480000	21808.485000	-20531.340000	-14876.955000	0.000000	0.000000	0.000000	0.000000	-54.790291	-43.538759	-85.083718	-83.635853	-0.000000	0.000000	0.000000	-0.000000	6.638100	0.625660	-1.098720	-0.032165	0.786497	0.612852	-1.000000	-1.000000	-1.000000	-1.000000	-1.000000	-1.000000	-1.000000	138.965517	0.000000	-1.000000	-1.000000	544066.000000	1772919118.139237
-2770.425000	21805.830000	-20479.365000	-14826.375000	0.000000	0.000000	0.000000	0.000000	-76.613588	-48.146450	-106.928489	-115.878044	-0.000000	0.000000	0.000000	-0.000000	6.638100	0.625660	-1.098720	-0.032165	0.786497	0.612852	-1.000000	-1.000000	-1.000000	-1.000000	-1.000000	-1.000000	-1.000000	138.965517	0.000000	-1.000000	-1.000000	544067.000000	1772919118.139240
-2703.600000	21832.650000	-20396.655000	-14740.470000	0.000000	0.000000	0.000000	0.000000	-52.886811	-50.199614	-65.370951	-80.329252	-0.000000	0.000000	0.000000	-0.000000	6.638100	0.625660	-1.098720	-0.032165	0.786497	0.612852	-1.000000	-1.000000	-1.000000	-1.000000	-1.000000	-1.000000	-1.000000	138.965517	0.000000	-1.000000	-1.000000	544068.000000	1772919118.143257
-2636.865000	21912.075000	-20296.215000	-14619.060000	0.000000	0.000000	0.000000	0.000000	1.647025	-43.779689	14.428569	1.261490	-0.000000	0.000000	0.000000	-0.000000	6.638100	0.625660	-1.098720	-0.032165	0.786497	0.612852	-1.000000	-1.000000	-1.000000	-1.000000	-1.000000	-1.000000	-1.000000	138.965517	0.000000	-1.000000	-1.000000	544069.000000	1772919118.143260
-2646.900000	21943.755000	-20303.505000	-14613.390000	0.000000	0.000000	0.000000	0.000000	55.510834	-22.391127	86.913382	82.762594	-0.000000	0.000000	0.000000	-0.000000	6.638100	0.625660	-1.098720	-0.032165	0.786497	0.612852	-1.000000	-1.000000	-1.000000	-1.000000	-1.000000	-1.000000	-1.000000	138.965517	0.000000	-1.000000	-1.000000	544070.000000	1772919118.147170
-2619.855000	21860.370000	-20314.485000	-14629.095000	0.000000	0.000000	0.000000	0.000000	79.043124	6.940971	112.515250	119.597962	-0.000000	0.000000	0.000000	-0.000000	6.638100	0.625660	-1.098720	-0.032165	0.786497	0.612852	-1.000000	-1.000000	-1.000000	-1.000000	-1.000000	-1.000000	-1.000000	138.965517	0.000000	-1.000000	-1.000000	544071.000000	1772919118.147174
-2654.280000	21774.285000	-20395.395000	-14717.655000	0.000000	0.000000	0.000000	0.000000	61.709211	24.228314	78.334089	91.873234	-0.000000	0.000000	0.000000	-0.000000	6.638100	0.625660	-1.098720	-0.032165	0.786497	0.612852	-1.000000	-1.000000	-1.000000	-1.000000	-1.000000	-1.000000	-1.000000	138.965517	0.000000	-1.000000	-1.000000	544072.000000	1772919118.154422
-2759.445000	21686.400000	-20513.835000	-14842.080000	0.000000	0.000000	0.000000	0.000000	14.092244	16.714844	2.753444	14.098694	-0.000000	0.000000	0.000000	-0.000000	6.638100	0.625660	-1.098720	-0.032165	0.786497	0.612852	-1.000000	-1.000000	-1.000000	-1.000000	-1.000000	-1.000000	-1.000000	138.965517	0.000000	-1.000000	-1.000000	544073.000000	1772919118.154424
-2767.770000	21631.050000	-20493.315000	-14841.810000	0.000000	0.000000	0.000000	0.000000	-41.853659	-6.689015	-75.805862	-73.415838	-0.000000	0.000000	0.000000	-0.000000	9.583280	-1.205540	-1.510740	-0.033630	0.784300	0.613585	-1.000000	-1.000000	-1.000000	-1.000000	-1.000000	-1.000000	-1.000000	138.965517	0.000000	-1.000000	-1.000000	544074.000000	1772919118.155241
-2730.600000	21587.580000	-20441.700000	-14802.300000	0.000000	0.000000	0.000000	0.000000	-78.805886	-24.200313	-115.259474	-123.316275	-0.000000	0.000000	0.000000	-0.000000	9.583280	-1.205540	-1.510740	-0.033630	0.784300	0.613585	-1.000000	-1.000000	-1.000000	-1.000000	-1.000000	-1.000000	-1.000000	138.965517	0.000000	-1.000000	-1.000000	544075.000000	1772919118.155244
-2704.815000	21631.680000	-20395.845000	-14752.440000	0.000000	0.000000	0.000000	0.000000	-75.853677	-18.720119	-93.515725	-108.001838	-0.000000	0.000000	0.000000	-0.000000	9.583280	-1.205540	-1.510740	-0.033630	0.784300	0.613585	-1.000000	-1.000000	-1.000000	-1.000000	-1.000000	-1.000000	-1.000000	138.965517	0.000000	-1.000000	-1.000000	544076.000000	1772919118.159247
-2627.325000	21700.665000	-20287.530000	-14630.805000	0.000000	0.000000	0.000000	0.000000	-34.485496	12.713635	-24.407825	-37.486424	-0.000000	0.000000	0.000000	-0.000000	9.583280	-1.205540	-1.510740	-0.033630	0.784300	0.613585	-1.000000	-1.000000	-1.000000	-1.000000	-1.000000	-1.000000	-1.000000	138.965517	0.000000	-1.000000	-1.000000	544077.000000	1772919118.159249
-2595.735000	21643.920000	-20259.180000	-14592.555000	0.000000	0.000000	0.000000	0.000000	22.403216	55.326131	53.612485	49.702471	-0.000000	0.000000	0.000000	-0.000000	9.583280	-1.205540	-1.510740	-0.033630	0.784300	0.613585	-1.000000	-1.000000	-1.000000	-1.000000	-1.000000	-1.000000	-1.000000	138.965517	0.000000	-1.000000	-1.000000	544078.000000	1772919118.163255
-2620.080000	21592.305000	-20305.665000	-14632.380000	0.000000	0.000000	0.000000	0.000000	64.636552	80.705440	99.804761	108.042482	-0.000000	0.000000	0.000000	-0.000000	9.583280	-1.205540	-1.510740	-0.033630	0.784300	0.613585	-1.000000	-1.000000	-1.000000	-1.000000	-1.000000	-1.000000	-1.000000	138.965517	0.000000	-1.000000	-1.000000	544079.000000	1772919118.163257
-2655.495000	21585.195000	-20353.770000	-14682.870000	0.000000	0.000000	0.000000	0.000000	70.134772	68.875767	90.645923	107.234929	-0.000000	0.000000	0.000000	-0.000000	9.583280	-1.205540	-1.510740	-0.033630	0.784300	0.613585	-1.000000	-1.000000	-1.000000	-1.000000	-1.000000	-1.000000	-1.000000	138.965517	0.000000	-1.000000	-1.000000	544080.000000	1772919118.167480
-2746.170000	21522.195000	-20470.500000	-14804.775000	0.000000	0.000000	0.000000	0.000000	36.954966	26.638853	32.711045	49.355304	-0.000000	0.000000	0.000000	-0.000000	9.583280	-1.205540	-1.510740	-0.033630	0.784300	0.613585	-1.000000	-1.000000	-1.000000	-1.000000	-1.000000	-1.000000	-1.000000	138.965517	0.000000	-1.000000	-1.000000	544081.000000	1772919118.167484
-2745.990000	21345.795000	-20479.950000	-14824.035000	0.000000	0.000000	0.000000	0.000000	-15.442541	-24.704078	-41.416351	-32.758489	-0.000000	0.000000	0.000000	-0.000000	9.583280	-1.205540	-1.510740	-0.033630	0.784300	0.613585	-1.000000	-1.000000	-1.000000	-1.000000	-1.000000	-1.000000	-1.000000	138.965517	0.000000	-1.000000	-1.000000	544082.000000	1772919118.171374
-2699.100000	21233.520000	-20425.140000	-14767.830000	0.000000	0.000000	0.000000	0.000000	-55.736596	-68.449002	-90.051098	-92.896143	-0.000000	0.000000	0.000000	-0.000000	9.583280	-1.205540	-1.510740	-0.033630	0.784300	0.613585	-1.000000	-1.000000	-1.000000	-1.000000	-1.000000	-1.000000	-1.000000	138.965517	0.000000	-1.000000	-1.000000	544083.000000	1772919118.171377
-2663.190000	21209.580000	-20376.495000	-14721.705000	0.000000	0.000000	0.000000	0.000000	-59.409882	-90.490985	-85.351085	-97.188905	-0.000000	0.000000	0.000000	-0.000000	12.787880	1.388660	-3.143560	-0.028931	0.784849	0.613219	-1.000000	-1.000000	-1.000000	-1.000000	-1.000000	-1.000000	-1.000000	138.965517	0.000000	-1.000000	-1.000000	544084.000000	1772919118.175371
-2583.540000	21221.370000	-20262.105000	-14602.275000	0.000000	0.000000	0.000000	0.000000	-26.063027	-76.293830	-31.430247	-45.749919	-0.000000	0.000000	0.000000	-0.000000	12.787880	1.388660	-3.143560	-0.028931	0.784849	0.613219	-1.000000	-1.000000	-1.000000	-1.000000	-1.000000	-1.000000	-1.000000	138.965517	0.000000	-1.000000	-1.000000	544085.000000	1772919118.175374
-2525.040000	21168.720000	-20190.915000	-14514.390000	0.000000	0.000000	0.000000	0.000000	22.839010	-25.842595	40.507742	30.569516	-0.000000	0.000000	0.000000	-0.000000	12.787880	1.388660	-3.143560	-0.028931	0.784849	0.613219	-1.000000	-1.000000	-1.000000	-1.000000	-1.000000	-1.000000	-1.000000	138.965517	0.000000	-1.000000	-1.000000	544086.000000	1772919118.179364
-2560.455000	21212.595000	-20247.840000	-14565.735000	0.000000	0.000000	0.000000	0.000000	58.704949	38.127320	90.666176	89.346940	-0.000000	0.000000	0.000000	-0.000000	12.787880	1.388660	-3.143560	-0.028931	0.784849	0.613219	-1.000000	-1.000000	-1.000000	-1.000000	-1.000000	-1.000000	-1.000000	138.965517	0.000000	-1.000000	-1.000000	544087.000000	1772919118.179367
-2599.470000	21249.900000	-20310.255000	-14621.490000	0.000000	0.000000	0.000000	0.000000	59.748413	87.192765	89.278366	96.365192	-0.000000	0.000000	0.000000	-0.000000	12.787880	1.388660	-3.143560	-0.028931	0.784849	0.613219	-1.000000	-1.000000	-1.000000	-1.000000	-1.000000	-1.000000	-1.000000	138.965517	0.000000	-1.000000	-1.000000	544088.000000	1772919118.183430
-2659.365000	21222.225000	-20395.395000	-14722.155000	0.000000	0.000000	0.000000	0.000000	23.946865	104.014869	35.239901	46.022853	-0.000000	0.000000	0.000000	-0.000000	12.787880	1.388660	-3.143560	-0.028931	0.784849	0.613219	-1.000000	-1.000000	-1.000000	-1.000000	-1.000000	-1.000000	-1.000000	138.965517	0.000000	-1.000000	-1.000000	544089.000000	1772919118.183435
-2711.205000	21078.270000	-20466.945000	-14810.625000	0.000000	0.000000	0.000000	0.000000	-28.565609	81.439048	-41.063365	-33.590431	-0.000000	0.000000	0.000000	-0.000000	12.787880	1.388660	-3.143560	-0.028931	0.784849	0.613219	-1.000000	-1.000000	-1.000000	-1.000000	-1.000000	-1.000000	-1.000000	138.965517	0.000000	-1.000000	-1.000000	544090.000000	1772919118.187434
-2736.540000	21087.720000	-20468.835000	-14807.880000	0.000000	0.000000	0.000000	0.000000	-68.938731	24.934222	-97.382603	-98.339310	-0.000000	0.000000	0.000000	-0.000000	12.787880	1.388660	-3.143560	-0.028931	0.784849	0.613219	-1.000000	-1.000000	-1.000000	-1.000000	-1.000000	-1.000000	-1.000000	138.965517	0.000000	-1.000000	-1.000000	544091.000000	1772919118.187439
-2736.180000	21116.880000	-20446.605000	-14770.620000	0.000000	0.000000	0.000000	0.000000	-76.380886	-38.351946	-103.787572	-112.242793	-0.000000	0.000000	0.000000	-0.000000	12.787880	1.388660	-3.143560	-0.028931	0.784849	0.613219	-1.000000	-1.000000	-1.000000	-1.000000	-1.000000	-1.000000	-1.000000	138.965517	0.000000	-1.000000	-1.000000	544092.000000	1772919118.191376
-2644.695000	21116.160000	-20347.695000	-14666.130000	0.000000	0.000000	0.000000	0.000000	-46.610713	-73.616100	-57.039611	-66.405746	-0.000000	0.000000	0.000000	-0.000000	12.787880	1.388660	-3.143560	-0.028931	0.784849	0.613219	-1.000000	-1.000000	-1.000000	-1.000000	-1.000000	-1.000000	-1.000000	138.965517	0.000000	-1.000000	-1.000000	544093.000000	1772919118.191380
-2551.995000	21136.455000	-20246.040000	-14557.770000	0.000000	0.000000	0.000000	0.000000	9.026386	-67.610963	20.394922	16.827217	-0.000000	0.000000	0.000000	-0.000000	17.228540	1.785420	-2.746800	-0.028809	0.783567	0.611632	-1.000000	-1.000000	-1.000000	-1.000000	-1.000000	-1.000000	-1.000000	138.965517	0.000000	-1.000000	-1.000000	544094.000000	1772919118.195428
-2541.915000	21126.285000	-20240.145000	-14569.605000	0.000000	0.000000	0.000000	0.000000	66.328352	-34.348492	91.406267	95.182723	-0.000000	0.000000	0.000000	-0.000000	17.228540	1.785420	-2.746800	-0.028809	0.783567	0.611632	-1.000000	-1.000000	-1.000000	-1.000000	-1.000000	-1.000000	-1.000000	138.965517	0.000000	-1.000000	-1.000000	544095.000000	1772919118.195432
-2573.640000	21147.480000	-20286.270000	-14617.395000	0.000000	0.000000	0.000000	0.000000	94.948007	2.079139	119.179299	126.121504	-0.000000	0.000000	0.000000	-0.000000	17.228540	1.785420	-2.746800	-0.028809	0.783567	0.611632	-1.000000	-1.000000	-1.000000	-1.000000	-1.000000	-1.000000	-1.000000	138.965517	0.000000	-1.000000	-1.000000	544096.000000	1772919118.217539
-2632.140000	21186.360000	-20368.845000	-14692.770000	0.000000	0.000000	0.000000	0.000000	76.241664	25.036231	86.915359	91.529380	-0.000000	0.000000	0.000000	-0.000000	17.228540	1.785420	-2.746800	-0.028809	0.783567	0.611632	-1.000000	-1.000000	-1.000000	-1.000000	-1.000000	-1.000000	-1.000000	138.965517	0.000000	-1.000000	-1.000000	544097.000000	1772919118.217545
-2676.105000	21136.095000	-20422.755000	-14774.940000	0.000000	0.000000	0.000000	0.000000	18.664019	29.960000	10.850648	10.617403	-0.000000	0.000000	0.000000	-0.000000	17.228540	1.785420	-2.746800	-0.028809	0.783567	0.611632	-1.000000	-1.000000	-1.000000	-1.000000	-1.000000	-1.000000	-1.000000	138.965517	0.000000	-1.000000	-1.000000	544098.000000	1772919118.217550
-2663.730000	21120.705000	-20375.595000	-14752.440000	0.000000	0.000000	0.000000	0.000000	-45.936440	18.361339	-66.787210	-71.910803	-0.000000	0.000000	0.000000	-0.000000	17.228540	1.785420	-2.746800	-0.028809	0.783567	0.611632	-1.000000	-1.000000	-1.000000	-1.000000	-1.000000	-1.000000	-1.000000	138.965517	0.000000	-1.000000	-1.000000	544099.000000	1772919118.217552
-2666.655000	21157.020000	-20339.640000	-14707.710000	0.000000	0.000000	0.000000	0.000000	-82.760147	-2.407083	-102.801579	-111.509265	-0.000000	0.000000	0.000000	-0.000000	17.228540	1.785420	-2.746800	-0.028809	0.783567	0.611632	-1.000000	-1.000000	-1.000000	-1.000000	-1.000000	-1.000000	-1.000000	138.965517	0.000000	-1.000000	-1.000000	544100.000000	1772919118.217556
-2621.790000	21147.210000	-20295.045000	-14644.530000	0.000000	0.000000	0.000000	0.000000	-75.819045	-18.935467	-81.514413	-89.515467	-0.000000	0.000000	0.000000	-0.000000	17.228540	1.785420	-2.746800	-0.028809	0.783567	0.611632	-1.000000	-1.000000	-1.000000	-1.000000	-1.000000	-1.000000	-1.000000	138.965517	0.000000	-1.000000	-1.000000	544101.000000	1772919118.217558
-2513.745000	21129.660000	-20187.315000	-14530.590000	0.000000	0.000000	0.000000	0.000000	-32.806723	-22.899327	-21.441228	-22.364207	-0.000000	0.000000	0.000000	-0.000000	17.228540	1.785420	-2.746800	-0.028809	0.783567	0.611632	-1.000000	-1.000000	-1.000000	-1.000000	-1.000000	-1.000000	-1.000000	138.965517	0.000000	-1.000000	-1.000000	544102.000000	1772919118.217561
-2545.110000	21162.330000	-20223.360000	-14535.360000	0.000000	0.000000	0.000000	0.000000	22.855890	-16.384542	41.698536	51.492093	-0.000000	0.000000	0.000000	-0.000000	17.228540	1.785420	-2.746800	-0.028809	0.783567	0.611632	-1.000000	-1.000000	-1.000000	-1.000000	-1.000000	-1.000000	-1.000000	138.965517	0.000000	-1.000000	-1.000000	544103.000000	1772919118.217563
-2626.290000	21165.435000	-20306.475000	-14607.540000	0.000000	0.000000	0.000000	0.000000	59.593712	-4.689334	72.685226	91.206008	-0.000000	0.000000	0.000000	-0.000000	15.336300	4.455920	-5.569900	-0.027527	0.784971	0.605345	-1.000000	-1.000000	-1.000000	-1.000000	-1.000000	-1.000000	-1.000000	138.965517	0.000000	-1.000000	-1.000000	544104.000000	1772919118.217566
-2639.205000	21042.855000	-20316.870000	-14613.255000	0.000000	0.000000	0.000000	0.000000	55.393821	4.917315	55.231892	75.614079	-0.000000	0.000000	0.000000	-0.000000	15.336300	4.455920	-5.569900	-0.027527	0.784971	0.605345	-1.000000	-1.000000	-1.000000	-1.000000	-1.000000	-1.000000	-1.000000	138.965517	0.000000	-1.000000	-1.000000	544105.000000	1772919118.217568
-2729.655000	21051.225000	-20449.350000	-14732.145000	0.000000	0.000000	0.000000	0.000000	16.663759	3.927282	3.946383	17.579132	-0.000000	0.000000	0.000000	-0.000000	15.336300	4.455920	-5.569900	-0.027527	0.784971	0.605345	-1.000000	-1.000000	-1.000000	-1.000000	-1.000000	-1.000000	-1.000000	138.965517	0.000000	-1.000000	-1.000000	544106.000000	1772919118.219572
-2708.145000	21064.320000	-20470.545000	-14730.390000	0.000000	0.000000	0.000000	0.000000	-28.648804	-5.120520	-49.269659	-47.754327	-0.000000	0.000000	0.000000	-0.000000	15.336300	4.455920	-5.569900	-0.027527	0.784971	0.605345	-1.000000	-1.000000	-1.000000	-1.000000	-1.000000	-1.000000	-1.000000	138.965517	0.000000	-1.000000	-1.000000	544107.000000	1772919118.219577
-2612.880000	21040.830000	-20424.690000	-14652.765000	0.000000	0.000000	0.000000	0.000000	-50.470135	-9.195639	-74.423055	-83.742103	-0.000000	0.000000	0.000000	-0.000000	15.336300	4.455920	-5.569900	-0.027527	0.784971	0.605345	-1.000000	-1.000000	-1.000000	-1.000000	-1.000000	-1.000000	-1.000000	138.965517	0.000000	-1.000000	-1.000000	544108.000000	1772919118.223583
-2562.975000	21083.940000	-20372.940000	-14680.080000	0.000000	0.000000	0.000000	0.000000	-33.358309	-1.564197	-55.314514	-70.862704	-0.000000	0.000000	0.000000	-0.000000	15.336300	4.455920	-5.569900	-0.027527	0.784971	0.605345	-1.000000	-1.000000	-1.000000	-1.000000	-1.000000	-1.000000	-1.000000	138.965517	0.000000	-1.000000	-1.000000	544109.000000	1772919118.223586
-2507.535000	21072.555000	-20230.515000	-14640.570000	0.000000	0.000000	0.000000	0.000000	11.102495	13.390427	0.810273	-21.255472	-0.000000	0.000000	0.000000	-0.000000	15.336300	4.455920	-5.569900	-0.027527	0.784971	0.605345	-1.000000	-1.000000	-1.000000	-1.000000	-1.000000	-1.000000	-1.000000	138.965517	0.000000	-1.000000	-1.000000	544110.000000	1772919118.227498
-2578.905000	21164.670000	-20261.880000	-14633.865000	0.000000	0.000000	0.000000	0.000000	50.701979	27.515036	64.735775	32.712148	-0.000000	0.000000	0.000000	-0.000000	15.336300	4.455920	-5.569900	-0.027527	0.784971	0.605345	-1.000000	-1.000000	-1.000000	-1.000000	-1.000000	-1.000000	-1.000000	138.965517	0.000000	-1.000000	-1.000000	544111.000000	1772919118.227502
-2678.940000	21218.355000	-20367.045000	-14695.650000	0.000000	0.000000	0.000000	0.000000	55.028378	35.799799	97.247018	62.873472	-0.000000	0.000000	0.000000	-0.000000	15.336300	4.455920	-5.569900	-0.027527	0.784971	0.605345	-1.000000	-1.000000	-1.000000	-1.000000	-1.000000	-1.000000	-1.000000	138.965517	0.000000	-1.000000	-1.000000	544112.000000	1772919118.231484
-2732.445000	21232.215000	-20394.450000	-14723.820000	0.000000	0.000000	0.000000	0.000000	17.792569	35.711866	73.736634	57.212752	-0.000000	0.000000	0.000000	-0.000000	15.336300	4.455920	-5.569900	-0.027527	0.784971	0.605345	-1.000000	-1.000000	-1.000000	-1.000000	-1.000000	-1.000000	-1.000000	138.965517	0.000000	-1.000000	-1.000000	544113.000000	1772919118.231488
-2813.715000	21263.085000	-20477.385000	-14824.080000	0.000000	0.000000	0.000000	0.000000	-37.150801	23.887183	7.587181	22.646298	-0.000000	0.000000	0.000000	-0.000000	18.281480	8.743980	-4.394880	-0.026977	0.796995	0.601744	-1.000000	-1.000000	-1.000000	-1.000000	-1.000000	-1.000000	-1.000000	138.965517	0.000000	-1.000000	-1.000000	544114.000000	1772919118.235644
-2834.235000	21262.635000	-20536.965000	-14870.115000	0.000000	0.000000	0.000000	0.000000	-74.901585	0.742141	-61.267541	-20.823829	-0.000000	0.000000	0.000000	-0.000000	18.281480	8.743980	-4.394880	-0.026977	0.796995	0.601744	-1.000000	-1.000000	-1.000000	-1.000000	-1.000000	-1.000000	-1.000000	138.965517	0.000000	-1.000000	-1.000000	544115.000000	1772919118.235647
-2753.190000	21263.805000	-20460.195000	-14797.890000	0.000000	0.000000	0.000000	0.000000	-72.038113	-26.343097	-95.546478	-49.119173	-0.000000	0.000000	0.000000	-0.000000	18.281480	8.743980	-4.394880	-0.026977	0.796995	0.601744	-1.000000	-1.000000	-1.000000	-1.000000	-1.000000	-1.000000	-1.000000	138.965517	0.000000	-1.000000	-1.000000	544116.000000	1772919118.239631
-2724.840000	21318.210000	-20421.045000	-14761.395000	0.000000	0.000000	0.000000	0.000000	-26.999282	-46.231202	-77.480407	-43.729199	-0.000000	0.000000	0.000000	-0.000000	18.281480	8.743980	-4.394880	-0.026977	0.796995	0.601744	-1.000000	-1.000000	-1.000000	-1.000000	-1.000000	-1.000000	-1.000000	138.965517	0.000000	-1.000000	-1.000000	544117.000000	1772919118.239634
-2719.890000	21451.770000	-20414.970000	-14712.705000	0.000000	0.000000	0.000000	0.000000	36.726285	-47.162825	-18.721207	-6.448873	-0.000000	0.000000	0.000000	-0.000000	18.281480	8.743980	-4.394880	-0.026977	0.796995	0.601744	-1.000000	-1.000000	-1.000000	-1.000000	-1.000000	-1.000000	-1.000000	138.965517	0.000000	-1.000000	-1.000000	544118.000000	1772919118.243536
-2696.490000	21579.525000	-20376.450000	-14633.910000	0.000000	0.000000	0.000000	0.000000	83.386277	-23.173455	45.176090	39.766227	-0.000000	0.000000	0.000000	-0.000000	18.281480	8.743980	-4.394880	-0.026977	0.796995	0.601744	-1.000000	-1.000000	-1.000000	-1.000000	-1.000000	-1.000000	-1.000000	138.965517	0.000000	-1.000000	-1.000000	544119.000000	1772919118.243538
-2675.565000	21661.065000	-20326.545000	-14598.855000	0.000000	0.000000	0.000000	0.000000	90.604991	16.282524	81.639279	69.107156	-0.000000	0.000000	0.000000	-0.000000	18.281480	8.743980	-4.394880	-0.026977	0.796995	0.601744	-1.000000	-1.000000	-1.000000	-1.000000	-1.000000	-1.000000	-1.000000	138.965517	0.000000	-1.000000	-1.000000	544120.000000	1772919118.247535
-2658.375000	21755.565000	-20325.015000	-14655.825000	0.000000	0.000000	0.000000	0.000000	61.119248	48.291399	79.814520	65.834141	-0.000000	0.000000	0.000000	-0.000000	18.281480	8.743980	-4.394880	-0.026977	0.796995	0.601744	-1.000000	-1.000000	-1.000000	-1.000000	-1.000000	-1.000000	-1.000000	138.965517	0.000000	-1.000000	-1.000000	544121.000000	1772919118.247539
-2692.215000	21794.985000	-20408.805000	-14791.455000	0.000000	0.000000	0.000000	0.000000	13.203190	53.262736	45.593410	26.281578	-0.000000	0.000000	0.000000	-0.000000	18.281480	8.743980	-4.394880	-0.026977	0.796995	0.601744	-1.000000	-1.000000	-1.000000	-1.000000	-1.000000	-1.000000	-1.000000	138.965517	0.000000	-1.000000	-1.000000	544122.000000	1772919118.251479
-2695.050000	21674.520000	-20419.020000	-14798.385000	0.000000	0.000000	0.000000	0.000000	-33.373331	25.148073	-6.828607	-36.070340	-0.000000	0.000000	0.000000	-0.000000	18.281480	8.743980	-4.394880	-0.026977	0.796995	0.601744	-1.000000	-1.000000	-1.000000	-1.000000	-1.000000	-1.000000	-1.000000	138.965517	0.000000	-1.000000	-1.000000	544123.000000	1772919118.251482
-2753.145000	21633.480000	-20430.945000	-14755.590000	0.000000	0.000000	0.000000	0.000000	-64.405079	-28.649873	-55.414192	-87.729839	-0.000000	0.000000	0.000000	-0.000000	14.390180	-4.104940	-8.499820	-0.045959	0.778929	0.592894	-1.000000	-1.000000	-1.000000	-1.000000	-1.000000	-1.000000	-1.000000	138.965517	0.000000	-1.000000	-1.000000	544124.000000	1772919118.255672
-2753.415000	21680.190000	-20471.040000	-14768.865000	0.000000	0.000000	0.000000	0.000000	-73.264353	-83.045379	-78.439256	-95.856045	-0.000000	0.000000	0.000000	-0.000000	14.390180	-4.104940	-8.499820	-0.045959	0.778929	0.592894	-1.000000	-1.000000	-1.000000	-1.000000	-1.000000	-1.000000	-1.000000	138.965517	0.000000	-1.000000	-1.000000	544125.000000	1772919118.255675
-2689.875000	21728.520000	-20401.965000	-14732.010000	0.000000	0.000000	0.000000	0.000000	-58.643923	-102.820143	-67.718360	-56.916778	-0.000000	0.000000	0.000000	-0.000000	14.390180	-4.104940	-8.499820	-0.045959	0.778929	0.592894	-1.000000	-1.000000	-1.000000	-1.000000	-1.000000	-1.000000	-1.000000	138.965517	0.000000	-1.000000	-1.000000	544126.000000	1772919118.259527
-2609.550000	21745.170000	-20276.505000	-14570.730000	0.000000	0.000000	0.000000	0.000000	-22.654908	-71.727026	-27.841691	6.527110	-0.000000	0.000000	0.000000	-0.000000	14.390180	-4.104940	-8.499820	-0.045959	0.778929	0.592894	-1.000000	-1.000000	-1.000000	-1.000000	-1.000000	-1.000000	-1.000000	138.965517	0.000000	-1.000000	-1.000000	544127.000000	1772919118.259531
-2546.820000	21864.150000	-20241.000000	-14522.580000	0.000000	0.000000	0.000000	0.000000	24.417352	-6.293295	26.985455	67.583132	-0.000000	0.000000	0.000000	-0.000000	14.390180	-4.104940	-8.499820	-0.045959	0.778929	0.592894	-1.000000	-1.000000	-1.000000	-1.000000	-1.000000	-1.000000	-1.000000	138.965517	0.000000	-1.000000	-1.000000	544128.000000	1772919118.263364
-2560.455000	21890.070000	-20302.605000	-14598.630000	0.000000	0.000000	0.000000	0.000000	61.874259	60.841630	69.749107	99.824708	-0.000000	0.000000	0.000000	-0.000000	14.390180	-4.104940	-8.499820	-0.045959	0.778929	0.592894	-1.000000	-1.000000	-1.000000	-1.000000	-1.000000	-1.000000	-1.000000	138.965517	0.000000	-1.000000	-1.000000	544129.000000	1772919118.263366
-2727.630000	21872.340000	-20483.685000	-14733.405000	0.000000	0.000000	0.000000	0.000000	66.085795	99.024314	70.271341	80.881395	-0.000000	0.000000	0.000000	-0.000000	14.390180	-4.104940	-8.499820	-0.045959	0.778929	0.592894	-1.000000	-1.000000	-1.000000	-1.000000	-1.000000	-1.000000	-1.000000	138.965517	0.000000	-1.000000	-1.000000	544130.000000	1772919118.267735
-2983.905000	21855.465000	-20737.890000	-14936.265000	0.000000	0.000000	0.000000	0.000000	23.756440	91.118856	17.589526	10.731476	-0.000000	0.000000	0.000000	-0.000000	14.390180	-4.104940	-8.499820	-0.045959	0.778929	0.592894	-1.000000	-1.000000	-1.000000	-1.000000	-1.000000	-1.000000	-1.000000	138.965517	0.000000	-1.000000	-1.000000	544131.000000	1772919118.267738
-2908.170000	21853.395000	-20560.635000	-14846.580000	0.000000	0.000000	0.000000	0.000000	-48.127051	44.262127	-59.692941	-75.457656	-0.000000	0.000000	0.000000	-0.000000	14.390180	-4.104940	-8.499820	-0.045959	0.778929	0.592894	-1.000000	-1.000000	-1.000000	-1.000000	-1.000000	-1.000000	-1.000000	138.965517	0.000000	-1.000000	-1.000000	544132.000000	1772919118.271747
-2718.540000	21782.970000	-20360.745000	-14683.185000	0.000000	0.000000	0.000000	0.000000	-95.205369	-15.068084	-97.742888	-118.940046	-0.000000	0.000000	0.000000	-0.000000	14.390180	-4.104940	-8.499820	-0.045959	0.778929	0.592894	-1.000000	-1.000000	-1.000000	-1.000000	-1.000000	-1.000000	-1.000000	138.965517	0.000000	-1.000000	-1.000000	544133.000000	1772919118.271749
-2563.470000	21810.645000	-20189.745000	-14489.955000	0.000000	0.000000	0.000000	0.000000	-67.605081	-59.388629	-51.819822	-80.042931	-0.000000	0.000000	0.000000	-0.000000	-7.034860	-12.971000	4.547480	-0.051941	0.809324	0.588683	-1.000000	-1.000000	-1.000000	-1.000000	-1.000000	-1.000000	-1.000000	138.965517	0.000000	-1.000000	-1.000000	544134.000000	1772919118.275640
-2396.880000	21889.080000	-20019.690000	-14385.375000	0.000000	0.000000	0.000000	0.000000	26.080203	-70.265959	53.409626	22.018850	-0.000000	0.000000	0.000000	-0.000000	-7.034860	-12.971000	4.547480	-0.051941	0.809324	0.588683	-1.000000	-1.000000	-1.000000	-1.000000	-1.000000	-1.000000	-1.000000	138.965517	0.000000	-1.000000	-1.000000	544135.000000	1772919118.275643
-2514.645000	21947.670000	-20174.220000	-14487.435000	0.000000	0.000000	0.000000	0.000000	120.523053	-43.256830	141.647975	117.612679	-0.000000	0.000000	0.000000	-0.000000	-7.034860	-12.971000	4.547480	-0.051941	0.809324	0.588683	-1.000000	-1.000000	-1.000000	-1.000000	-1.000000	-1.000000	-1.000000	138.965517	0.000000	-1.000000	-1.000000	544136.000000	1772919118.279630
-2773.710000	21886.470000	-20438.325000	-14727.375000	0.000000	0.000000	0.000000	0.000000	140.790484	4.200001	139.993197	134.885255	-0.000000	0.000000	0.000000	-0.000000	-7.034860	-12.971000	4.547480	-0.051941	0.809324	0.588683	-1.000000	-1.000000	-1.000000	-1.000000	-1.000000	-1.000000	-1.000000	138.965517	0.000000	-1.000000	-1.000000	544137.000000	1772919118.279633
-2714.670000	21899.610000	-20418.075000	-14737.365000	0.000000	0.000000	0.000000	0.000000	62.470109	40.379090	36.042891	55.596480	-0.000000	0.000000	0.000000	-0.000000	-7.034860	-12.971000	4.547480	-0.051941	0.809324	0.588683	-1.000000	-1.000000	-1.000000	-1.000000	-1.000000	-1.000000	-1.000000	138.965517	0.000000	-1.000000	-1.000000	544138.000000	1772919118.283545
-2762.640000	21913.245000	-20497.365000	-14805.270000	0.000000	0.000000	0.000000	0.000000	-59.342560	46.195552	-101.969261	-64.873228	-0.000000	0.000000	0.000000	-0.000000	-7.034860	-12.971000	4.547480	-0.051941	0.809324	0.588683	-1.000000	-1.000000	-1.000000	-1.000000	-1.000000	-1.000000	-1.000000	138.965517	0.000000	-1.000000	-1.000000	544139.000000	1772919118.283547
-2891.745000	21923.145000	-20641.770000	-14904.090000	0.000000	0.000000	0.000000	0.000000	-143.049814	27.984490	-185.774163	-146.756477	-0.000000	0.000000	0.000000	-0.000000	-7.034860	-12.971000	4.547480	-0.051941	0.809324	0.588683	-1.000000	-1.000000	-1.000000	-1.000000	-1.000000	-1.000000	-1.000000	138.965517	0.000000	-1.000000	-1.000000	544140.000000	1772919118.289297
-2897.955000	21984.705000	-20673.945000	-15018.795000	0.000000	0.000000	0.000000	0.000000	-151.185960	4.488747	-178.764293	-151.555142	-0.000000	0.000000	0.000000	-0.000000	-7.034860	-12.971000	4.547480	-0.051941	0.809324	0.588683	-1.000000	-1.000000	-1.000000	-1.000000	-1.000000	-1.000000	-1.000000	138.965517	0.000000	-1.000000	-1.000000	544141.000000	1772919118.289300
-2834.955000	21968.640000	-20570.760000	-14917.590000	0.000000	0.000000	0.000000	0.000000	-93.514620	-9.859302	-96.523472	-90.258007	-0.000000	0.000000	0.000000	-0.000000	-7.034860	-12.971000	4.547480	-0.051941	0.809324	0.588683	-1.000000	-1.000000	-1.000000	-1.000000	-1.000000	-1.000000	-1.000000	138.965517	0.000000	-1.000000	-1.000000	544142.000000	1772919118.298371
-2763.945000	21966.120000	-20425.725000	-14708.115000	0.000000	0.000000	0.000000	0.000000	0.167627	-13.376792	24.907086	9.367597	-0.000000	0.000000	0.000000	-0.000000	-7.034860	-12.971000	4.547480	-0.051941	0.809324	0.588683	-1.000000	-1.000000	-1.000000	-1.000000	-1.000000	-1.000000	-1.000000	138.965517	0.000000	-1.000000	-1.000000	544143.000000	1772919118.298376
-2741.985000	22005.945000	-20348.955000	-14535.495000	0.000000	0.000000	0.000000	0.000000	91.170000	-12.116079	141.142984	117.710358	-0.000000	0.000000	0.000000	-0.000000	-29.818040	-9.720620	10.682000	-0.042419	0.874632	0.585387	-1.000000	-1.000000	-1.000000	-1.000000	-1.000000	-1.000000	-1.000000	138.965517	0.000000	-1.000000	-1.000000	544144.000000	1772919118.298380
-2665.440000	21891.555000	-20254.320000	-14418.990000	0.000000	0.000000	0.000000	0.000000	142.909635	-11.339050	206.676720	196.403495	-0.000000	0.000000	0.000000	-0.000000	-29.818040	-9.720620	10.682000	-0.042419	0.874632	0.585387	-1.000000	-1.000000	-1.000000	-1.000000	-1.000000	-1.000000	-1.000000	138.965517	0.000000	-1.000000	-1.000000	544145.000000	1772919118.298382
-2622.330000	21690.945000	-20202.480000	-14428.395000	0.000000	0.000000	0.000000	0.000000	139.069350	-18.524007	195.393350	205.801390	-0.000000	0.000000	0.000000	-0.000000	-29.818040	-9.720620	10.682000	-0.042419	0.874632	0.585387	-1.000000	-1.000000	-1.000000	-1.000000	-1.000000	-1.000000	-1.000000	138.965517	0.000000	-1.000000	-1.000000	544146.000000	1772919118.299905
-2726.775000	21550.680000	-20368.710000	-14634.675000	0.000000	0.000000	0.000000	0.000000	86.687263	-39.412818	111.981350	127.556974	-0.000000	0.000000	0.000000	-0.000000	-29.818040	-9.720620	10.682000	-0.042419	0.874632	0.585387	-1.000000	-1.000000	-1.000000	-1.000000	-1.000000	-1.000000	-1.000000	138.965517	0.000000	-1.000000	-1.000000	544147.000000	1772919118.299908
-2767.410000	21477.060000	-20438.820000	-14824.935000	0.000000	0.000000	0.000000	0.000000	5.265052	-62.256174	-15.004317	-19.338595	-0.000000	0.000000	0.000000	-0.000000	-29.818040	-9.720620	10.682000	-0.042419	0.874632	0.585387	-1.000000	-1.000000	-1.000000	-1.000000	-1.000000	-1.000000	-1.000000	138.965517	0.000000	-1.000000	-1.000000	544148.000000	1772919118.304109
-2580.390000	21372.795000	-20255.580000	-14693.625000	0.000000	0.000000	0.000000	0.000000	-72.269939	-62.784780	-133.866995	-171.786834	-0.000000	0.000000	0.000000	-0.000000	-29.818040	-9.720620	10.682000	-0.042419	0.874632	0.585387	-1.000000	-1.000000	-1.000000	-1.000000	-1.000000	-1.000000	-1.000000	138.965517	0.000000	-1.000000	-1.000000	544149.000000	1772919118.304114
-2601.360000	21288.330000	-20268.495000	-14659.605000	0.000000	0.000000	0.000000	0.000000	-107.010312	-30.125375	-185.465291	-246.062521	-0.000000	0.000000	0.000000	-0.000000	-29.818040	-9.720620	10.682000	-0.042419	0.874632	0.585387	-1.000000	-1.000000	-1.000000	-1.000000	-1.000000	-1.000000	-1.000000	138.965517	0.000000	-1.000000	-1.000000	544150.000000	1772919118.309934
-2687.130000	21275.640000	-20350.845000	-14676.660000	0.000000	0.000000	0.000000	0.000000	-90.173805	23.724235	-152.806464	-202.137686	-0.000000	0.000000	0.000000	-0.000000	-29.818040	-9.720620	10.682000	-0.042419	0.874632	0.585387	-1.000000	-1.000000	-1.000000	-1.000000	-1.000000	-1.000000	-1.000000	138.965517	0.000000	-1.000000	-1.000000	544151.000000	1772919118.309938
-2654.325000	21374.685000	-20243.295000	-14551.695000	0.000000	0.000000	0.000000	0.000000	-50.310661	79.274792	-72.888078	-75.689790	-0.000000	0.000000	0.000000	-0.000000	-29.818040	-9.720620	10.682000	-0.042419	0.874632	0.585387	-1.000000	-1.000000	-1.000000	-1.000000	-1.000000	-1.000000	-1.000000	138.965517	0.000000	-1.000000	-1.000000	544152.000000	1772919118.313134
-2751.795000	21498.435000	-20286.945000	-14628.015000	0.000000	0.000000	0.000000	0.000000	-16.460691	122.951215	8.220437	60.245817	-0.000000	0.000000	0.000000	-0.000000	-29.818040	-9.720620	10.682000	-0.042419	0.874632	0.585387	-1.000000	-1.000000	-1.000000	-1.000000	-1.000000	-1.000000	-1.000000	138.965517	0.000000	-1.000000	-1.000000	544153.000000	1772919118.313139
-2777.265000	21564.000000	-20235.285000	-14701.860000	0.000000	0.000000	0.000000	0.000000	1.105924	143.845009	62.935501	141.458667	-0.000000	0.000000	0.000000	-0.000000	-60.231220	-20.906200	-4.120200	-0.038391	0.850950	0.607115	-1.000000	-1.000000	-1.000000	-1.000000	-1.000000	-1.000000	-1.000000	138.965517	0.000000	-1.000000	-1.000000	544154.000000	1772919118.316211
-2814.435000	21603.105000	-20221.245000	-14865.165000	0.000000	0.000000	0.000000	0.000000	5.817766	129.146652	81.993361	138.193849	-0.000000	0.000000	0.000000	-0.000000	-60.231220	-20.906200	-4.120200	-0.038391	0.850950	0.607115	-1.000000	-1.000000	-1.000000	-1.000000	-1.000000	-1.000000	-1.000000	138.965517	0.000000	-1.000000	-1.000000	544155.000000	1772919118.316214
-2883.330000	21566.430000	-20275.605000	-14927.175000	0.000000	0.000000	0.000000	0.000000	6.911769	72.589232	70.038869	67.317929	-0.000000	0.000000	0.000000	-0.000000	-60.231220	-20.906200	-4.120200	-0.038391	0.850950	0.607115	-1.000000	-1.000000	-1.000000	-1.000000	-1.000000	-1.000000	-1.000000	138.965517	0.000000	-1.000000	-1.000000	544156.000000	1772919118.319614
-2920.320000	21475.890000	-20576.880000	-14902.245000	0.000000	0.000000	0.000000	0.000000	10.025818	-15.462861	32.409217	-18.622403	-0.000000	0.000000	0.000000	-0.000000	-60.231220	-20.906200	-4.120200	-0.038391	0.850950	0.607115	-1.000000	-1.000000	-1.000000	-1.000000	-1.000000	-1.000000	-1.000000	138.965517	0.000000	-1.000000	-1.000000	544157.000000	1772919118.319617
-2676.150000	21369.330000	-20531.925000	-14701.860000	0.000000	0.000000	0.000000	0.000000	20.504368	-108.772775	-23.570500	-62.005355	-0.000000	0.000000	0.000000	-0.000000	-60.231220	-20.906200	-4.120200	-0.038391	0.850950	0.607115	-1.000000	-1.000000	-1.000000	-1.000000	-1.000000	-1.000000	-1.000000	138.965517	0.000000	-1.000000	-1.000000	544158.000000	1772919118.324101
-2306.430000	21291.390000	-20132.415000	-14397.885000	0.000000	0.000000	0.000000	0.000000	51.862790	-174.317212	-62.089873	-32.712036	-0.000000	0.000000	0.000000	-0.000000	-60.231220	-20.906200	-4.120200	-0.038391	0.850950	0.607115	-1.000000	-1.000000	-1.000000	-1.000000	-1.000000	-1.000000	-1.000000	138.965517	0.000000	-1.000000	-1.000000	544159.000000	1772919118.324104
-2288.115000	21323.880000	-20111.535000	-14369.715000	0.000000	0.000000	0.000000	0.000000	103.406183	-184.419803	-36.928159	49.214802	-0.000000	0.000000	0.000000	-0.000000	-60.231220	-20.906200	-4.120200	-0.038391	0.850950	0.607115	-1.000000	-1.000000	-1.000000	-1.000000	-1.000000	-1.000000	-1.000000	138.965517	0.000000	-1.000000	-1.000000	544160.000000	1772919118.327869
-2634.300000	21315.645000	-20499.165000	-14626.125000	0.000000	0.000000	0.000000	0.000000	127.615021	-130.484294	32.873527	113.547420	-0.000000	0.000000	0.000000	-0.000000	-60.231220	-20.906200	-4.120200	-0.038391	0.850950	0.607115	-1.000000	-1.000000	-1.000000	-1.000000	-1.000000	-1.000000	-1.000000	138.965517	0.000000	-1.000000	-1.000000	544161.000000	1772919118.327871
-2710.980000	21240.045000	-20423.565000	-14591.430000	0.000000	0.000000	0.000000	0.000000	66.494103	-34.837610	68.760354	93.011034	-0.000000	0.000000	0.000000	-0.000000	-60.231220	-20.906200	-4.120200	-0.038391	0.850950	0.607115	-1.000000	-1.000000	-1.000000	-1.000000	-1.000000	-1.000000	-1.000000	138.965517	0.000000	-1.000000	-1.000000	544162.000000	1772919118.331683
-2609.865000	21284.370000	-20355.210000	-14652.540000	0.000000	0.000000	0.000000	0.000000	-63.478372	58.825758	39.310223	-5.882330	-0.000000	0.000000	0.000000	-0.000000	-60.231220	-20.906200	-4.120200	-0.038391	0.850950	0.607115	-1.000000	-1.000000	-1.000000	-1.000000	-1.000000	-1.000000	-1.000000	138.965517	0.000000	-1.000000	-1.000000	544163.000000	1772919118.331686
-2706.390000	21343.005000	-20565.045000	-14919.030000	0.000000	0.000000	0.000000	0.000000	-173.135178	117.351577	-14.897401	-116.591846	-0.000000	0.000000	0.000000	-0.000000	-1.129240	-39.187680	9.201780	-0.029541	0.870908	0.712278	-1.000000	-1.000000	-1.000000	-1.000000	-1.000000	-1.000000	-1.000000	138.965517	0.000000	-1.000000	-1.000000	544164.000000	1772919118.335984
-2868.390000	21380.715000	-20599.920000	-15085.080000	0.000000	0.000000	0.000000	0.000000	-197.385573	133.305127	-54.434474	-184.009666	-0.000000	0.000000	0.000000	-0.000000	-1.129240	-39.187680	9.201780	-0.029541	0.870908	0.712278	-1.000000	-1.000000	-1.000000	-1.000000	-1.000000	-1.000000	-1.000000	138.965517	0.000000	-1.000000	-1.000000	544165.000000	1772919118.335987
-2764.485000	21428.730000	-20380.230000	-14923.035000	0.000000	0.000000	0.000000	0.000000	-140.641343	113.696811	-62.343300	-182.104603	-0.000000	0.000000	0.000000	-0.000000	-1.129240	-39.187680	9.201780	-0.029541	0.870908	0.712278	-1.000000	-1.000000	-1.000000	-1.000000	-1.000000	-1.000000	-1.000000	138.965517	0.000000	-1.000000	-1.000000	544166.000000	1772919118.339938
-2635.020000	21400.695000	-20294.595000	-14784.435000	0.000000	0.000000	0.000000	0.000000	-36.622601	69.115490	-26.882107	-99.245797	-0.000000	0.000000	0.000000	-0.000000	-1.129240	-39.187680	9.201780	-0.029541	0.870908	0.712278	-1.000000	-1.000000	-1.000000	-1.000000	-1.000000	-1.000000	-1.000000	138.965517	0.000000	-1.000000	-1.000000	544167.000000	1772919118.339941
-2422.485000	21319.830000	-20139.615000	-14568.345000	0.000000	0.000000	0.000000	0.000000	81.626853	10.125770	41.167892	45.001549	-0.000000	0.000000	0.000000	-0.000000	-1.129240	-39.187680	9.201780	-0.029541	0.870908	0.712278	-1.000000	-1.000000	-1.000000	-1.000000	-1.000000	-1.000000	-1.000000	138.965517	0.000000	-1.000000	-1.000000	544168.000000	1772919118.343820
-2378.655000	21367.215000	-20120.085000	-14522.400000	0.000000	0.000000	0.000000	0.000000	176.236936	-49.431322	101.432806	188.257736	-0.000000	0.000000	0.000000	-0.000000	-1.129240	-39.187680	9.201780	-0.029541	0.870908	0.712278	-1.000000	-1.000000	-1.000000	-1.000000	-1.000000	-1.000000	-1.000000	138.965517	0.000000	-1.000000	-1.000000	544169.000000	1772919118.343823
-2500.830000	21432.195000	-20372.040000	-14695.695000	0.000000	0.000000	0.000000	0.000000	204.142445	-87.308507	108.338354	252.929798	-0.000000	0.000000	0.000000	-0.000000	-1.129240	-39.187680	9.201780	-0.029541	0.870908	0.712278	-1.000000	-1.000000	-1.000000	-1.000000	-1.000000	-1.000000	-1.000000	138.965517	0.000000	-1.000000	-1.000000	544170.000000	1772919118.347896
-2564.280000	21356.955000	-20397.375000	-14709.420000	0.000000	0.000000	0.000000	0.000000	141.460901	-87.369289	42.509283	196.311246	-0.000000	0.000000	0.000000	-0.000000	-1.129240	-39.187680	9.201780	-0.029541	0.870908	0.712278	-1.000000	-1.000000	-1.000000	-1.000000	-1.000000	-1.000000	-1.000000	138.965517	0.000000	-1.000000	-1.000000	544171.000000	1772919118.347900
-2604.690000	21313.845000	-20467.530000	-14840.280000	0.000000	0.000000	0.000000	0.000000	13.916566	-59.220919	-63.210670	47.872215	-0.000000	0.000000	0.000000	-0.000000	-1.129240	-39.187680	9.201780	-0.029541	0.870908	0.712278	-1.000000	-1.000000	-1.000000	-1.000000	-1.000000	-1.000000	-1.000000	138.965517	0.000000	-1.000000	-1.000000	544172.000000	1772919118.355717
-2566.755000	21236.805000	-20492.460000	-14881.095000	0.000000	0.000000	0.000000	0.000000	-110.724841	-27.399694	-142.847572	-111.019237	-0.000000	0.000000	0.000000	-0.000000	-1.129240	-39.187680	9.201780	-0.029541	0.870908	0.712278	-1.000000	-1.000000	-1.000000	-1.000000	-1.000000	-1.000000	-1.000000	138.965517	0.000000	-1.000000	-1.000000	544173.000000	1772919118.355720
-2686.905000	21218.670000	-20599.695000	-14892.930000	0.000000	0.000000	0.000000	0.000000	-171.996944	-6.564963	-153.035290	-204.007342	-0.000000	0.000000	0.000000	-0.000000	64.290380	-50.419040	95.710720	-0.073913	0.980039	0.710814	-1.000000	-1.000000	-1.000000	-1.000000	-1.000000	-1.000000	-1.000000	138.965517	0.000000	-1.000000	-1.000000	544174.000000	1772919118.358375
-2659.680000	21151.575000	-20561.760000	-14831.280000	0.000000	0.000000	0.000000	0.000000	-155.536958	4.366739	-97.604831	-197.090762	-0.000000	0.000000	0.000000	-0.000000	64.290380	-50.419040	95.710720	-0.073913	0.980039	0.710814	-1.000000	-1.000000	-1.000000	-1.000000	-1.000000	-1.000000	-1.000000	138.965517	0.000000	-1.000000	-1.000000	544175.000000	1772919118.358378
-2619.270000	21060.180000	-20476.305000	-14760.000000	0.000000	0.000000	0.000000	0.000000	-84.719463	10.841047	-7.273326	-106.034220	-0.000000	0.000000	0.000000	-0.000000	64.290380	-50.419040	95.710720	-0.073913	0.980039	0.710814	-1.000000	-1.000000	-1.000000	-1.000000	-1.000000	-1.000000	-1.000000	138.965517	0.000000	-1.000000	-1.000000	544176.000000	1772919118.359897
-2561.490000	21081.555000	-20409.030000	-14706.225000	0.000000	0.000000	0.000000	0.000000	6.205882	15.779407	83.821525	18.104496	-0.000000	0.000000	0.000000	-0.000000	64.290380	-50.419040	95.710720	-0.073913	0.980039	0.710814	-1.000000	-1.000000	-1.000000	-1.000000	-1.000000	-1.000000	-1.000000	138.965517	0.000000	-1.000000	-1.000000	544177.000000	1772919118.359900
-2600.280000	21080.070000	-20458.440000	-14778.495000	0.000000	0.000000	0.000000	0.000000	82.534458	23.232612	142.744120	114.849685	-0.000000	0.000000	0.000000	-0.000000	64.290380	-50.419040	95.710720	-0.073913	0.980039	0.710814	-1.000000	-1.000000	-1.000000	-1.000000	-1.000000	-1.000000	-1.000000	138.965517	0.000000	-1.000000	-1.000000	544178.000000	1772919118.363866
-2625.750000	21134.070000	-20532.240000	-14811.165000	0.000000	0.000000	0.000000	0.000000	115.540382	36.257225	143.318037	142.192788	-0.000000	0.000000	0.000000	-0.000000	64.290380	-50.419040	95.710720	-0.073913	0.980039	0.710814	-1.000000	-1.000000	-1.000000	-1.000000	-1.000000	-1.000000	-1.000000	138.965517	0.000000	-1.000000	-1.000000	544179.000000	1772919118.363869
-2694.690000	21181.365000	-20570.580000	-14827.320000	0.000000	0.000000	0.000000	0.000000	95.953890	51.048144	84.145170	98.819712	-0.000000	0.000000	0.000000	-0.000000	64.290380	-50.419040	95.710720	-0.073913	0.980039	0.710814	-1.000000	-1.000000	-1.000000	-1.000000	-1.000000	-1.000000	-1.000000	138.965517	0.000000	-1.000000	-1.000000	544180.000000	1772919118.367915
-2757.825000	21102.570000	-20651.130000	-14921.235000	0.000000	0.000000	0.000000	0.000000	39.369605	56.551392	-4.441323	19.993081	-0.000000	0.000000	0.000000	-0.000000	64.290380	-50.419040	95.710720	-0.073913	0.980039	0.710814	-1.000000	-1.000000	-1.000000	-1.000000	-1.000000	-1.000000	-1.000000	138.965517	0.000000	-1.000000	-1.000000	544181.000000	1772919118.367919
-2730.555000	20882.970000	-20623.140000	-14835.870000	0.000000	0.000000	0.000000	0.000000	-22.568251	36.730097	-78.647238	-49.646627	-0.000000	0.000000	0.000000	-0.000000	64.290380	-50.419040	95.710720	-0.073913	0.980039	0.710814	-1.000000	-1.000000	-1.000000	-1.000000	-1.000000	-1.000000	-1.000000	138.965517	0.000000	-1.000000	-1.000000	544182.000000	1772919118.371956
-2553.165000	20759.760000	-20475.990000	-14634.045000	0.000000	0.000000	0.000000	0.000000	-55.159538	-15.350107	-103.422031	-74.446006	-0.000000	0.000000	0.000000	-0.000000	64.290380	-50.419040	95.710720	-0.073913	0.980039	0.710814	-1.000000	-1.000000	-1.000000	-1.000000	-1.000000	-1.000000	-1.000000	138.965517	0.000000	-1.000000	-1.000000	544183.000000	1772919118.371959
-2502.270000	20756.520000	-20382.390000	-14504.400000	0.000000	0.000000	0.000000	0.000000	-39.656338	-76.919497	-67.970082	-41.316122	-0.000000	0.000000	0.000000	-0.000000	30.642080	-56.462000	123.819640	-0.088989	0.974973	0.641173	-1.000000	-1.000000	-1.000000	-1.000000	-1.000000	-1.000000	-1.000000	138.965517	0.000000	-1.000000	-1.000000	544184.000000	1772919118.375909
-2480.265000	20789.235000	-20348.145000	-14571.405000	0.000000	0.000000	0.000000	0.000000	7.405222	-104.055083	3.255971	22.396090	-0.000000	0.000000	0.000000	-0.000000	30.642080	-56.462000	123.819640	-0.088989	0.974973	0.641173	-1.000000	-1.000000	-1.000000	-1.000000	-1.000000	-1.000000	-1.000000	138.965517	0.000000	-1.000000	-1.000000	544185.000000	1772919118.375912
-2351.655000	20813.130000	-20312.955000	-14662.080000	0.000000	0.000000	0.000000	0.000000	47.528972	-71.522109	63.286977	60.992062	-0.000000	0.000000	0.000000	-0.000000	30.642080	-56.462000	123.819640	-0.088989	0.974973	0.641173	-1.000000	-1.000000	-1.000000	-1.000000	-1.000000	-1.000000	-1.000000	138.965517	0.000000	-1.000000	-1.000000	544186.000000	1772919118.379920
-2563.245000	20881.440000	-20462.760000	-14687.415000	0.000000	0.000000	0.000000	0.000000	52.030087	4.038479	74.642487	40.014794	-0.000000	0.000000	0.000000	-0.000000	30.642080	-56.462000	123.819640	-0.088989	0.974973	0.641173	-1.000000	-1.000000	-1.000000	-1.000000	-1.000000	-1.000000	-1.000000	138.965517	0.000000	-1.000000	-1.000000	544187.000000	1772919118.379923
-2681.775000	20926.710000	-20549.835000	-14719.725000	0.000000	0.000000	0.000000	0.000000	11.368954	80.640374	29.755547	-22.483693	-0.000000	0.000000	0.000000	-0.000000	30.642080	-56.462000	123.819640	-0.088989	0.974973	0.641173	-1.000000	-1.000000	-1.000000	-1.000000	-1.000000	-1.000000	-1.000000	138.965517	0.000000	-1.000000	-1.000000	544188.000000	1772919118.387956
-2471.040000	20950.335000	-20585.655000	-14726.520000	0.000000	0.000000	0.000000	0.000000	-53.521680	120.351084	-44.307085	-78.692367	-0.000000	0.000000	0.000000	-0.000000	30.642080	-56.462000	123.819640	-0.088989	0.974973	0.641173	-1.000000	-1.000000	-1.000000	-1.000000	-1.000000	-1.000000	-1.000000	138.965517	0.000000	-1.000000	-1.000000	544189.000000	1772919118.387958
-2493.270000	20909.340000	-20690.235000	-14806.980000	0.000000	0.000000	0.000000	0.000000	-91.622095	106.402008	-101.518385	-94.260910	-0.000000	0.000000	0.000000	-0.000000	30.642080	-56.462000	123.819640	-0.088989	0.974973	0.641173	-1.000000	-1.000000	-1.000000	-1.000000	-1.000000	-1.000000	-1.000000	138.965517	0.000000	-1.000000	-1.000000	544190.000000	1772919118.387962
-2617.785000	20784.240000	-20644.830000	-14788.305000	0.000000	0.000000	0.000000	0.000000	-75.527000	45.283400	-109.088587	-66.983585	-0.000000	0.000000	0.000000	-0.000000	30.642080	-56.462000	123.819640	-0.088989	0.974973	0.641173	-1.000000	-1.000000	-1.000000	-1.000000	-1.000000	-1.000000	-1.000000	138.965517	0.000000	-1.000000	-1.000000	544191.000000	1772919118.387964
-2766.285000	20712.690000	-20779.830000	-14902.020000	0.000000	0.000000	0.000000	0.000000	-32.572156	-38.311687	-65.964321	-17.162507	-0.000000	0.000000	0.000000	-0.000000	30.642080	-56.462000	123.819640	-0.088989	0.974973	0.641173	-1.000000	-1.000000	-1.000000	-1.000000	-1.000000	-1.000000	-1.000000	138.965517	0.000000	-1.000000	-1.000000	544192.000000	1772919118.391900
-2764.530000	20621.250000	-20783.340000	-14850.855000	0.000000	0.000000	0.000000	0.000000	-1.034397	-109.111022	0.919441	30.269145	-0.000000	0.000000	0.000000	-0.000000	30.642080	-56.462000	123.819640	-0.088989	0.974973	0.641173	-1.000000	-1.000000	-1.000000	-1.000000	-1.000000	-1.000000	-1.000000	138.965517	0.000000	-1.000000	-1.000000	544193.000000	1772919118.391903
-2581.380000	20629.125000	-20514.825000	-14567.715000	0.000000	0.000000	0.000000	0.000000	16.415377	-135.474173	63.737764	66.109148	-0.000000	0.000000	0.000000	-0.000000	-125.849220	-31.786580	63.283220	0.024719	0.824400	0.551329	-1.000000	-1.000000	-1.000000	-1.000000	-1.000000	-1.000000	-1.000000	138.965517	0.000000	-1.000000	-1.000000	544194.000000	1772919118.395899
-2589.030000	20703.465000	-20562.345000	-14522.445000	0.000000	0.000000	0.000000	0.000000	40.390238	-103.945550	112.127397	97.107463	-0.000000	0.000000	0.000000	-0.000000	-125.849220	-31.786580	63.283220	0.024719	0.824400	0.551329	-1.000000	-1.000000	-1.000000	-1.000000	-1.000000	-1.000000	-1.000000	138.965517	0.000000	-1.000000	-1.000000	544195.000000	1772919118.395902
-2703.915000	20708.595000	-20488.590000	-14543.055000	0.000000	0.000000	0.000000	0.000000	69.195460	-27.117988	133.693291	114.690183	-0.000000	0.000000	0.000000	-0.000000	-125.849220	-31.786580	63.283220	0.024719	0.824400	0.551329	-1.000000	-1.000000	-1.000000	-1.000000	-1.000000	-1.000000	-1.000000	138.965517	0.000000	-1.000000	-1.000000	544196.000000	1772919118.399982
-2778.255000	20708.640000	-20489.805000	-14833.620000	0.000000	0.000000	0.000000	0.000000	73.666396	57.820492	111.733199	87.623161	-0.000000	0.000000	0.000000	-0.000000	-125.849220	-31.786580	63.283220	0.024719	0.824400	0.551329	-1.000000	-1.000000	-1.000000	-1.000000	-1.000000	-1.000000	-1.000000	138.965517	0.000000	-1.000000	-1.000000	544197.000000	1772919118.399985
-2880.270000	20644.830000	-20494.440000	-14956.335000	0.000000	0.000000	0.000000	0.000000	38.181268	108.391925	49.154459	0.689404	-0.000000	0.000000	0.000000	-0.000000	-125.849220	-31.786580	63.283220	0.024719	0.824400	0.551329	-1.000000	-1.000000	-1.000000	-1.000000	-1.000000	-1.000000	-1.000000	138.965517	0.000000	-1.000000	-1.000000	544198.000000	1772919118.406293
-2878.560000	20641.095000	-20559.510000	-14875.155000	0.000000	0.000000	0.000000	0.000000	-17.903673	103.895948	-30.568065	-108.165790	-0.000000	0.000000	0.000000	-0.000000	-125.849220	-31.786580	63.283220	0.024719	0.824400	0.551329	-1.000000	-1.000000	-1.000000	-1.000000	-1.000000	-1.000000	-1.000000	138.965517	0.000000	-1.000000	-1.000000	544199.000000	1772919118.406296
-2744.820000	20752.605000	-20574.495000	-14851.665000	0.000000	0.000000	0.000000	0.000000	-55.715509	58.849351	-98.289595	-166.146945	-0.000000	0.000000	0.000000	-0.000000	-125.849220	-31.786580	63.283220	0.024719	0.824400	0.551329	-1.000000	-1.000000	-1.000000	-1.000000	-1.000000	-1.000000	-1.000000	138.965517	0.000000	-1.000000	-1.000000	544200.000000	1772919118.409081
-2763.090000	20841.255000	-20529.990000	-14812.650000	0.000000	0.000000	0.000000	0.000000	-48.248078	10.428250	-129.063405	-132.759116	-0.000000	0.000000	0.000000	-0.000000	-125.849220	-31.786580	63.283220	0.024719	0.824400	0.551329	-1.000000	-1.000000	-1.000000	-1.000000	-1.000000	-1.000000	-1.000000	138.965517	0.000000	-1.000000	-1.000000	544201.000000	1772919118.409084
-2686.815000	20959.200000	-20354.355000	-14658.480000	0.000000	0.000000	0.000000	0.000000	-4.805510	-13.029692	-108.418894	-31.477754	-0.000000	0.000000	0.000000	-0.000000	-125.849220	-31.786580	63.283220	0.024719	0.824400	0.551329	-1.000000	-1.000000	-1.000000	-1.000000	-1.000000	-1.000000	-1.000000	138.965517	0.000000	-1.000000	-1.000000	544202.000000	1772919118.412188
-2628.405000	20991.330000	-20467.530000	-14614.380000	0.000000	0.000000	0.000000	0.000000	41.299940	-11.383737	-44.889610	80.481172	-0.000000	0.000000	0.000000	-0.000000	-125.849220	-31.786580	63.283220	0.024719	0.824400	0.551329	-1.000000	-1.000000	-1.000000	-1.000000	-1.000000	-1.000000	-1.000000	138.965517	0.000000	-1.000000	-1.000000	544203.000000	1772919118.412191
-2687.895000	20885.985000	-20577.465000	-14666.805000	0.000000	0.000000	0.000000	0.000000	61.609835	-7.042317	21.536073	147.245155	-0.000000	0.000000	0.000000	-0.000000	-71.157380	12.665800	-45.947860	0.169433	0.647276	0.500609	-1.000000	-1.000000	-1.000000	-1.000000	-1.000000	-1.000000	-1.000000	138.965517	0.000000	-1.000000	-1.000000	544204.000000	1772919118.417098
-2673.810000	20776.500000	-20581.335000	-14666.805000	0.000000	0.000000	0.000000	0.000000	44.718438	-24.195483	49.253570	137.839521	-0.000000	0.000000	0.000000	-0.000000	-71.157380	12.665800	-45.947860	0.169433	0.647276	0.500609	-1.000000	-1.000000	-1.000000	-1.000000	-1.000000	-1.000000	-1.000000	138.965517	0.000000	-1.000000	-1.000000	544205.000000	1772919118.417101
-2708.865000	20681.145000	-20550.690000	-14692.320000	0.000000	0.000000	0.000000	0.000000	0.468532	-64.477752	36.628654	64.102544	-0.000000	0.000000	0.000000	-0.000000	-71.157380	12.665800	-45.947860	0.169433	0.647276	0.500609	-1.000000	-1.000000	-1.000000	-1.000000	-1.000000	-1.000000	-1.000000	138.965517	0.000000	-1.000000	-1.000000	544206.000000	1772919118.420198
-2848.050000	20501.055000	-20606.715000	-14828.175000	0.000000	0.000000	0.000000	0.000000	-48.348184	-104.202094	12.879034	-31.172039	-0.000000	0.000000	0.000000	-0.000000	-71.157380	12.665800	-45.947860	0.169433	0.647276	0.500609	-1.000000	-1.000000	-1.000000	-1.000000	-1.000000	-1.000000	-1.000000	138.965517	0.000000	-1.000000	-1.000000	544207.000000	1772919118.420201
-2923.335000	20425.545000	-20713.995000	-14908.140000	0.000000	0.000000	0.000000	0.000000	-83.499678	-116.263241	-2.001396	-106.775029	-0.000000	0.000000	0.000000	-0.000000	-71.157380	12.665800	-45.947860	0.169433	0.647276	0.500609	-1.000000	-1.000000	-1.000000	-1.000000	-1.000000	-1.000000	-1.000000	138.965517	0.000000	-1.000000	-1.000000	544208.000000	1772919118.427455
-2849.760000	20427.795000	-20659.320000	-14841.495000	0.000000	0.000000	0.000000	0.000000	-91.382703	-85.700966	-6.871074	-135.796044	-0.000000	0.000000	0.000000	-0.000000	-71.157380	12.665800	-45.947860	0.169433	0.647276	0.500609	-1.000000	-1.000000	-1.000000	-1.000000	-1.000000	-1.000000	-1.000000	138.965517	0.000000	-1.000000	-1.000000	544209.000000	1772919118.427458
-2688.660000	20343.420000	-20526.930000	-14717.790000	0.000000	0.000000	0.000000	0.000000	-58.399558	-16.252862	0.360115	-104.162700	-0.000000	0.000000	0.000000	-0.000000	-71.157380	12.665800	-45.947860	0.169433	0.647276	0.500609	-1.000000	-1.000000	-1.000000	-1.000000	-1.000000	-1.000000	-1.000000	138.965517	0.000000	-1.000000	-1.000000	544210.000000	1772919118.428112
-2587.005000	20354.490000	-20427.165000	-14627.790000	0.000000	0.000000	0.000000	0.000000	13.685193	65.938134	25.173888	-21.115162	-0.000000	0.000000	0.000000	-0.000000	-71.157380	12.665800	-45.947860	0.169433	0.647276	0.500609	-1.000000	-1.000000	-1.000000	-1.000000	-1.000000	-1.000000	-1.000000	138.965517	0.000000	-1.000000	-1.000000	544211.000000	1772919118.428115
-2562.255000	20426.265000	-20321.010000	-14577.030000	0.000000	0.000000	0.000000	0.000000	92.497188	128.638007	58.992233	73.949995	-0.000000	0.000000	0.000000	-0.000000	-71.157380	12.665800	-45.947860	0.169433	0.647276	0.500609	-1.000000	-1.000000	-1.000000	-1.000000	-1.000000	-1.000000	-1.000000	138.965517	0.000000	-1.000000	-1.000000	544212.000000	1772919118.432048
-2682.495000	20458.485000	-20322.090000	-14578.515000	0.000000	0.000000	0.000000	0.000000	129.183736	154.162197	77.807896	131.270308	-0.000000	0.000000	0.000000	-0.000000	-71.157380	12.665800	-45.947860	0.169433	0.647276	0.500609	-1.000000	-1.000000	-1.000000	-1.000000	-1.000000	-1.000000	-1.000000	138.965517	0.000000	-1.000000	-1.000000	544213.000000	1772919118.432051
-2864.655000	20299.770000	-20505.420000	-14710.365000	0.000000	0.000000	0.000000	0.000000	92.762942	135.877459	57.250924	120.538687	-0.000000	0.000000	0.000000	-0.000000	-88.523260	30.352140	-1.464960	0.095703	0.616331	0.528258	-1.000000	-1.000000	-1.000000	-1.000000	-1.000000	-1.000000	-1.000000	138.965517	0.000000	-1.000000	-1.000000	544214.000000	1772919118.436116
-2805.840000	20184.480000	-20607.795000	-14755.725000	0.000000	0.000000	0.000000	0.000000	-0.600740	72.032604	-9.155420	47.340606	-0.000000	0.000000	0.000000	-0.000000	-88.523260	30.352140	-1.464960	0.095703	0.616331	0.528258	-1.000000	-1.000000	-1.000000	-1.000000	-1.000000	-1.000000	-1.000000	138.965517	0.000000	-1.000000	-1.000000	544215.000000	1772919118.436118
-2848.320000	20137.185000	-20670.120000	-14813.640000	0.000000	0.000000	0.000000	0.000000	-91.364260	-19.973696	-94.055612	-48.232129	-0.000000	0.000000	0.000000	-0.000000	-88.523260	30.352140	-1.464960	0.095703	0.616331	0.528258	-1.000000	-1.000000	-1.000000	-1.000000	-1.000000	-1.000000	-1.000000	138.965517	0.000000	-1.000000	-1.000000	544216.000000	1772919118.440115
-2707.740000	20082.420000	-20501.280000	-14752.395000	0.000000	0.000000	0.000000	0.000000	-122.333078	-99.374878	-144.152882	-113.492761	-0.000000	0.000000	0.000000	-0.000000	-88.523260	30.352140	-1.464960	0.095703	0.616331	0.528258	-1.000000	-1.000000	-1.000000	-1.000000	-1.000000	-1.000000	-1.000000	138.965517	0.000000	-1.000000	-1.000000	544217.000000	1772919118.440117
-2645.910000	20016.720000	-20356.830000	-14620.635000	0.000000	0.000000	0.000000	0.000000	-79.450165	-130.037661	-117.125891	-113.376599	-0.000000	0.000000	0.000000	-0.000000	-88.523260	30.352140	-1.464960	0.095703	0.616331	0.528258	-1.000000	-1.000000	-1.000000	-1.000000	-1.000000	-1.000000	-1.000000	138.965517	0.000000	-1.000000	-1.000000	544218.000000	1772919118.444016
-2638.395000	19988.730000	-20331.180000	-14644.620000	0.000000	0.000000	0.000000	0.000000	4.689537	-105.811090	-20.961408	-51.501620	-0.000000	0.000000	0.000000	-0.000000	-88.523260	30.352140	-1.464960	0.095703	0.616331	0.528258	-1.000000	-1.000000	-1.000000	-1.000000	-1.000000	-1.000000	-1.000000	138.965517	0.000000	-1.000000	-1.000000	544219.000000	1772919118.444019
-2584.980000	19943.595000	-20289.060000	-14591.655000	0.000000	0.000000	0.000000	0.000000	76.377932	-47.085939	85.034781	30.291730	-0.000000	0.000000	0.000000	-0.000000	-88.523260	30.352140	-1.464960	0.095703	0.616331	0.528258	-1.000000	-1.000000	-1.000000	-1.000000	-1.000000	-1.000000	-1.000000	138.965517	0.000000	-1.000000	-1.000000	544220.000000	1772919118.448073
-2684.160000	19927.800000	-20484.765000	-14692.770000	0.000000	0.000000	0.000000	0.000000	97.202809	16.460406	134.559136	81.973650	-0.000000	0.000000	0.000000	-0.000000	-88.523260	30.352140	-1.464960	0.095703	0.616331	0.528258	-1.000000	-1.000000	-1.000000	-1.000000	-1.000000	-1.000000	-1.000000	138.965517	0.000000	-1.000000	-1.000000	544221.000000	1772919118.448076
-2709.270000	20017.305000	-20509.470000	-14753.880000	0.000000	0.000000	0.000000	0.000000	61.998086	62.985104	100.190751	78.014151	-0.000000	0.000000	0.000000	-0.000000	-88.523260	30.352140	-1.464960	0.095703	0.616331	0.528258	-1.000000	-1.000000	-1.000000	-1.000000	-1.000000	-1.000000	-1.000000	138.965517	0.000000	-1.000000	-1.000000	544222.000000	1772919118.452066
-2787.570000	20055.510000	-20578.545000	-14873.985000	0.000000	0.000000	0.000000	0.000000	-4.924269	86.206850	10.251729	27.202824	-0.000000	0.000000	0.000000	-0.000000	-88.523260	30.352140	-1.464960	0.095703	0.616331	0.528258	-1.000000	-1.000000	-1.000000	-1.000000	-1.000000	-1.000000	-1.000000	138.965517	0.000000	-1.000000	-1.000000	544223.000000	1772919118.452069
-2937.330000	19960.695000	-20558.700000	-14936.715000	0.000000	0.000000	0.000000	0.000000	-67.908308	84.685805	-74.012029	-37.273367	-0.000000	0.000000	0.000000	-0.000000	-85.639120	34.304480	17.610040	-0.021179	0.696898	0.584593	-1.000000	-1.000000	-1.000000	-1.000000	-1.000000	-1.000000	-1.000000	138.965517	0.000000	-1.000000	-1.000000	544224.000000	1772919118.456201
-2868.480000	19878.705000	-20336.265000	-14822.415000	0.000000	0.000000	0.000000	0.000000	-99.187580	53.300392	-100.587117	-75.801647	-0.000000	0.000000	0.000000	-0.000000	-85.639120	34.304480	17.610040	-0.021179	0.696898	0.584593	-1.000000	-1.000000	-1.000000	-1.000000	-1.000000	-1.000000	-1.000000	138.965517	0.000000	-1.000000	-1.000000	544225.000000	1772919118.456203
-2637.045000	19751.175000	-20104.830000	-14542.920000	0.000000	0.000000	0.000000	0.000000	-79.577082	-4.462873	-51.898747	-57.855632	-0.000000	0.000000	0.000000	-0.000000	-85.639120	34.304480	17.610040	-0.021179	0.696898	0.584593	-1.000000	-1.000000	-1.000000	-1.000000	-1.000000	-1.000000	-1.000000	138.965517	0.000000	-1.000000	-1.000000	544226.000000	1772919118.460135
-2672.460000	19773.315000	-20396.880000	-14534.775000	0.000000	0.000000	0.000000	0.000000	-8.711482	-65.157242	37.115106	15.213040	-0.000000	0.000000	0.000000	-0.000000	-85.639120	34.304480	17.610040	-0.021179	0.696898	0.584593	-1.000000	-1.000000	-1.000000	-1.000000	-1.000000	-1.000000	-1.000000	138.965517	0.000000	-1.000000	-1.000000	544227.000000	1772919118.460138
-2563.695000	19768.770000	-20363.265000	-14474.565000	0.000000	0.000000	0.000000	0.000000	75.968091	-95.453409	91.719292	95.828673	-0.000000	0.000000	0.000000	-0.000000	-85.639120	34.304480	17.610040	-0.021179	0.696898	0.584593	-1.000000	-1.000000	-1.000000	-1.000000	-1.000000	-1.000000	-1.000000	138.965517	0.000000	-1.000000	-1.000000	544228.000000	1772919118.464073
-2412.810000	19759.860000	-20211.705000	-14446.620000	0.000000	0.000000	0.000000	0.000000	125.861331	-77.937854	73.131875	125.535715	-0.000000	0.000000	0.000000	-0.000000	-85.639120	34.304480	17.610040	-0.021179	0.696898	0.584593	-1.000000	-1.000000	-1.000000	-1.000000	-1.000000	-1.000000	-1.000000	138.965517	0.000000	-1.000000	-1.000000	544229.000000	1772919118.464077
-2660.895000	19790.910000	-20395.800000	-14735.115000	0.000000	0.000000	0.000000	0.000000	116.766357	-25.451766	12.391723	80.296199	-0.000000	0.000000	0.000000	-0.000000	-85.639120	34.304480	17.610040	-0.021179	0.696898	0.584593	-1.000000	-1.000000	-1.000000	-1.000000	-1.000000	-1.000000	-1.000000	138.965517	0.000000	-1.000000	-1.000000	544230.000000	1772919118.468134
