Channel1	Channel2	Channel3	Channel4	Channel5	Channel6	Channel7	Channel8	FilteredChannel1	FilteredChannel2	FilteredChannel3	FilteredChannel4	FilteredChannel5	FilteredChannel6	FilteredChannel7	FilteredChannel8	GyroX	GyroY	GyroZ	AccX	AccY	AccZ	PPG1	PPG2	rawPPG1	rawPPG2	rawPPG3	Hr	Hrv	Battery	Trigger	PhysicalTrigger	AutoTrigger	NumMeasurements	Timestamp
-2218.680000	23097.555000	-20203.965000	-14557.680000	0.000000	0.000000	0.000000	0.000000	93.912239	-26.986167	138.388013	149.218357	-0.000000	0.000000	0.000000	-0.000000	2.136400	-0.183120	-1.007160	-0.034302	0.799497	0.600401	-1.000000	-1.000000	-1.000000	-1.000000	-1.000000	-1.000000	-1.000000	139.103448	0.000000	-1.000000	-1.000000	557790.000000	1772919145.666086
-2277.630000	23140.080000	-20295.720000	-14654.880000	0.000000	0.000000	0.000000	0.000000	65.326302	-8.872321	93.789469	105.325897	-0.000000	0.000000	0.000000	-0.000000	2.136400	-0.183120	-1.007160	-0.034302	0.799497	0.600401	-1.000000	-1.000000	-1.000000	-1.000000	-1.000000	-1.000000	-1.000000	139.103448	0.000000	-1.000000	-1.000000	557791.000000	1772919145.666089
-2377.890000	23210.505000	-20444.715000	-14816.790000	0.000000	0.000000	0.000000	0.000000	3.476509	0.821477	0.191460	6.276109	-0.000000	0.000000	0.000000	-0.000000	2.136400	-0.183120	-1.007160	-0.034302	0.799497	0.600401	-1.000000	-1.000000	-1.000000	-1.000000	-1.000000	-1.000000	-1.000000	139.103448	0.000000	-1.000000	-1.000000	557792.000000	1772919145.670048
-2379.915000	23238.810000	-20442.465000	-14820.300000	0.000000	0.000000	0.000000	0.000000	-58.606399	-1.631649	-92.245495	-94.912459	-0.000000	0.000000	0.000000	-0.000000	2.136400	-0.183120	-1.007160	-0.034302	0.799497	0.600401	-1.000000	-1.000000	-1.000000	-1.000000	-1.000000	-1.000000	-1.000000	139.103448	0.000000	-1.000000	-1.000000	557793.000000	1772919145.670051
-2342.655000	23265.315000	-20381.310000	-14755.455000	0.000000	0.000000	0.000000	0.000000	-87.948831	-11.724017	-133.799286	-143.726154	-0.000000	0.000000	0.000000	-0.000000	2.136400	-0.183120	-1.007160	-0.034302	0.799497	0.600401	-1.000000	-1.000000	-1.000000	-1.000000	-1.000000	-1.000000	-1.000000	139.103448	0.000000	-1.000000	-1.000000	557794.000000	1772919145.674176
-2280.555000	23238.585000	-20292.750000	-14662.755000	0.000000	0.000000	0.000000	0.000000	-68.455753	-23.199399	-101.171823	-112.784027	-0.000000	0.000000	0.000000	-0.000000	2.136400	-0.183120	-1.007160	-0.034302	0.799497	0.600401	-1.000000	-1.000000	-1.000000	-1.000000	-1.000000	-1.000000	-1.000000	139.103448	0.000000	-1.000000	-1.000000	557795.000000	1772919145.674179
-2185.020000	23230.890000	-20150.685000	-14509.305000	0.000000	0.000000	0.000000	0.000000	-10.958677	-31.589192	-12.499252	-19.403836	-0.000000	0.000000	0.000000	-0.000000	1.663340	1.464960	-0.701960	-0.032593	0.796751	0.602110	-1.000000	-1.000000	-1.000000	-1.000000	-1.000000	-1.000000	-1.000000	139.103448	0.000000	-1.000000	-1.000000	557796.000000	1772919145.678825
-2170.575000	23284.080000	-20131.920000	-14477.580000	0.000000	0.000000	0.000000	0.000000	53.119827	-32.091792	83.743619	85.259206	-0.000000	0.000000	0.000000	-0.000000	1.663340	1.464960	-0.701960	-0.032593	0.796751	0.602110	-1.000000	-1.000000	-1.000000	-1.000000	-1.000000	-1.000000	-1.000000	139.103448	0.000000	-1.000000	-1.000000	557797.000000	1772919145.678828
-2218.320000	23370.075000	-20202.030000	-14553.990000	0.000000	0.000000	0.000000	0.000000	88.108919	-18.255071	134.465871	143.577029	-0.000000	0.000000	0.000000	-0.000000	1.663340	1.464960	-0.701960	-0.032593	0.796751	0.602110	-1.000000	-1.000000	-1.000000	-1.000000	-1.000000	-1.000000	-1.000000	139.103448	0.000000	-1.000000	-1.000000	557798.000000	1772919145.681835
-2278.215000	23456.160000	-20288.070000	-14643.720000	0.000000	0.000000	0.000000	0.000000	73.326222	11.270687	110.283223	121.834221	-0.000000	0.000000	0.000000	-0.000000	1.663340	1.464960	-0.701960	-0.032593	0.796751	0.602110	-1.000000	-1.000000	-1.000000	-1.000000	-1.000000	-1.000000	-1.000000	139.103448	0.000000	-1.000000	-1.000000	557799.000000	1772919145.681838
-2360.790000	23435.235000	-20418.705000	-14782.365000	0.000000	0.000000	0.000000	0.000000	16.743783	44.249937	24.436570	31.811120	-0.000000	0.000000	0.000000	-0.000000	1.663340	1.464960	-0.701960	-0.032593	0.796751	0.602110	-1.000000	-1.000000	-1.000000	-1.000000	-1.000000	-1.000000	-1.000000	139.103448	0.000000	-1.000000	-1.000000	557800.000000	1772919145.686057
-2377.530000	23340.780000	-20449.215000	-14825.655000	0.000000	0.000000	0.000000	0.000000	-49.585269	57.538862	-75.194254	-76.139383	-0.000000	0.000000	0.000000	-0.000000	1.663340	1.464960	-0.701960	-0.032593	0.796751	0.602110	-1.000000	-1.000000	-1.000000	-1.000000	-1.000000	-1.000000	-1.000000	139.103448	0.000000	-1.000000	-1.000000	557801.000000	1772919145.686060
-2346.660000	23353.380000	-20396.790000	-14770.485000	0.000000	0.000000	0.000000	0.000000	-88.471641	36.934201	-133.541154	-142.346950	-0.000000	0.000000	0.000000	-0.000000	1.663340	1.464960	-0.701960	-0.032593	0.796751	0.602110	-1.000000	-1.000000	-1.000000	-1.000000	-1.000000	-1.000000	-1.000000	139.103448	0.000000	-1.000000	-1.000000	557802.000000	1772919145.691064
-2296.890000	23331.420000	-20322.630000	-14694.795000	0.000000	0.000000	0.000000	0.000000	-78.715251	-4.691474	-118.617574	-130.561920	-0.000000	0.000000	0.000000	-0.000000	1.663340	1.464960	-0.701960	-0.032593	0.796751	0.602110	-1.000000	-1.000000	-1.000000	-1.000000	-1.000000	-1.000000	-1.000000	139.103448	0.000000	-1.000000	-1.000000	557803.000000	1772919145.691066
-2215.215000	23359.680000	-20195.820000	-14561.865000	0.000000	0.000000	0.000000	0.000000	-26.924554	-38.183988	-39.931738	-48.661963	-0.000000	0.000000	0.000000	-0.000000	1.663340	1.464960	-0.701960	-0.032593	0.796751	0.602110	-1.000000	-1.000000	-1.000000	-1.000000	-1.000000	-1.000000	-1.000000	139.103448	0.000000	-1.000000	-1.000000	557804.000000	1772919145.694087
-2176.290000	23444.595000	-20133.225000	-14484.690000	0.000000	0.000000	0.000000	0.000000	38.105597	-42.432109	59.001492	58.000026	-0.000000	0.000000	0.000000	-0.000000	1.663340	1.464960	-0.701960	-0.032593	0.796751	0.602110	-1.000000	-1.000000	-1.000000	-1.000000	-1.000000	-1.000000	-1.000000	139.103448	0.000000	-1.000000	-1.000000	557805.000000	1772919145.694090
-2210.670000	23492.970000	-20186.730000	-14537.340000	0.000000	0.000000	0.000000	0.000000	81.493114	-15.858413	125.050087	132.369220	-0.000000	0.000000	0.000000	-0.000000	2.777320	0.396760	-0.900340	-0.033447	0.793943	0.602538	-1.000000	-1.000000	-1.000000	-1.000000	-1.000000	-1.000000	-1.000000	139.103448	0.000000	-1.000000	-1.000000	557806.000000	1772919145.729552
-2253.240000	23518.575000	-20252.700000	-14607.720000	0.000000	0.000000	0.000000	0.000000	79.948088	23.654469	122.417167	134.379050	-0.000000	0.000000	0.000000	-0.000000	2.777320	0.396760	-0.900340	-0.033447	0.793943	0.602538	-1.000000	-1.000000	-1.000000	-1.000000	-1.000000	-1.000000	-1.000000	139.103448	0.000000	-1.000000	-1.000000	557807.000000	1772919145.729556
-2322.765000	23478.660000	-20366.235000	-14726.025000	0.000000	0.000000	0.000000	0.000000	35.251923	49.276153	53.403831	63.764159	-0.000000	0.000000	0.000000	-0.000000	2.777320	0.396760	-0.900340	-0.033447	0.793943	0.602538	-1.000000	-1.000000	-1.000000	-1.000000	-1.000000	-1.000000	-1.000000	139.103448	0.000000	-1.000000	-1.000000	557808.000000	1772919145.729561
-2381.040000	23433.930000	-20456.910000	-14829.705000	0.000000	0.000000	0.000000	0.000000	-27.382685	43.111303	-43.556590	-40.165487	-0.000000	0.000000	0.000000	-0.000000	2.777320	0.396760	-0.900340	-0.033447	0.793943	0.602538	-1.000000	-1.000000	-1.000000	-1.000000	-1.000000	-1.000000	-1.000000	139.103448	0.000000	-1.000000	-1.000000	557809.000000	1772919145.729563
-2342.295000	23361.930000	-20401.560000	-14777.955000	0.000000	0.000000	0.000000	0.000000	-74.172813	7.821661	-116.241182	-121.478730	-0.000000	0.000000	0.000000	-0.000000	2.777320	0.396760	-0.900340	-0.033447	0.793943	0.602538	-1.000000	-1.000000	-1.000000	-1.000000	-1.000000	-1.000000	-1.000000	139.103448	0.000000	-1.000000	-1.000000	557810.000000	1772919145.729566
-2311.155000	23384.790000	-20347.335000	-14719.590000	0.000000	0.000000	0.000000	0.000000	-79.900125	-35.047176	-125.079229	-136.071329	-0.000000	0.000000	0.000000	-0.000000	2.777320	0.396760	-0.900340	-0.033447	0.793943	0.602538	-1.000000	-1.000000	-1.000000	-1.000000	-1.000000	-1.000000	-1.000000	139.103448	0.000000	-1.000000	-1.000000	557811.000000	1772919145.729568
-2249.010000	23436.045000	-20249.505000	-14616.900000	0.000000	0.000000	0.000000	0.000000	-42.334583	-57.435569	-65.982987	-76.768309	-0.000000	0.000000	0.000000	-0.000000	2.777320	0.396760	-0.900340	-0.033447	0.793943	0.602538	-1.000000	-1.000000	-1.000000	-1.000000	-1.000000	-1.000000	-1.000000	139.103448	0.000000	-1.000000	-1.000000	557812.000000	1772919145.729572
-2189.115000	23550.120000	-20147.715000	-14501.745000	0.000000	0.000000	0.000000	0.000000	16.698698	-42.274842	27.319816	22.514539	-0.000000	0.000000	0.000000	-0.000000	2.777320	0.396760	-0.900340	-0.033447	0.793943	0.602538	-1.000000	-1.000000	-1.000000	-1.000000	-1.000000	-1.000000	-1.000000	139.103448	0.000000	-1.000000	-1.000000	557813.000000	1772919145.729574
-2223.945000	23716.035000	-20190.105000	-14541.345000	0.000000	0.000000	0.000000	0.000000	64.980134	5.702009	104.328271	107.971995	-0.000000	0.000000	0.000000	-0.000000	2.777320	0.396760	-0.900340	-0.033447	0.793943	0.602538	-1.000000	-1.000000	-1.000000	-1.000000	-1.000000	-1.000000	-1.000000	139.103448	0.000000	-1.000000	-1.000000	557814.000000	1772919145.729578
-2249.145000	23703.930000	-20241.990000	-14597.775000	0.000000	0.000000	0.000000	0.000000	76.618897	60.751393	123.690474	133.575976	-0.000000	0.000000	0.000000	-0.000000	2.777320	0.396760	-0.900340	-0.033447	0.793943	0.602538	-1.000000	-1.000000	-1.000000	-1.000000	-1.000000	-1.000000	-1.000000	139.103448	0.000000	-1.000000	-1.000000	557815.000000	1772919145.729580
-2303.865000	23657.355000	-20330.820000	-14689.665000	0.000000	0.000000	0.000000	0.000000	46.588436	85.946478	75.863680	86.301647	-0.000000	0.000000	0.000000	-0.000000	5.905620	-0.442540	-0.869820	-0.035034	0.794981	0.603392	-1.000000	-1.000000	-1.000000	-1.000000	-1.000000	-1.000000	-1.000000	139.103448	0.000000	-1.000000	-1.000000	557816.000000	1772919145.729584
-2412.315000	23750.955000	-20481.885000	-14853.915000	0.000000	0.000000	0.000000	0.000000	-7.661686	60.696018	-12.080913	-6.878804	-0.000000	0.000000	0.000000	-0.000000	5.905620	-0.442540	-0.869820	-0.035034	0.794981	0.603392	-1.000000	-1.000000	-1.000000	-1.000000	-1.000000	-1.000000	-1.000000	139.103448	0.000000	-1.000000	-1.000000	557817.000000	1772919145.729586
-2415.015000	23824.530000	-20476.035000	-14855.625000	0.000000	0.000000	0.000000	0.000000	-58.487629	4.091768	-94.168668	-96.978934	-0.000000	0.000000	0.000000	-0.000000	5.905620	-0.442540	-0.869820	-0.035034	0.794981	0.603392	-1.000000	-1.000000	-1.000000	-1.000000	-1.000000	-1.000000	-1.000000	139.103448	0.000000	-1.000000	-1.000000	557818.000000	1772919145.729589
-2369.295000	23823.855000	-20408.580000	-14785.290000	0.000000	0.000000	0.000000	0.000000	-79.228265	-45.605764	-126.527513	-135.808046	-0.000000	0.000000	0.000000	-0.000000	5.905620	-0.442540	-0.869820	-0.035034	0.794981	0.603392	-1.000000	-1.000000	-1.000000	-1.000000	-1.000000	-1.000000	-1.000000	139.103448	0.000000	-1.000000	-1.000000	557819.000000	1772919145.729591
-2310.210000	23801.085000	-20320.515000	-14691.645000	0.000000	0.000000	0.000000	0.000000	-56.264388	-68.433669	-89.239847	-99.816990	-0.000000	0.000000	0.000000	-0.000000	5.905620	-0.442540	-0.869820	-0.035034	0.794981	0.603392	-1.000000	-1.000000	-1.000000	-1.000000	-1.000000	-1.000000	-1.000000	139.103448	0.000000	-1.000000	-1.000000	557820.000000	1772919145.729595
-2213.370000	23809.770000	-20177.910000	-14537.970000	0.000000	0.000000	0.000000	0.000000	0.097357	-67.639766	-1.047204	-6.907723	-0.000000	0.000000	0.000000	-0.000000	5.905620	-0.442540	-0.869820	-0.035034	0.794981	0.603392	-1.000000	-1.000000	-1.000000	-1.000000	-1.000000	-1.000000	-1.000000	139.103448	0.000000	-1.000000	-1.000000	557821.000000	1772919145.729597
-2209.905000	23895.630000	-20172.420000	-14523.750000	0.000000	0.000000	0.000000	0.000000	59.892765	-50.678513	90.662985	92.970152	-0.000000	0.000000	0.000000	-0.000000	5.905620	-0.442540	-0.869820	-0.035034	0.794981	0.603392	-1.000000	-1.000000	-1.000000	-1.000000	-1.000000	-1.000000	-1.000000	139.103448	0.000000	-1.000000	-1.000000	557822.000000	1772919145.730458
-2251.755000	23960.430000	-20233.935000	-14592.330000	0.000000	0.000000	0.000000	0.000000	89.347805	-20.424697	135.028014	144.359703	-0.000000	0.000000	0.000000	-0.000000	5.905620	-0.442540	-0.869820	-0.035034	0.794981	0.603392	-1.000000	-1.000000	-1.000000	-1.000000	-1.000000	-1.000000	-1.000000	139.103448	0.000000	-1.000000	-1.000000	557823.000000	1772919145.730460
-2297.790000	23962.320000	-20307.690000	-14668.650000	0.000000	0.000000	0.000000	0.000000	70.394328	15.950714	106.001172	117.071700	-0.000000	0.000000	0.000000	-0.000000	5.905620	-0.442540	-0.869820	-0.035034	0.794981	0.603392	-1.000000	-1.000000	-1.000000	-1.000000	-1.000000	-1.000000	-1.000000	139.103448	0.000000	-1.000000	-1.000000	557824.000000	1772919145.734344
-2370.420000	23848.065000	-20430.765000	-14798.295000	0.000000	0.000000	0.000000	0.000000	13.299161	40.048126	19.583221	26.202876	-0.000000	0.000000	0.000000	-0.000000	5.905620	-0.442540	-0.869820	-0.035034	0.794981	0.603392	-1.000000	-1.000000	-1.000000	-1.000000	-1.000000	-1.000000	-1.000000	139.103448	0.000000	-1.000000	-1.000000	557825.000000	1772919145.734347
-2366.820000	23647.995000	-20438.730000	-14818.995000	0.000000	0.000000	0.000000	0.000000	-49.938503	31.916227	-76.495593	-77.757248	-0.000000	0.000000	0.000000	-0.000000	5.188400	-0.366240	-1.541260	-0.034241	0.793699	0.602843	-1.000000	-1.000000	-1.000000	-1.000000	-1.000000	-1.000000	-1.000000	139.103448	0.000000	-1.000000	-1.000000	557826.000000	1772919145.738223
-2339.190000	23653.125000	-20387.565000	-14765.535000	0.000000	0.000000	0.000000	0.000000	-84.772884	-7.712005	-129.969741	-138.315587	-0.000000	0.000000	0.000000	-0.000000	5.188400	-0.366240	-1.541260	-0.034241	0.793699	0.602843	-1.000000	-1.000000	-1.000000	-1.000000	-1.000000	-1.000000	-1.000000	139.103448	0.000000	-1.000000	-1.000000	557827.000000	1772919145.738225
-2296.890000	23666.805000	-20319.345000	-14693.310000	0.000000	0.000000	0.000000	0.000000	-73.740498	-46.680301	-112.703057	-123.666852	-0.000000	0.000000	0.000000	-0.000000	5.188400	-0.366240	-1.541260	-0.034241	0.793699	0.602843	-1.000000	-1.000000	-1.000000	-1.000000	-1.000000	-1.000000	-1.000000	139.103448	0.000000	-1.000000	-1.000000	557828.000000	1772919145.747324
-2215.440000	23688.945000	-20191.230000	-14557.275000	0.000000	0.000000	0.000000	0.000000	-25.488037	-48.065616	-36.612119	-44.301578	-0.000000	0.000000	0.000000	-0.000000	5.188400	-0.366240	-1.541260	-0.034241	0.793699	0.602843	-1.000000	-1.000000	-1.000000	-1.000000	-1.000000	-1.000000	-1.000000	139.103448	0.000000	-1.000000	-1.000000	557829.000000	1772919145.747327
-2184.390000	23784.255000	-20142.270000	-14494.995000	0.000000	0.000000	0.000000	0.000000	33.040017	-5.360552	56.042389	55.789082	-0.000000	0.000000	0.000000	-0.000000	5.188400	-0.366240	-1.541260	-0.034241	0.793699	0.602843	-1.000000	-1.000000	-1.000000	-1.000000	-1.000000	-1.000000	-1.000000	139.103448	0.000000	-1.000000	-1.000000	557830.000000	1772919145.750162
-2221.920000	23831.010000	-20198.025000	-14551.920000	0.000000	0.000000	0.000000	0.000000	71.018256	56.583074	115.790423	123.224216	-0.000000	0.000000	0.000000	-0.000000	5.188400	-0.366240	-1.541260	-0.034241	0.793699	0.602843	-1.000000	-1.000000	-1.000000	-1.000000	-1.000000	-1.000000	-1.000000	139.103448	0.000000	-1.000000	-1.000000	557831.000000	1772919145.750164
-2266.740000	23865.030000	-20269.080000	-14628.465000	0.000000	0.000000	0.000000	0.000000	68.210934	102.101715	110.268541	121.400977	-0.000000	0.000000	0.000000	-0.000000	5.188400	-0.366240	-1.541260	-0.034241	0.793699	0.602843	-1.000000	-1.000000	-1.000000	-1.000000	-1.000000	-1.000000	-1.000000	139.103448	0.000000	-1.000000	-1.000000	557832.000000	1772919145.753142
-2349.900000	23868.585000	-20398.500000	-14762.115000	0.000000	0.000000	0.000000	0.000000	26.784698	105.206663	43.100414	51.763989	-0.000000	0.000000	0.000000	-0.000000	5.188400	-0.366240	-1.541260	-0.034241	0.793699	0.602843	-1.000000	-1.000000	-1.000000	-1.000000	-1.000000	-1.000000	-1.000000	139.103448	0.000000	-1.000000	-1.000000	557833.000000	1772919145.753145
-2420.370000	23922.675000	-20493.405000	-14870.475000	0.000000	0.000000	0.000000	0.000000	-30.325851	64.444995	-48.714405	-47.253240	-0.000000	0.000000	0.000000	-0.000000	5.188400	-0.366240	-1.541260	-0.034241	0.793699	0.602843	-1.000000	-1.000000	-1.000000	-1.000000	-1.000000	-1.000000	-1.000000	139.103448	0.000000	-1.000000	-1.000000	557834.000000	1772919145.760853
-2393.280000	23958.990000	-20445.885000	-14824.755000	0.000000	0.000000	0.000000	0.000000	-72.289308	2.604689	-115.411333	-121.953590	-0.000000	0.000000	0.000000	-0.000000	5.188400	-0.366240	-1.541260	-0.034241	0.793699	0.602843	-1.000000	-1.000000	-1.000000	-1.000000	-1.000000	-1.000000	-1.000000	139.103448	0.000000	-1.000000	-1.000000	557835.000000	1772919145.760855
-2348.775000	23968.395000	-20377.215000	-14753.205000	0.000000	0.000000	0.000000	0.000000	-74.883666	-51.002040	-118.865925	-129.980247	-0.000000	0.000000	0.000000	-0.000000	4.639040	-0.091560	-1.373400	-0.033691	0.794676	0.601500	-1.000000	-1.000000	-1.000000	-1.000000	-1.000000	-1.000000	-1.000000	139.103448	0.000000	-1.000000	-1.000000	557836.000000	1772919145.760859
-2271.915000	23969.655000	-20262.240000	-14633.730000	0.000000	0.000000	0.000000	0.000000	-34.504670	-79.331128	-55.103967	-64.915145	-0.000000	0.000000	0.000000	-0.000000	4.639040	-0.091560	-1.373400	-0.033691	0.794676	0.601500	-1.000000	-1.000000	-1.000000	-1.000000	-1.000000	-1.000000	-1.000000	139.103448	0.000000	-1.000000	-1.000000	557837.000000	1772919145.760861
-2191.725000	23969.250000	-20148.165000	-14502.645000	0.000000	0.000000	0.000000	0.000000	28.233672	-81.076628	41.957230	38.661460	-0.000000	0.000000	0.000000	-0.000000	4.639040	-0.091560	-1.373400	-0.033691	0.794676	0.601500	-1.000000	-1.000000	-1.000000	-1.000000	-1.000000	-1.000000	-1.000000	139.103448	0.000000	-1.000000	-1.000000	557838.000000	1772919145.763749
-2191.860000	23856.255000	-20167.380000	-14513.940000	0.000000	0.000000	0.000000	0.000000	80.224653	-65.447777	120.413052	125.676502	-0.000000	0.000000	0.000000	-0.000000	4.639040	-0.091560	-1.373400	-0.033691	0.794676	0.601500	-1.000000	-1.000000	-1.000000	-1.000000	-1.000000	-1.000000	-1.000000	139.103448	0.000000	-1.000000	-1.000000	557839.000000	1772919145.763751
-2219.805000	23768.910000	-20220.795000	-14573.520000	0.000000	0.000000	0.000000	0.000000	93.009471	-46.518867	137.220996	148.712320	-0.000000	0.000000	0.000000	-0.000000	4.639040	-0.091560	-1.373400	-0.033691	0.794676	0.601500	-1.000000	-1.000000	-1.000000	-1.000000	-1.000000	-1.000000	-1.000000	139.103448	0.000000	-1.000000	-1.000000	557840.000000	1772919145.766206
-2281.140000	23701.815000	-20318.940000	-14674.410000	0.000000	0.000000	0.000000	0.000000	58.284169	-32.470624	81.918852	93.618692	-0.000000	0.000000	0.000000	-0.000000	4.639040	-0.091560	-1.373400	-0.033691	0.794676	0.601500	-1.000000	-1.000000	-1.000000	-1.000000	-1.000000	-1.000000	-1.000000	138.827586	0.000000	-1.000000	-1.000000	557841.000000	1772919145.766209
-2368.260000	23671.620000	-20446.650000	-14816.520000	0.000000	0.000000	0.000000	0.000000	-7.098343	-18.802340	-16.931995	-11.468069	-0.000000	0.000000	0.000000	-0.000000	4.639040	-0.091560	-1.373400	-0.033691	0.794676	0.601500	-1.000000	-1.000000	-1.000000	-1.000000	-1.000000	-1.000000	-1.000000	138.827586	0.000000	-1.000000	-1.000000	557842.000000	1772919145.770292
-2370.915000	23731.020000	-20435.400000	-14813.550000	0.000000	0.000000	0.000000	0.000000	-70.587455	4.545755	-108.362183	-112.333964	-0.000000	0.000000	0.000000	-0.000000	4.639040	-0.091560	-1.373400	-0.033691	0.794676	0.601500	-1.000000	-1.000000	-1.000000	-1.000000	-1.000000	-1.000000	-1.000000	138.827586	0.000000	-1.000000	-1.000000	557843.000000	1772919145.770295
-2325.645000	23721.435000	-20364.480000	-14740.830000	0.000000	0.000000	0.000000	0.000000	-99.319905	40.247059	-143.952713	-155.580649	-0.000000	0.000000	0.000000	-0.000000	4.639040	-0.091560	-1.373400	-0.033691	0.794676	0.601500	-1.000000	-1.000000	-1.000000	-1.000000	-1.000000	-1.000000	-1.000000	138.827586	0.000000	-1.000000	-1.000000	557844.000000	1772919145.774270
-2249.595000	23591.340000	-20259.900000	-14628.015000	0.000000	0.000000	0.000000	0.000000	-77.046509	73.299128	-103.533403	-116.777228	-0.000000	0.000000	0.000000	-0.000000	4.639040	-0.091560	-1.373400	-0.033691	0.794676	0.601500	-1.000000	-1.000000	-1.000000	-1.000000	-1.000000	-1.000000	-1.000000	138.827586	0.000000	-1.000000	-1.000000	557845.000000	1772919145.774273
-2146.320000	23489.010000	-20113.245000	-14468.670000	0.000000	0.000000	0.000000	0.000000	-14.697603	78.284934	-8.475492	-16.170872	-0.000000	0.000000	0.000000	-0.000000	4.272800	0.289940	-0.671440	-0.033813	0.796751	0.600951	-1.000000	-1.000000	-1.000000	-1.000000	-1.000000	-1.000000	-1.000000	138.827586	0.000000	-1.000000	-1.000000	557846.000000	1772919145.779427
-2141.145000	23492.835000	-20109.915000	-14460.615000	0.000000	0.000000	0.000000	0.000000	54.733567	47.619089	90.302685	92.347731	-0.000000	0.000000	0.000000	-0.000000	4.272800	0.289940	-0.671440	-0.033813	0.796751	0.600951	-1.000000	-1.000000	-1.000000	-1.000000	-1.000000	-1.000000	-1.000000	138.827586	0.000000	-1.000000	-1.000000	557847.000000	1772919145.779429
-2166.795000	23433.435000	-20161.305000	-14514.435000	0.000000	0.000000	0.000000	0.000000	93.185339	3.267797	138.936258	149.394491	-0.000000	0.000000	0.000000	-0.000000	4.272800	0.289940	-0.671440	-0.033813	0.796751	0.600951	-1.000000	-1.000000	-1.000000	-1.000000	-1.000000	-1.000000	-1.000000	138.827586	0.000000	-1.000000	-1.000000	557848.000000	1772919145.782283
-2228.310000	23424.795000	-20251.395000	-14607.630000	0.000000	0.000000	0.000000	0.000000	79.384185	-26.769349	110.462870	123.328780	-0.000000	0.000000	0.000000	-0.000000	4.272800	0.289940	-0.671440	-0.033813	0.796751	0.600951	-1.000000	-1.000000	-1.000000	-1.000000	-1.000000	-1.000000	-1.000000	138.827586	0.000000	-1.000000	-1.000000	557849.000000	1772919145.782286
-2315.340000	23360.895000	-20386.620000	-14753.205000	0.000000	0.000000	0.000000	0.000000	21.964728	-31.956516	21.463157	29.795545	-0.000000	0.000000	0.000000	-0.000000	4.272800	0.289940	-0.671440	-0.033813	0.796751	0.600951	-1.000000	-1.000000	-1.000000	-1.000000	-1.000000	-1.000000	-1.000000	138.827586	0.000000	-1.000000	-1.000000	557850.000000	1772919145.791407
-2316.465000	23220.270000	-20393.055000	-14769.720000	0.000000	0.000000	0.000000	0.000000	-46.533923	-21.697032	-78.670123	-78.976017	-0.000000	0.000000	0.000000	-0.000000	4.272800	0.289940	-0.671440	-0.033813	0.796751	0.600951	-1.000000	-1.000000	-1.000000	-1.000000	-1.000000	-1.000000	-1.000000	138.827586	0.000000	-1.000000	-1.000000	557851.000000	1772919145.791409
-2292.390000	23251.545000	-20344.320000	-14718.960000	0.000000	0.000000	0.000000	0.000000	-87.831336	-11.286094	-134.639874	-143.022418	-0.000000	0.000000	0.000000	-0.000000	4.272800	0.289940	-0.671440	-0.033813	0.796751	0.600951	-1.000000	-1.000000	-1.000000	-1.000000	-1.000000	-1.000000	-1.000000	138.827586	0.000000	-1.000000	-1.000000	557852.000000	1772919145.796083
-2254.320000	23310.405000	-20279.430000	-14650.110000	0.000000	0.000000	0.000000	0.000000	-79.999112	-2.190270	-116.152680	-127.770132	-0.000000	0.000000	0.000000	-0.000000	4.272800	0.289940	-0.671440	-0.033813	0.796751	0.600951	-1.000000	-1.000000	-1.000000	-1.000000	-1.000000	-1.000000	-1.000000	138.827586	0.000000	-1.000000	-1.000000	557853.000000	1772919145.796085
-2153.205000	23268.780000	-20132.370000	-14493.510000	0.000000	0.000000	0.000000	0.000000	-29.664538	13.195173	-35.547493	-43.930930	-0.000000	0.000000	0.000000	-0.000000	4.272800	0.289940	-0.671440	-0.033813	0.796751	0.600951	-1.000000	-1.000000	-1.000000	-1.000000	-1.000000	-1.000000	-1.000000	138.827586	0.000000	-1.000000	-1.000000	557854.000000	1772919145.796089
-2103.390000	23194.710000	-20071.935000	-14419.620000	0.000000	0.000000	0.000000	0.000000	35.573643	29.057382	63.153449	62.578205	-0.000000	0.000000	0.000000	-0.000000	4.272800	0.289940	-0.671440	-0.033813	0.796751	0.600951	-1.000000	-1.000000	-1.000000	-1.000000	-1.000000	-1.000000	-1.000000	138.827586	0.000000	-1.000000	-1.000000	557855.000000	1772919145.796092
-2130.705000	23138.640000	-20119.410000	-14470.605000	0.000000	0.000000	0.000000	0.000000	81.863890	29.219266	128.037311	135.573026	-0.000000	0.000000	0.000000	-0.000000	3.280900	0.564620	-1.052940	-0.032288	0.797117	0.600462	-1.000000	-1.000000	-1.000000	-1.000000	-1.000000	-1.000000	-1.000000	138.827586	0.000000	-1.000000	-1.000000	557856.000000	1772919145.798361
-2190.330000	23198.895000	-20201.130000	-14559.210000	0.000000	0.000000	0.000000	0.000000	83.809926	11.233792	123.594966	134.890109	-0.000000	0.000000	0.000000	-0.000000	3.280900	0.564620	-1.052940	-0.032288	0.797117	0.600462	-1.000000	-1.000000	-1.000000	-1.000000	-1.000000	-1.000000	-1.000000	138.827586	0.000000	-1.000000	-1.000000	557857.000000	1772919145.798363
-2288.790000	23246.145000	-20346.255000	-14710.545000	0.000000	0.000000	0.000000	0.000000	39.042946	-7.474703	51.244583	59.668691	-0.000000	0.000000	0.000000	-0.000000	3.280900	0.564620	-1.052940	-0.032288	0.797117	0.600462	-1.000000	-1.000000	-1.000000	-1.000000	-1.000000	-1.000000	-1.000000	138.827586	0.000000	-1.000000	-1.000000	557858.000000	1772919145.802444
-2345.445000	23279.670000	-20426.445000	-14804.775000	0.000000	0.000000	0.000000	0.000000	-28.733994	-10.216936	-50.420920	-49.724032	-0.000000	0.000000	0.000000	-0.000000	3.280900	0.564620	-1.052940	-0.032288	0.797117	0.600462	-1.000000	-1.000000	-1.000000	-1.000000	-1.000000	-1.000000	-1.000000	138.827586	0.000000	-1.000000	-1.000000	557859.000000	1772919145.802446
-2313.855000	23284.260000	-20378.115000	-14752.395000	0.000000	0.000000	0.000000	0.000000	-81.804487	0.823337	-125.891010	-133.262034	-0.000000	0.000000	0.000000	-0.000000	3.280900	0.564620	-1.052940	-0.032288	0.797117	0.600462	-1.000000	-1.000000	-1.000000	-1.000000	-1.000000	-1.000000	-1.000000	138.827586	0.000000	-1.000000	-1.000000	557860.000000	1772919145.806511
-2273.265000	23288.760000	-20316.960000	-14682.960000	0.000000	0.000000	0.000000	0.000000	-89.219696	10.434643	-132.166654	-143.215914	-0.000000	0.000000	0.000000	-0.000000	3.280900	0.564620	-1.052940	-0.032288	0.797117	0.600462	-1.000000	-1.000000	-1.000000	-1.000000	-1.000000	-1.000000	-1.000000	138.827586	0.000000	-1.000000	-1.000000	557861.000000	1772919145.806513
-2190.915000	23263.155000	-20188.710000	-14551.965000	0.000000	0.000000	0.000000	0.000000	-46.384006	6.881704	-65.219794	-73.389932	-0.000000	0.000000	0.000000	-0.000000	3.280900	0.564620	-1.052940	-0.032288	0.797117	0.600462	-1.000000	-1.000000	-1.000000	-1.000000	-1.000000	-1.000000	-1.000000	138.827586	0.000000	-1.000000	-1.000000	557862.000000	1772919145.810465
-2128.095000	23287.995000	-20087.550000	-14444.640000	0.000000	0.000000	0.000000	0.000000	22.505312	-9.088024	38.054320	37.224264	-0.000000	0.000000	0.000000	-0.000000	3.280900	0.564620	-1.052940	-0.032288	0.797117	0.600462	-1.000000	-1.000000	-1.000000	-1.000000	-1.000000	-1.000000	-1.000000	138.827586	0.000000	-1.000000	-1.000000	557863.000000	1772919145.810468
-2154.330000	23306.895000	-20131.245000	-14487.165000	0.000000	0.000000	0.000000	0.000000	79.496056	-25.967973	121.749954	128.126461	-0.000000	0.000000	0.000000	-0.000000	3.280900	0.564620	-1.052940	-0.032288	0.797117	0.600462	-1.000000	-1.000000	-1.000000	-1.000000	-1.000000	-1.000000	-1.000000	138.827586	0.000000	-1.000000	-1.000000	557864.000000	1772919145.814386
-2183.895000	23242.410000	-20185.470000	-14545.080000	0.000000	0.000000	0.000000	0.000000	93.332636	-33.150262	139.784433	149.391927	-0.000000	0.000000	0.000000	-0.000000	3.280900	0.564620	-1.052940	-0.032288	0.797117	0.600462	-1.000000	-1.000000	-1.000000	-1.000000	-1.000000	-1.000000	-1.000000	138.827586	0.000000	-1.000000	-1.000000	557865.000000	1772919145.814389
-2242.980000	23174.955000	-20277.180000	-14646.240000	0.000000	0.000000	0.000000	0.000000	57.546999	-31.599563	82.855297	90.366136	-0.000000	0.000000	0.000000	-0.000000	3.494540	1.052940	-1.434440	-0.033264	0.793943	0.601866	-1.000000	-1.000000	-1.000000	-1.000000	-1.000000	-1.000000	-1.000000	138.827586	0.000000	-1.000000	-1.000000	557866.000000	1772919145.822227
-2341.125000	23206.410000	-20412.360000	-14790.915000	0.000000	0.000000	0.000000	0.000000	-7.226902	-26.709031	-16.657473	-15.232560	-0.000000	0.000000	0.000000	-0.000000	3.494540	1.052940	-1.434440	-0.033264	0.793943	0.601866	-1.000000	-1.000000	-1.000000	-1.000000	-1.000000	-1.000000	-1.000000	138.827586	0.000000	-1.000000	-1.000000	557867.000000	1772919145.822230
-2330.505000	23215.860000	-20399.985000	-14772.915000	0.000000	0.000000	0.000000	0.000000	-67.333897	-16.298279	-106.296486	-111.499300	-0.000000	0.000000	0.000000	-0.000000	3.494540	1.052940	-1.434440	-0.033264	0.793943	0.601866	-1.000000	-1.000000	-1.000000	-1.000000	-1.000000	-1.000000	-1.000000	138.827586	0.000000	-1.000000	-1.000000	557868.000000	1772919145.822234
-2289.555000	23242.230000	-20348.505000	-14710.995000	0.000000	0.000000	0.000000	0.000000	-91.584461	3.474204	-139.528156	-147.806666	-0.000000	0.000000	0.000000	-0.000000	3.494540	1.052940	-1.434440	-0.033264	0.793943	0.601866	-1.000000	-1.000000	-1.000000	-1.000000	-1.000000	-1.000000	-1.000000	138.827586	0.000000	-1.000000	-1.000000	557869.000000	1772919145.822236
-2242.035000	23284.215000	-20260.575000	-14619.690000	0.000000	0.000000	0.000000	0.000000	-66.871008	27.987503	-98.989164	-104.815270	-0.000000	0.000000	0.000000	-0.000000	3.494540	1.052940	-1.434440	-0.033264	0.793943	0.601866	-1.000000	-1.000000	-1.000000	-1.000000	-1.000000	-1.000000	-1.000000	138.827586	0.000000	-1.000000	-1.000000	557870.000000	1772919145.826533
-2159.865000	23353.155000	-20125.350000	-14476.365000	0.000000	0.000000	0.000000	0.000000	-7.378364	47.575694	-7.003845	-6.760146	-0.000000	0.000000	0.000000	-0.000000	3.494540	1.052940	-1.434440	-0.033264	0.793943	0.601866	-1.000000	-1.000000	-1.000000	-1.000000	-1.000000	-1.000000	-1.000000	138.827586	0.000000	-1.000000	-1.000000	557871.000000	1772919145.826536
-2158.020000	23363.685000	-20125.485000	-14472.270000	0.000000	0.000000	0.000000	0.000000	54.362895	54.168824	87.689057	93.603744	-0.000000	0.000000	0.000000	-0.000000	3.494540	1.052940	-1.434440	-0.033264	0.793943	0.601866	-1.000000	-1.000000	-1.000000	-1.000000	-1.000000	-1.000000	-1.000000	138.827586	0.000000	-1.000000	-1.000000	557872.000000	1772919145.830439
-2193.480000	23374.215000	-20181.195000	-14535.360000	0.000000	0.000000	0.000000	0.000000	85.462599	42.977575	134.578061	142.511301	-0.000000	0.000000	0.000000	-0.000000	3.494540	1.052940	-1.434440	-0.033264	0.793943	0.601866	-1.000000	-1.000000	-1.000000	-1.000000	-1.000000	-1.000000	-1.000000	138.827586	0.000000	-1.000000	-1.000000	557873.000000	1772919145.830442
-2248.470000	23387.265000	-20270.970000	-14632.110000	0.000000	0.000000	0.000000	0.000000	69.781192	15.528080	108.130071	113.269810	-0.000000	0.000000	0.000000	-0.000000	3.494540	1.052940	-1.434440	-0.033264	0.793943	0.601866	-1.000000	-1.000000	-1.000000	-1.000000	-1.000000	-1.000000	-1.000000	138.827586	0.000000	-1.000000	-1.000000	557874.000000	1772919145.834485
-2344.185000	23412.870000	-20419.425000	-14796.720000	0.000000	0.000000	0.000000	0.000000	16.822362	-17.570622	23.366954	22.171989	-0.000000	0.000000	0.000000	-0.000000	3.494540	1.052940	-1.434440	-0.033264	0.793943	0.601866	-1.000000	-1.000000	-1.000000	-1.000000	-1.000000	-1.000000	-1.000000	138.827586	0.000000	-1.000000	-1.000000	557875.000000	1772919145.834488
-2354.940000	23423.535000	-20438.865000	-14830.290000	0.000000	0.000000	0.000000	0.000000	-44.450536	-42.073162	-73.612184	-81.691173	-0.000000	0.000000	0.000000	-0.000000	5.905620	0.579880	-0.442540	-0.033508	0.793211	0.603819	-1.000000	-1.000000	-1.000000	-1.000000	-1.000000	-1.000000	-1.000000	138.827586	0.000000	-1.000000	-1.000000	557876.000000	1772919145.838495
-2305.755000	23403.825000	-20372.040000	-14759.280000	0.000000	0.000000	0.000000	0.000000	-80.135801	-50.088632	-129.348532	-141.366302	-0.000000	0.000000	0.000000	-0.000000	5.905620	0.579880	-0.442540	-0.033508	0.793211	0.603819	-1.000000	-1.000000	-1.000000	-1.000000	-1.000000	-1.000000	-1.000000	138.827586	0.000000	-1.000000	-1.000000	557877.000000	1772919145.838497
-2268.540000	23435.595000	-20306.970000	-14675.985000	0.000000	0.000000	0.000000	0.000000	-69.748983	-42.987802	-112.064395	-122.070832	-0.000000	0.000000	0.000000	-0.000000	5.905620	0.579880	-0.442540	-0.033508	0.793211	0.603819	-1.000000	-1.000000	-1.000000	-1.000000	-1.000000	-1.000000	-1.000000	138.827586	0.000000	-1.000000	-1.000000	557878.000000	1772919145.842629
-2178.540000	23479.380000	-20165.715000	-14529.375000	0.000000	0.000000	0.000000	0.000000	-19.998186	-25.298421	-32.335237	-34.005675	-0.000000	0.000000	0.000000	-0.000000	5.905620	0.579880	-0.442540	-0.033508	0.793211	0.603819	-1.000000	-1.000000	-1.000000	-1.000000	-1.000000	-1.000000	-1.000000	138.827586	0.000000	-1.000000	-1.000000	557879.000000	1772919145.842632
-2139.615000	23491.080000	-20117.655000	-14467.455000	0.000000	0.000000	0.000000	0.000000	40.696956	-1.936913	65.014305	74.091035	-0.000000	0.000000	0.000000	-0.000000	5.905620	0.579880	-0.442540	-0.033508	0.793211	0.603819	-1.000000	-1.000000	-1.000000	-1.000000	-1.000000	-1.000000	-1.000000	138.827586	0.000000	-1.000000	-1.000000	557880.000000	1772919145.846508
-2171.295000	23407.560000	-20169.405000	-14507.910000	0.000000	0.000000	0.000000	0.000000	79.249529	17.282073	126.801755	143.313646	-0.000000	0.000000	0.000000	-0.000000	5.905620	0.579880	-0.442540	-0.033508	0.793211	0.603819	-1.000000	-1.000000	-1.000000	-1.000000	-1.000000	-1.000000	-1.000000	138.827586	0.000000	-1.000000	-1.000000	557881.000000	1772919145.846510
-2237.670000	23400.585000	-20254.770000	-14592.375000	0.000000	0.000000	0.000000	0.000000	73.840809	20.897401	118.452920	135.489067	-0.000000	0.000000	0.000000	-0.000000	5.905620	0.579880	-0.442540	-0.033508	0.793211	0.603819	-1.000000	-1.000000	-1.000000	-1.000000	-1.000000	-1.000000	-1.000000	138.827586	0.000000	-1.000000	-1.000000	557882.000000	1772919145.867354
-2342.070000	23443.470000	-20393.865000	-14747.715000	0.000000	0.000000	0.000000	0.000000	25.793115	10.096591	43.949763	54.144632	-0.000000	0.000000	0.000000	-0.000000	5.905620	0.579880	-0.442540	-0.033508	0.793211	0.603819	-1.000000	-1.000000	-1.000000	-1.000000	-1.000000	-1.000000	-1.000000	138.827586	0.000000	-1.000000	-1.000000	557883.000000	1772919145.867358
-2382.030000	23486.355000	-20441.655000	-14826.330000	0.000000	0.000000	0.000000	0.000000	-39.663710	0.377421	-55.782568	-57.878590	-0.000000	0.000000	0.000000	-0.000000	5.905620	0.579880	-0.442540	-0.033508	0.793211	0.603819	-1.000000	-1.000000	-1.000000	-1.000000	-1.000000	-1.000000	-1.000000	138.827586	0.000000	-1.000000	-1.000000	557884.000000	1772919145.867362
-2345.085000	23520.195000	-20392.020000	-14774.895000	0.000000	0.000000	0.000000	0.000000	-85.552407	3.625236	-125.041051	-140.416316	-0.000000	0.000000	0.000000	-0.000000	5.905620	0.579880	-0.442540	-0.033508	0.793211	0.603819	-1.000000	-1.000000	-1.000000	-1.000000	-1.000000	-1.000000	-1.000000	138.827586	0.000000	-1.000000	-1.000000	557885.000000	1772919145.867364
-2304.765000	23565.195000	-20334.420000	-14707.890000	0.000000	0.000000	0.000000	0.000000	-84.127282	16.661891	-124.617891	-147.360848	-0.000000	0.000000	0.000000	-0.000000	7.630000	0.518840	-1.403920	-0.033752	0.793699	0.604369	-1.000000	-1.000000	-1.000000	-1.000000	-1.000000	-1.000000	-1.000000	138.827586	0.000000	-1.000000	-1.000000	557886.000000	1772919145.867831
-2217.915000	23571.540000	-20200.680000	-14568.570000	0.000000	0.000000	0.000000	0.000000	-35.404264	27.397932	-55.793784	-74.871370	-0.000000	0.000000	0.000000	-0.000000	7.630000	0.518840	-1.403920	-0.033752	0.793699	0.604369	-1.000000	-1.000000	-1.000000	-1.000000	-1.000000	-1.000000	-1.000000	138.827586	0.000000	-1.000000	-1.000000	557887.000000	1772919145.867833
-2168.280000	23637.420000	-20120.445000	-14475.780000	0.000000	0.000000	0.000000	0.000000	33.476054	26.518075	42.779704	36.801501	-0.000000	0.000000	0.000000	-0.000000	7.630000	0.518840	-1.403920	-0.033752	0.793699	0.604369	-1.000000	-1.000000	-1.000000	-1.000000	-1.000000	-1.000000	-1.000000	138.827586	0.000000	-1.000000	-1.000000	557888.000000	1772919145.867837
-2194.830000	23656.140000	-20168.055000	-14524.155000	0.000000	0.000000	0.000000	0.000000	84.929702	14.271514	117.721495	126.974590	-0.000000	0.000000	0.000000	-0.000000	7.630000	0.518840	-1.403920	-0.033752	0.793699	0.604369	-1.000000	-1.000000	-1.000000	-1.000000	-1.000000	-1.000000	-1.000000	138.827586	0.000000	-1.000000	-1.000000	557889.000000	1772919145.867839
-2235.690000	23673.960000	-20228.805000	-14591.745000	0.000000	0.000000	0.000000	0.000000	90.848594	-2.946404	127.690101	146.325095	-0.000000	0.000000	0.000000	-0.000000	7.630000	0.518840	-1.403920	-0.033752	0.793699	0.604369	-1.000000	-1.000000	-1.000000	-1.000000	-1.000000	-1.000000	-1.000000	138.827586	0.000000	-1.000000	-1.000000	557890.000000	1772919145.868136
-2314.890000	23688.855000	-20349.540000	-14719.545000	0.000000	0.000000	0.000000	0.000000	48.464124	-19.164071	67.406932	85.411977	-0.000000	0.000000	0.000000	-0.000000	7.630000	0.518840	-1.403920	-0.033752	0.793699	0.604369	-1.000000	-1.000000	-1.000000	-1.000000	-1.000000	-1.000000	-1.000000	138.827586	0.000000	-1.000000	-1.000000	557891.000000	1772919145.868138
-2389.770000	23712.615000	-20461.050000	-14850.045000	0.000000	0.000000	0.000000	0.000000	-18.921886	-29.766693	-29.578475	-20.751964	-0.000000	0.000000	0.000000	-0.000000	7.630000	0.518840	-1.403920	-0.033752	0.793699	0.604369	-1.000000	-1.000000	-1.000000	-1.000000	-1.000000	-1.000000	-1.000000	138.827586	0.000000	-1.000000	-1.000000	557892.000000	1772919145.874177
-2379.240000	23765.895000	-20433.600000	-14825.475000	0.000000	0.000000	0.000000	0.000000	-75.861532	-30.831491	-111.020562	-114.449270	-0.000000	0.000000	0.000000	-0.000000	7.630000	0.518840	-1.403920	-0.033752	0.793699	0.604369	-1.000000	-1.000000	-1.000000	-1.000000	-1.000000	-1.000000	-1.000000	138.827586	0.000000	-1.000000	-1.000000	557893.000000	1772919145.874179
-2346.750000	23850.180000	-20377.845000	-14768.775000	0.000000	0.000000	0.000000	0.000000	-92.345937	-20.157963	-132.313611	-144.588842	-0.000000	0.000000	0.000000	-0.000000	7.630000	0.518840	-1.403920	-0.033752	0.793699	0.604369	-1.000000	-1.000000	-1.000000	-1.000000	-1.000000	-1.000000	-1.000000	138.827586	0.000000	-1.000000	-1.000000	557894.000000	1772919145.874646
-2282.220000	23890.320000	-20280.690000	-14662.755000	0.000000	0.000000	0.000000	0.000000	-59.906852	-0.342479	-81.457721	-94.806122	-0.000000	0.000000	0.000000	-0.000000	7.630000	0.518840	-1.403920	-0.033752	0.793699	0.604369	-1.000000	-1.000000	-1.000000	-1.000000	-1.000000	-1.000000	-1.000000	138.827586	0.000000	-1.000000	-1.000000	557895.000000	1772919145.874649
-2194.425000	23923.800000	-20153.295000	-14515.245000	0.000000	0.000000	0.000000	0.000000	3.717813	18.847322	13.569506	7.004704	-0.000000	0.000000	0.000000	-0.000000	9.323860	-0.579880	-1.083460	-0.033752	0.790769	0.606078	-1.000000	-1.000000	-1.000000	-1.000000	-1.000000	-1.000000	-1.000000	138.827586	0.000000	-1.000000	-1.000000	557896.000000	1772919145.880753
-2207.790000	23962.095000	-20173.590000	-14525.865000	0.000000	0.000000	0.000000	0.000000	65.066387	26.256802	101.968773	106.162232	-0.000000	0.000000	0.000000	-0.000000	9.323860	-0.579880	-1.083460	-0.033752	0.790769	0.606078	-1.000000	-1.000000	-1.000000	-1.000000	-1.000000	-1.000000	-1.000000	138.827586	0.000000	-1.000000	-1.000000	557897.000000	1772919145.880756
-2258.190000	23992.290000	-20240.820000	-14598.180000	0.000000	0.000000	0.000000	0.000000	91.029302	18.744648	135.696655	148.535606	-0.000000	0.000000	0.000000	-0.000000	9.323860	-0.579880	-1.083460	-0.033752	0.790769	0.606078	-1.000000	-1.000000	-1.000000	-1.000000	-1.000000	-1.000000	-1.000000	138.827586	0.000000	-1.000000	-1.000000	557898.000000	1772919145.882505
-2336.850000	24134.625000	-20363.085000	-14719.275000	0.000000	0.000000	0.000000	0.000000	66.590824	4.319884	95.074809	109.278034	-0.000000	0.000000	0.000000	-0.000000	9.323860	-0.579880	-1.083460	-0.033752	0.790769	0.606078	-1.000000	-1.000000	-1.000000	-1.000000	-1.000000	-1.000000	-1.000000	138.827586	0.000000	-1.000000	-1.000000	557899.000000	1772919145.882507
-2452.950000	24367.095000	-20537.685000	-14904.270000	0.000000	0.000000	0.000000	0.000000	4.660518	-1.021994	0.934741	8.510052	-0.000000	0.000000	0.000000	-0.000000	9.323860	-0.579880	-1.083460	-0.033752	0.790769	0.606078	-1.000000	-1.000000	-1.000000	-1.000000	-1.000000	-1.000000	-1.000000	138.827586	0.000000	-1.000000	-1.000000	557900.000000	1772919145.888753
-2445.075000	24439.320000	-20516.850000	-14899.545000	0.000000	0.000000	0.000000	0.000000	-60.987082	12.064723	-96.414096	-99.738486	-0.000000	0.000000	0.000000	-0.000000	9.323860	-0.579880	-1.083460	-0.033752	0.790769	0.606078	-1.000000	-1.000000	-1.000000	-1.000000	-1.000000	-1.000000	-1.000000	138.827586	0.000000	-1.000000	-1.000000	557901.000000	1772919145.888756
-2387.790000	24371.325000	-20431.395000	-14811.705000	0.000000	0.000000	0.000000	0.000000	-92.423786	27.492176	-140.910536	-153.997911	-0.000000	0.000000	0.000000	-0.000000	9.323860	-0.579880	-1.083460	-0.033752	0.790769	0.606078	-1.000000	-1.000000	-1.000000	-1.000000	-1.000000	-1.000000	-1.000000	138.827586	0.000000	-1.000000	-1.000000	557902.000000	1772919145.896975
-2348.010000	24385.860000	-20373.570000	-14745.690000	0.000000	0.000000	0.000000	0.000000	-70.014132	16.393069	-104.350478	-121.074487	-0.000000	0.000000	0.000000	-0.000000	9.323860	-0.579880	-1.083460	-0.033752	0.790769	0.606078	-1.000000	-1.000000	-1.000000	-1.000000	-1.000000	-1.000000	-1.000000	138.827586	0.000000	-1.000000	-1.000000	557903.000000	1772919145.896977
-2253.690000	24411.420000	-20223.315000	-14591.070000	0.000000	0.000000	0.000000	0.000000	-7.169428	-24.947891	-8.227878	-20.349029	-0.000000	0.000000	0.000000	-0.000000	9.323860	-0.579880	-1.083460	-0.033752	0.790769	0.606078	-1.000000	-1.000000	-1.000000	-1.000000	-1.000000	-1.000000	-1.000000	138.827586	0.000000	-1.000000	-1.000000	557904.000000	1772919145.896981
-2233.530000	24442.695000	-20191.095000	-14558.265000	0.000000	0.000000	0.000000	0.000000	60.042614	-68.013624	93.079748	91.046903	-0.000000	0.000000	0.000000	-0.000000	9.323860	-0.579880	-1.083460	-0.033752	0.790769	0.606078	-1.000000	-1.000000	-1.000000	-1.000000	-1.000000	-1.000000	-1.000000	138.827586	0.000000	-1.000000	-1.000000	557905.000000	1772919145.896983
-2246.265000	24347.475000	-20229.075000	-14600.160000	0.000000	0.000000	0.000000	0.000000	95.490676	-84.633923	145.490709	153.129940	-0.000000	0.000000	0.000000	-0.000000	10.025820	-0.350980	-0.579880	-0.034180	0.793821	0.604491	-1.000000	-1.000000	-1.000000	-1.000000	-1.000000	-1.000000	-1.000000	138.827586	0.000000	-1.000000	-1.000000	557906.000000	1772919145.898741
-2274.930000	24203.790000	-20288.880000	-14653.935000	0.000000	0.000000	0.000000	0.000000	81.468076	-73.321084	121.805315	133.993559	-0.000000	0.000000	0.000000	-0.000000	10.025820	-0.350980	-0.579880	-0.034180	0.793821	0.604491	-1.000000	-1.000000	-1.000000	-1.000000	-1.000000	-1.000000	-1.000000	138.827586	0.000000	-1.000000	-1.000000	557907.000000	1772919145.898743
-2364.435000	24240.465000	-20421.090000	-14794.650000	0.000000	0.000000	0.000000	0.000000	26.676436	-48.315306	35.543570	46.277400	-0.000000	0.000000	0.000000	-0.000000	10.025820	-0.350980	-0.579880	-0.034180	0.793821	0.604491	-1.000000	-1.000000	-1.000000	-1.000000	-1.000000	-1.000000	-1.000000	138.827586	0.000000	-1.000000	-1.000000	557908.000000	1772919145.902691
-2364.705000	24324.120000	-20435.940000	-14823.315000	0.000000	0.000000	0.000000	0.000000	-40.379834	-13.171429	-67.765229	-62.686407	-0.000000	0.000000	0.000000	-0.000000	10.025820	-0.350980	-0.579880	-0.034180	0.793821	0.604491	-1.000000	-1.000000	-1.000000	-1.000000	-1.000000	-1.000000	-1.000000	138.827586	0.000000	-1.000000	-1.000000	557909.000000	1772919145.902693
-2297.925000	24335.055000	-20352.240000	-14741.055000	0.000000	0.000000	0.000000	0.000000	-84.595289	35.250480	-133.451988	-135.507418	-0.000000	0.000000	0.000000	-0.000000	10.025820	-0.350980	-0.579880	-0.034180	0.793821	0.604491	-1.000000	-1.000000	-1.000000	-1.000000	-1.000000	-1.000000	-1.000000	138.827586	0.000000	-1.000000	-1.000000	557910.000000	1772919145.906778
-2277.630000	24391.395000	-20303.370000	-14688.225000	0.000000	0.000000	0.000000	0.000000	-82.480833	84.812938	-126.599383	-133.863939	-0.000000	0.000000	0.000000	-0.000000	10.025820	-0.350980	-0.579880	-0.034180	0.793821	0.604491	-1.000000	-1.000000	-1.000000	-1.000000	-1.000000	-1.000000	-1.000000	138.827586	0.000000	-1.000000	-1.000000	557911.000000	1772919145.906781
-2230.110000	24427.935000	-20206.305000	-14587.920000	0.000000	0.000000	0.000000	0.000000	-39.158039	112.499940	-55.231847	-63.017587	-0.000000	0.000000	0.000000	-0.000000	10.025820	-0.350980	-0.579880	-0.034180	0.793821	0.604491	-1.000000	-1.000000	-1.000000	-1.000000	-1.000000	-1.000000	-1.000000	138.827586	0.000000	-1.000000	-1.000000	557912.000000	1772919145.910750
-2215.665000	24504.795000	-20174.355000	-14536.035000	0.000000	0.000000	0.000000	0.000000	16.695020	105.484511	36.775315	33.350083	-0.000000	0.000000	0.000000	-0.000000	10.025820	-0.350980	-0.579880	-0.034180	0.793821	0.604491	-1.000000	-1.000000	-1.000000	-1.000000	-1.000000	-1.000000	-1.000000	138.827586	0.000000	-1.000000	-1.000000	557913.000000	1772919145.910753
-2241.900000	24590.160000	-20217.780000	-14577.165000	0.000000	0.000000	0.000000	0.000000	54.124686	69.657098	98.940753	102.354496	-0.000000	0.000000	0.000000	-0.000000	10.025820	-0.350980	-0.579880	-0.034180	0.793821	0.604491	-1.000000	-1.000000	-1.000000	-1.000000	-1.000000	-1.000000	-1.000000	138.827586	0.000000	-1.000000	-1.000000	557914.000000	1772919145.914773
-2278.215000	24646.995000	-20276.370000	-14644.890000	0.000000	0.000000	0.000000	0.000000	56.358998	22.264152	100.987888	109.559887	-0.000000	0.000000	0.000000	-0.000000	10.025820	-0.350980	-0.579880	-0.034180	0.793821	0.604491	-1.000000	-1.000000	-1.000000	-1.000000	-1.000000	-1.000000	-1.000000	138.827586	0.000000	-1.000000	-1.000000	557915.000000	1772919145.914776
-2361.870000	24656.355000	-20400.480000	-14767.335000	0.000000	0.000000	0.000000	0.000000	26.495581	-21.758919	46.729523	55.122480	-0.000000	0.000000	0.000000	-0.000000	8.850800	0.228900	-2.441600	-0.030579	0.795774	0.599730	-1.000000	-1.000000	-1.000000	-1.000000	-1.000000	-1.000000	-1.000000	138.827586	0.000000	-1.000000	-1.000000	557916.000000	1772919145.918804
-2441.115000	24568.920000	-20511.900000	-14888.115000	0.000000	0.000000	0.000000	0.000000	-17.650257	-57.519377	-32.142577	-29.244587	-0.000000	0.000000	0.000000	-0.000000	8.850800	0.228900	-2.441600	-0.030579	0.795774	0.599730	-1.000000	-1.000000	-1.000000	-1.000000	-1.000000	-1.000000	-1.000000	138.827586	0.000000	-1.000000	-1.000000	557917.000000	1772919145.918807
-2427.030000	24480.630000	-20483.055000	-14864.310000	0.000000	0.000000	0.000000	0.000000	-52.519107	-86.282011	-93.420273	-97.896110	-0.000000	0.000000	0.000000	-0.000000	8.850800	0.228900	-2.441600	-0.030579	0.795774	0.599730	-1.000000	-1.000000	-1.000000	-1.000000	-1.000000	-1.000000	-1.000000	138.827586	0.000000	-1.000000	-1.000000	557918.000000	1772919145.922790
-2390.670000	24476.085000	-20423.385000	-14797.260000	0.000000	0.000000	0.000000	0.000000	-57.320972	-103.743389	-102.132454	-111.726532	-0.000000	0.000000	0.000000	-0.000000	8.850800	0.228900	-2.441600	-0.030579	0.795774	0.599730	-1.000000	-1.000000	-1.000000	-1.000000	-1.000000	-1.000000	-1.000000	138.827586	0.000000	-1.000000	-1.000000	557919.000000	1772919145.922793
-2332.080000	24564.060000	-20328.030000	-14705.145000	0.000000	0.000000	0.000000	0.000000	-26.141219	-94.860224	-50.407952	-60.173487	-0.000000	0.000000	0.000000	-0.000000	8.850800	0.228900	-2.441600	-0.030579	0.795774	0.599730	-1.000000	-1.000000	-1.000000	-1.000000	-1.000000	-1.000000	-1.000000	138.827586	0.000000	-1.000000	-1.000000	557920.000000	1772919145.926854
-2254.275000	24654.960000	-20216.205000	-14588.325000	0.000000	0.000000	0.000000	0.000000	25.920181	-47.825344	35.092425	29.792345	-0.000000	0.000000	0.000000	-0.000000	8.850800	0.228900	-2.441600	-0.030579	0.795774	0.599730	-1.000000	-1.000000	-1.000000	-1.000000	-1.000000	-1.000000	-1.000000	138.827586	0.000000	-1.000000	-1.000000	557921.000000	1772919145.926873
-2244.420000	24682.500000	-20222.865000	-14586.570000	0.000000	0.000000	0.000000	0.000000	71.330878	25.443180	108.497205	109.607820	-0.000000	0.000000	0.000000	-0.000000	8.850800	0.228900	-2.441600	-0.030579	0.795774	0.599730	-1.000000	-1.000000	-1.000000	-1.000000	-1.000000	-1.000000	-1.000000	138.827586	0.000000	-1.000000	-1.000000	557922.000000	1772919145.930744
-2296.395000	24669.585000	-20297.115000	-14655.330000	0.000000	0.000000	0.000000	0.000000	84.200331	89.126650	128.462912	135.079448	-0.000000	0.000000	0.000000	-0.000000	8.850800	0.228900	-2.441600	-0.030579	0.795774	0.599730	-1.000000	-1.000000	-1.000000	-1.000000	-1.000000	-1.000000	-1.000000	138.827586	0.000000	-1.000000	-1.000000	557923.000000	1772919145.930754
-2335.140000	24661.530000	-20363.400000	-14723.730000	0.000000	0.000000	0.000000	0.000000	54.284774	109.164201	81.203344	90.341102	-0.000000	0.000000	0.000000	-0.000000	8.850800	0.228900	-2.441600	-0.030579	0.795774	0.599730	-1.000000	-1.000000	-1.000000	-1.000000	-1.000000	-1.000000	-1.000000	138.827586	0.000000	-1.000000	-1.000000	557924.000000	1772919145.934837
-2417.130000	24696.630000	-20491.335000	-14863.815000	0.000000	0.000000	0.000000	0.000000	-4.848842	79.831620	-9.348519	-1.898475	-0.000000	0.000000	0.000000	-0.000000	8.850800	0.228900	-2.441600	-0.030579	0.795774	0.599730	-1.000000	-1.000000	-1.000000	-1.000000	-1.000000	-1.000000	-1.000000	138.827586	0.000000	-1.000000	-1.000000	557925.000000	1772919145.934858
-2431.080000	24683.670000	-20496.330000	-14870.025000	0.000000	0.000000	0.000000	0.000000	-63.307993	24.414077	-96.118446	-94.116279	-0.000000	0.000000	0.000000	-0.000000	8.805020	2.685760	-4.028640	-0.029968	0.798155	0.599242	-1.000000	-1.000000	-1.000000	-1.000000	-1.000000	-1.000000	-1.000000	138.827586	0.000000	-1.000000	-1.000000	557926.000000	1772919145.938828
-2378.520000	24693.390000	-20417.490000	-14782.905000	0.000000	0.000000	0.000000	0.000000	-90.874285	-26.835080	-133.579042	-137.807359	-0.000000	0.000000	0.000000	-0.000000	8.805020	2.685760	-4.028640	-0.029968	0.798155	0.599242	-1.000000	-1.000000	-1.000000	-1.000000	-1.000000	-1.000000	-1.000000	138.827586	0.000000	-1.000000	-1.000000	557927.000000	1772919145.938834
-2298.015000	24601.635000	-20307.780000	-14667.930000	0.000000	0.000000	0.000000	0.000000	-71.755679	-56.705921	-100.326933	-107.595348	-0.000000	0.000000	0.000000	-0.000000	8.805020	2.685760	-4.028640	-0.029968	0.798155	0.599242	-1.000000	-1.000000	-1.000000	-1.000000	-1.000000	-1.000000	-1.000000	138.827586	0.000000	-1.000000	-1.000000	557928.000000	1772919145.942775
-2138.175000	24394.545000	-20100.960000	-14440.545000	0.000000	0.000000	0.000000	0.000000	-13.408867	-67.671552	-11.796798	-17.049514	-0.000000	0.000000	0.000000	-0.000000	8.805020	2.685760	-4.028640	-0.029968	0.798155	0.599242	-1.000000	-1.000000	-1.000000	-1.000000	-1.000000	-1.000000	-1.000000	138.827586	0.000000	-1.000000	-1.000000	557929.000000	1772919145.942789
-2092.590000	24235.830000	-20059.155000	-14388.795000	0.000000	0.000000	0.000000	0.000000	56.013402	-72.473483	87.113647	87.586890	-0.000000	0.000000	0.000000	-0.000000	8.805020	2.685760	-4.028640	-0.029968	0.798155	0.599242	-1.000000	-1.000000	-1.000000	-1.000000	-1.000000	-1.000000	-1.000000	138.827586	0.000000	-1.000000	-1.000000	557930.000000	1772919145.946923
-2106.630000	24126.075000	-20090.430000	-14422.320000	0.000000	0.000000	0.000000	0.000000	98.871042	-73.511334	142.362980	148.507517	-0.000000	0.000000	0.000000	-0.000000	8.805020	2.685760	-4.028640	-0.029968	0.798155	0.599242	-1.000000	-1.000000	-1.000000	-1.000000	-1.000000	-1.000000	-1.000000	138.827586	0.000000	-1.000000	-1.000000	557931.000000	1772919145.946928
-2139.120000	24090.345000	-20155.365000	-14541.840000	0.000000	0.000000	0.000000	0.000000	88.218281	-57.257361	119.864696	126.565955	-0.000000	0.000000	0.000000	-0.000000	8.805020	2.685760	-4.028640	-0.029968	0.798155	0.599242	-1.000000	-1.000000	-1.000000	-1.000000	-1.000000	-1.000000	-1.000000	138.827586	0.000000	-1.000000	-1.000000	557932.000000	1772919145.952339
-2272.680000	24114.960000	-20329.965000	-14708.520000	0.000000	0.000000	0.000000	0.000000	26.522517	-11.560564	28.614170	28.174709	-0.000000	0.000000	0.000000	-0.000000	8.805020	2.685760	-4.028640	-0.029968	0.798155	0.599242	-1.000000	-1.000000	-1.000000	-1.000000	-1.000000	-1.000000	-1.000000	138.827586	0.000000	-1.000000	-1.000000	557933.000000	1772919145.952344
-2319.705000	24140.205000	-20393.505000	-14781.420000	0.000000	0.000000	0.000000	0.000000	-55.874060	56.915290	-85.096591	-95.711237	-0.000000	0.000000	0.000000	-0.000000	8.805020	2.685760	-4.028640	-0.029968	0.798155	0.599242	-1.000000	-1.000000	-1.000000	-1.000000	-1.000000	-1.000000	-1.000000	138.827586	0.000000	-1.000000	-1.000000	557934.000000	1772919145.967137
-2347.920000	24128.550000	-20406.555000	-14785.515000	0.000000	0.000000	0.000000	0.000000	-116.821901	120.978250	-162.444342	-177.639820	-0.000000	0.000000	0.000000	-0.000000	8.805020	2.685760	-4.028640	-0.029968	0.798155	0.599242	-1.000000	-1.000000	-1.000000	-1.000000	-1.000000	-1.000000	-1.000000	138.827586	0.000000	-1.000000	-1.000000	557935.000000	1772919145.967144
-2326.770000	24280.830000	-20367.450000	-14737.365000	0.000000	0.000000	0.000000	0.000000	-123.960140	151.215754	-162.217112	-172.233387	-0.000000	0.000000	0.000000	-0.000000	15.504160	0.183120	-1.724380	-0.040344	0.791197	0.598387	-1.000000	-1.000000	-1.000000	-1.000000	-1.000000	-1.000000	-1.000000	138.827586	0.000000	-1.000000	-1.000000	557936.000000	1772919145.967152
-2262.195000	24377.805000	-20263.815000	-14640.840000	0.000000	0.000000	0.000000	0.000000	-73.058791	138.933206	-84.166383	-82.441835	-0.000000	0.000000	0.000000	-0.000000	15.504160	0.183120	-1.724380	-0.040344	0.791197	0.598387	-1.000000	-1.000000	-1.000000	-1.000000	-1.000000	-1.000000	-1.000000	138.827586	0.000000	-1.000000	-1.000000	557937.000000	1772919145.967154
-2227.140000	24559.245000	-20201.445000	-14571.315000	0.000000	0.000000	0.000000	0.000000	10.750804	96.459432	32.566308	45.270093	-0.000000	0.000000	0.000000	-0.000000	15.504160	0.183120	-1.724380	-0.040344	0.791197	0.598387	-1.000000	-1.000000	-1.000000	-1.000000	-1.000000	-1.000000	-1.000000	138.827586	0.000000	-1.000000	-1.000000	557938.000000	1772919145.967158
-2244.645000	24669.630000	-20239.290000	-14619.645000	0.000000	0.000000	0.000000	0.000000	86.473334	41.420357	130.397171	147.410210	-0.000000	0.000000	0.000000	-0.000000	15.504160	0.183120	-1.724380	-0.040344	0.791197	0.598387	-1.000000	-1.000000	-1.000000	-1.000000	-1.000000	-1.000000	-1.000000	138.827586	0.000000	-1.000000	-1.000000	557939.000000	1772919145.967160
-2289.420000	24667.695000	-20297.115000	-14653.215000	0.000000	0.000000	0.000000	0.000000	117.941093	-15.720052	161.680803	175.533319	-0.000000	0.000000	0.000000	-0.000000	15.504160	0.183120	-1.724380	-0.040344	0.791197	0.598387	-1.000000	-1.000000	-1.000000	-1.000000	-1.000000	-1.000000	-1.000000	138.827586	0.000000	-1.000000	-1.000000	557940.000000	1772919145.970478
-2399.850000	24670.755000	-20461.455000	-14799.510000	0.000000	0.000000	0.000000	0.000000	92.636917	-72.955562	113.881184	121.114023	-0.000000	0.000000	0.000000	-0.000000	15.504160	0.183120	-1.724380	-0.040344	0.791197	0.598387	-1.000000	-1.000000	-1.000000	-1.000000	-1.000000	-1.000000	-1.000000	138.827586	0.000000	-1.000000	-1.000000	557941.000000	1772919145.970483
-2476.170000	24690.465000	-20571.570000	-14912.505000	0.000000	0.000000	0.000000	0.000000	26.654160	-123.825442	14.481148	16.098954	-0.000000	0.000000	0.000000	-0.000000	15.504160	0.183120	-1.724380	-0.040344	0.791197	0.598387	-1.000000	-1.000000	-1.000000	-1.000000	-1.000000	-1.000000	-1.000000	138.827586	0.000000	-1.000000	-1.000000	557942.000000	1772919145.970936
-2403.090000	24698.970000	-20455.065000	-14790.240000	0.000000	0.000000	0.000000	0.000000	-42.467467	-151.162688	-81.331609	-83.563718	-0.000000	0.000000	0.000000	-0.000000	15.504160	0.183120	-1.724380	-0.040344	0.791197	0.598387	-1.000000	-1.000000	-1.000000	-1.000000	-1.000000	-1.000000	-1.000000	138.827586	0.000000	-1.000000	-1.000000	557943.000000	1772919145.970939
-2317.545000	24793.155000	-20336.625000	-14700.285000	0.000000	0.000000	0.000000	0.000000	-73.502220	-139.106848	-116.266484	-122.389238	-0.000000	0.000000	0.000000	-0.000000	15.504160	0.183120	-1.724380	-0.040344	0.791197	0.598387	-1.000000	-1.000000	-1.000000	-1.000000	-1.000000	-1.000000	-1.000000	138.827586	0.000000	-1.000000	-1.000000	557944.000000	1772919145.975020
-2198.205000	24795.855000	-20214.360000	-14580.585000	0.000000	0.000000	0.000000	0.000000	-48.949812	-87.287183	-70.478481	-81.532081	-0.000000	0.000000	0.000000	-0.000000	15.504160	0.183120	-1.724380	-0.040344	0.791197	0.598387	-1.000000	-1.000000	-1.000000	-1.000000	-1.000000	-1.000000	-1.000000	138.827586	0.000000	-1.000000	-1.000000	557945.000000	1772919145.975023
-2070.360000	24769.305000	-20090.970000	-14446.125000	0.000000	0.000000	0.000000	0.000000	12.326703	-16.776186	21.763823	6.907449	-0.000000	0.000000	0.000000	-0.000000	24.309180	-0.640920	-1.632820	-0.034546	0.778685	0.595885	-1.000000	-1.000000	-1.000000	-1.000000	-1.000000	-1.000000	-1.000000	138.827586	0.000000	-1.000000	-1.000000	557946.000000	1772919145.979041
-2073.960000	24789.330000	-20119.140000	-14498.910000	0.000000	0.000000	0.000000	0.000000	69.390641	41.519562	99.117068	85.174858	-0.000000	0.000000	0.000000	-0.000000	24.309180	-0.640920	-1.632820	-0.034546	0.778685	0.595885	-1.000000	-1.000000	-1.000000	-1.000000	-1.000000	-1.000000	-1.000000	138.827586	0.000000	-1.000000	-1.000000	557947.000000	1772919145.979045
-2206.170000	24738.435000	-20267.145000	-14661.315000	0.000000	0.000000	0.000000	0.000000	81.858290	68.721928	111.026050	102.584917	-0.000000	0.000000	0.000000	-0.000000	24.309180	-0.640920	-1.632820	-0.034546	0.778685	0.595885	-1.000000	-1.000000	-1.000000	-1.000000	-1.000000	-1.000000	-1.000000	138.827586	0.000000	-1.000000	-1.000000	557948.000000	1772919145.982955
-2319.750000	24725.520000	-20418.165000	-14789.880000	0.000000	0.000000	0.000000	0.000000	33.142895	64.804050	44.967359	43.678553	-0.000000	0.000000	0.000000	-0.000000	24.309180	-0.640920	-1.632820	-0.034546	0.778685	0.595885	-1.000000	-1.000000	-1.000000	-1.000000	-1.000000	-1.000000	-1.000000	138.827586	0.000000	-1.000000	-1.000000	557949.000000	1772919145.982958
-2411.910000	24669.270000	-20533.185000	-14884.605000	0.000000	0.000000	0.000000	0.000000	-53.152587	41.527136	-63.350546	-56.777396	-0.000000	0.000000	0.000000	-0.000000	24.309180	-0.640920	-1.632820	-0.034546	0.778685	0.595885	-1.000000	-1.000000	-1.000000	-1.000000	-1.000000	-1.000000	-1.000000	138.827586	0.000000	-1.000000	-1.000000	557950.000000	1772919145.986929
-2466.585000	24673.995000	-20518.740000	-14871.105000	0.000000	0.000000	0.000000	0.000000	-125.698608	14.675345	-149.109489	-134.561729	-0.000000	0.000000	0.000000	-0.000000	24.309180	-0.640920	-1.632820	-0.034546	0.778685	0.595885	-1.000000	-1.000000	-1.000000	-1.000000	-1.000000	-1.000000	-1.000000	138.827586	0.000000	-1.000000	-1.000000	557951.000000	1772919145.986932
-2489.580000	24661.125000	-20461.320000	-14823.675000	0.000000	0.000000	0.000000	0.000000	-141.285966	-2.389627	-158.562030	-139.738203	-0.000000	0.000000	0.000000	-0.000000	24.309180	-0.640920	-1.632820	-0.034546	0.778685	0.595885	-1.000000	-1.000000	-1.000000	-1.000000	-1.000000	-1.000000	-1.000000	138.827586	0.000000	-1.000000	-1.000000	557952.000000	1772919145.990995
-2388.240000	24719.535000	-20311.155000	-14702.895000	0.000000	0.000000	0.000000	0.000000	-89.529197	-3.173881	-81.963602	-67.019303	-0.000000	0.000000	0.000000	-0.000000	24.309180	-0.640920	-1.632820	-0.034546	0.778685	0.595885	-1.000000	-1.000000	-1.000000	-1.000000	-1.000000	-1.000000	-1.000000	138.827586	0.000000	-1.000000	-1.000000	557953.000000	1772919145.990998
-2188.845000	24673.950000	-20057.940000	-14488.650000	0.000000	0.000000	0.000000	0.000000	9.469619	8.969277	44.993872	47.467121	-0.000000	0.000000	0.000000	-0.000000	24.309180	-0.640920	-1.632820	-0.034546	0.778685	0.595885	-1.000000	-1.000000	-1.000000	-1.000000	-1.000000	-1.000000	-1.000000	138.827586	0.000000	-1.000000	-1.000000	557954.000000	1772919145.995202
-2202.210000	24695.235000	-20032.200000	-14516.775000	0.000000	0.000000	0.000000	0.000000	114.795877	21.900990	162.423530	148.347991	-0.000000	0.000000	0.000000	-0.000000	24.309180	-0.640920	-1.632820	-0.034546	0.778685	0.595885	-1.000000	-1.000000	-1.000000	-1.000000	-1.000000	-1.000000	-1.000000	138.827586	0.000000	-1.000000	-1.000000	557955.000000	1772919145.995205
-2289.195000	24773.130000	-20110.995000	-14613.480000	0.000000	0.000000	0.000000	0.000000	172.961834	26.103784	208.425846	181.263518	-0.000000	0.000000	0.000000	-0.000000	22.615320	-9.552760	1.144500	-0.038269	0.791441	0.593321	-1.000000	-1.000000	-1.000000	-1.000000	-1.000000	-1.000000	-1.000000	138.827586	0.000000	-1.000000	-1.000000	557956.000000	1772919146.001034
-2189.295000	24727.455000	-20100.420000	-14587.065000	0.000000	0.000000	0.000000	0.000000	150.045728	21.728620	152.526632	123.870342	-0.000000	0.000000	0.000000	-0.000000	22.615320	-9.552760	1.144500	-0.038269	0.791441	0.593321	-1.000000	-1.000000	-1.000000	-1.000000	-1.000000	-1.000000	-1.000000	138.827586	0.000000	-1.000000	-1.000000	557957.000000	1772919146.001037
-2129.175000	24664.950000	-20122.740000	-14633.415000	0.000000	0.000000	0.000000	0.000000	66.169917	9.014534	24.925862	9.846717	-0.000000	0.000000	0.000000	-0.000000	22.615320	-9.552760	1.144500	-0.038269	0.791441	0.593321	-1.000000	-1.000000	-1.000000	-1.000000	-1.000000	-1.000000	-1.000000	138.827586	0.000000	-1.000000	-1.000000	557958.000000	1772919146.003017
-2161.620000	24619.140000	-20139.390000	-14682.690000	0.000000	0.000000	0.000000	0.000000	-25.748206	-13.536446	-104.247512	-97.607723	-0.000000	0.000000	0.000000	-0.000000	22.615320	-9.552760	1.144500	-0.038269	0.791441	0.593321	-1.000000	-1.000000	-1.000000	-1.000000	-1.000000	-1.000000	-1.000000	138.827586	0.000000	-1.000000	-1.000000	557959.000000	1772919146.003020
-2208.375000	24575.625000	-20121.345000	-14695.650000	0.000000	0.000000	0.000000	0.000000	-88.959421	-38.874331	-175.256186	-152.001120	-0.000000	0.000000	0.000000	-0.000000	22.615320	-9.552760	1.144500	-0.038269	0.791441	0.593321	-1.000000	-1.000000	-1.000000	-1.000000	-1.000000	-1.000000	-1.000000	138.827586	0.000000	-1.000000	-1.000000	557960.000000	1772919146.007153
-2286.495000	24620.085000	-20211.570000	-14675.310000	0.000000	0.000000	0.000000	0.000000	-115.868334	-51.657836	-169.225472	-140.249047	-0.000000	0.000000	0.000000	-0.000000	22.615320	-9.552760	1.144500	-0.038269	0.791441	0.593321	-1.000000	-1.000000	-1.000000	-1.000000	-1.000000	-1.000000	-1.000000	138.827586	0.000000	-1.000000	-1.000000	557961.000000	1772919146.007156
-2221.740000	24671.520000	-20358.360000	-14569.695000	0.000000	0.000000	0.000000	0.000000	-110.298853	-39.171144	-110.091590	-75.915077	-0.000000	0.000000	0.000000	-0.000000	22.615320	-9.552760	1.144500	-0.038269	0.791441	0.593321	-1.000000	-1.000000	-1.000000	-1.000000	-1.000000	-1.000000	-1.000000	138.827586	0.000000	-1.000000	-1.000000	557962.000000	1772919146.012685
-2318.175000	24748.425000	-20406.510000	-14611.590000	0.000000	0.000000	0.000000	0.000000	-77.030138	-2.327178	-39.588784	9.924387	-0.000000	0.000000	0.000000	-0.000000	22.615320	-9.552760	1.144500	-0.038269	0.791441	0.593321	-1.000000	-1.000000	-1.000000	-1.000000	-1.000000	-1.000000	-1.000000	138.827586	0.000000	-1.000000	-1.000000	557963.000000	1772919146.012688
-2362.185000	24795.000000	-20245.005000	-14591.610000	0.000000	0.000000	0.000000	0.000000	-28.875423	41.795404	20.162938	78.130801	-0.000000	0.000000	0.000000	-0.000000	22.615320	-9.552760	1.144500	-0.038269	0.791441	0.593321	-1.000000	-1.000000	-1.000000	-1.000000	-1.000000	-1.000000	-1.000000	138.827586	0.000000	-1.000000	-1.000000	557964.000000	1772919146.015003
-2229.255000	24854.310000	-20093.580000	-14492.520000	0.000000	0.000000	0.000000	0.000000	17.833813	70.203613	74.917840	103.095276	-0.000000	0.000000	0.000000	-0.000000	22.615320	-9.552760	1.144500	-0.038269	0.791441	0.593321	-1.000000	-1.000000	-1.000000	-1.000000	-1.000000	-1.000000	-1.000000	138.827586	0.000000	-1.000000	-1.000000	557965.000000	1772919146.015006
-2234.655000	24755.940000	-20223.450000	-14594.085000	0.000000	0.000000	0.000000	0.000000	56.833165	66.375938	123.561987	85.953602	-0.000000	0.000000	0.000000	-0.000000	9.461200	-13.535620	1.190280	-0.041077	0.850462	0.596617	-1.000000	-1.000000	-1.000000	-1.000000	-1.000000	-1.000000	-1.000000	138.827586	0.000000	-1.000000	-1.000000	557966.000000	1772919146.019170
-2422.395000	24683.625000	-20440.170000	-14752.035000	0.000000	0.000000	0.000000	0.000000	79.228012	26.553833	133.966345	38.089633	-0.000000	0.000000	0.000000	-0.000000	9.461200	-13.535620	1.190280	-0.041077	0.850462	0.596617	-1.000000	-1.000000	-1.000000	-1.000000	-1.000000	-1.000000	-1.000000	138.827586	0.000000	-1.000000	-1.000000	557967.000000	1772919146.019173
-2377.980000	24675.705000	-20363.445000	-14658.075000	0.000000	0.000000	0.000000	0.000000	68.988204	-33.601871	81.693265	-24.173847	-0.000000	0.000000	0.000000	-0.000000	9.461200	-13.535620	1.190280	-0.041077	0.850462	0.596617	-1.000000	-1.000000	-1.000000	-1.000000	-1.000000	-1.000000	-1.000000	138.827586	0.000000	-1.000000	-1.000000	557968.000000	1772919146.023042
-2118.105000	24717.510000	-20117.430000	-14480.235000	0.000000	0.000000	0.000000	0.000000	35.881410	-80.404144	0.769874	-65.968051	-0.000000	0.000000	0.000000	-0.000000	9.461200	-13.535620	1.190280	-0.041077	0.850462	0.596617	-1.000000	-1.000000	-1.000000	-1.000000	-1.000000	-1.000000	-1.000000	138.827586	0.000000	-1.000000	-1.000000	557969.000000	1772919146.023044
-2018.160000	24745.365000	-19932.390000	-14408.505000	0.000000	0.000000	0.000000	0.000000	16.912086	-84.915384	-42.345314	-55.196728	-0.000000	0.000000	0.000000	-0.000000	9.461200	-13.535620	1.190280	-0.041077	0.850462	0.596617	-1.000000	-1.000000	-1.000000	-1.000000	-1.000000	-1.000000	-1.000000	138.827586	0.000000	-1.000000	-1.000000	557970.000000	1772919146.027066
-2149.605000	24812.685000	-19909.845000	-14504.220000	0.000000	0.000000	0.000000	0.000000	22.851206	-45.609912	-23.951280	-4.427129	-0.000000	0.000000	0.000000	-0.000000	9.461200	-13.535620	1.190280	-0.041077	0.850462	0.596617	-1.000000	-1.000000	-1.000000	-1.000000	-1.000000	-1.000000	-1.000000	138.827586	0.000000	-1.000000	-1.000000	557971.000000	1772919146.027069
-2399.445000	24921.360000	-20049.255000	-14696.955000	0.000000	0.000000	0.000000	0.000000	17.598139	14.811474	13.381206	33.957176	-0.000000	0.000000	0.000000	-0.000000	9.461200	-13.535620	1.190280	-0.041077	0.850462	0.596617	-1.000000	-1.000000	-1.000000	-1.000000	-1.000000	-1.000000	-1.000000	138.827586	0.000000	-1.000000	-1.000000	557972.000000	1772919146.033386
-2369.385000	24973.695000	-20096.640000	-14646.510000	0.000000	0.000000	0.000000	0.000000	-28.221278	67.351818	12.877122	23.269832	-0.000000	0.000000	0.000000	-0.000000	9.461200	-13.535620	1.190280	-0.041077	0.850462	0.596617	-1.000000	-1.000000	-1.000000	-1.000000	-1.000000	-1.000000	-1.000000	138.827586	0.000000	-1.000000	-1.000000	557973.000000	1772919146.033390
-2365.515000	25073.910000	-20372.040000	-14813.595000	0.000000	0.000000	0.000000	0.000000	-88.345199	90.191321	-39.705796	-21.401823	-0.000000	0.000000	0.000000	-0.000000	9.461200	-13.535620	1.190280	-0.041077	0.850462	0.596617	-1.000000	-1.000000	-1.000000	-1.000000	-1.000000	-1.000000	-1.000000	138.827586	0.000000	-1.000000	-1.000000	557974.000000	1772919146.035079
-2538.630000	25078.770000	-20623.410000	-15036.480000	0.000000	0.000000	0.000000	0.000000	-113.330705	75.974560	-115.524432	-63.634344	-0.000000	0.000000	0.000000	-0.000000	9.461200	-13.535620	1.190280	-0.041077	0.850462	0.596617	-1.000000	-1.000000	-1.000000	-1.000000	-1.000000	-1.000000	-1.000000	138.827586	0.000000	-1.000000	-1.000000	557975.000000	1772919146.035082
-2495.205000	24988.320000	-20481.480000	-14896.620000	0.000000	0.000000	0.000000	0.000000	-87.477871	30.066132	-165.074540	-79.102757	-0.000000	0.000000	0.000000	-0.000000	5.112100	-21.089320	10.804080	-0.057068	0.877622	0.625120	-1.000000	-1.000000	-1.000000	-1.000000	-1.000000	-1.000000	-1.000000	138.827586	0.000000	-1.000000	-1.000000	557976.000000	1772919146.039104
-2284.830000	24981.705000	-20410.425000	-14693.940000	0.000000	0.000000	0.000000	0.000000	-23.471477	-33.130430	-137.598302	-47.578221	-0.000000	0.000000	0.000000	-0.000000	5.112100	-21.089320	10.804080	-0.057068	0.877622	0.625120	-1.000000	-1.000000	-1.000000	-1.000000	-1.000000	-1.000000	-1.000000	138.827586	0.000000	-1.000000	-1.000000	557977.000000	1772919146.039107
-2187.630000	24934.140000	-20210.175000	-14485.680000	0.000000	0.000000	0.000000	0.000000	61.222932	-88.800802	-22.010673	36.913486	-0.000000	0.000000	0.000000	-0.000000	5.112100	-21.089320	10.804080	-0.057068	0.877622	0.625120	-1.000000	-1.000000	-1.000000	-1.000000	-1.000000	-1.000000	-1.000000	138.827586	0.000000	-1.000000	-1.000000	557978.000000	1772919146.043124
-2053.665000	24979.995000	-20005.110000	-14372.685000	0.000000	0.000000	0.000000	0.000000	137.091388	-110.410711	132.452170	138.678730	-0.000000	0.000000	0.000000	-0.000000	5.112100	-21.089320	10.804080	-0.057068	0.877622	0.625120	-1.000000	-1.000000	-1.000000	-1.000000	-1.000000	-1.000000	-1.000000	138.827586	0.000000	-1.000000	-1.000000	557979.000000	1772919146.043127
-2068.020000	25022.430000	-20050.605000	-14444.820000	0.000000	0.000000	0.000000	0.000000	165.713844	-85.977659	246.409902	192.930580	-0.000000	0.000000	0.000000	-0.000000	5.112100	-21.089320	10.804080	-0.057068	0.877622	0.625120	-1.000000	-1.000000	-1.000000	-1.000000	-1.000000	-1.000000	-1.000000	138.827586	0.000000	-1.000000	-1.000000	557980.000000	1772919146.047073
-1994.760000	24970.635000	-20022.525000	-14372.505000	0.000000	0.000000	0.000000	0.000000	126.731124	-27.729236	255.610837	155.121396	-0.000000	0.000000	0.000000	-0.000000	5.112100	-21.089320	10.804080	-0.057068	0.877622	0.625120	-1.000000	-1.000000	-1.000000	-1.000000	-1.000000	-1.000000	-1.000000	138.827586	0.000000	-1.000000	-1.000000	557981.000000	1772919146.047075
-2109.465000	24916.950000	-20153.925000	-14418.720000	0.000000	0.000000	0.000000	0.000000	34.058611	31.748743	150.210568	39.970482	-0.000000	0.000000	0.000000	-0.000000	5.112100	-21.089320	10.804080	-0.057068	0.877622	0.625120	-1.000000	-1.000000	-1.000000	-1.000000	-1.000000	-1.000000	-1.000000	138.827586	0.000000	-1.000000	-1.000000	557982.000000	1772919146.051043
-2294.055000	24902.730000	-20389.140000	-14723.235000	0.000000	0.000000	0.000000	0.000000	-77.044332	62.778810	-21.732134	-97.330325	-0.000000	0.000000	0.000000	-0.000000	5.112100	-21.089320	10.804080	-0.057068	0.877622	0.625120	-1.000000	-1.000000	-1.000000	-1.000000	-1.000000	-1.000000	-1.000000	138.827586	0.000000	-1.000000	-1.000000	557983.000000	1772919146.051046
-2503.485000	24893.685000	-20588.895000	-15053.850000	0.000000	0.000000	0.000000	0.000000	-170.957445	60.318261	-188.288943	-210.203742	-0.000000	0.000000	0.000000	-0.000000	5.112100	-21.089320	10.804080	-0.057068	0.877622	0.625120	-1.000000	-1.000000	-1.000000	-1.000000	-1.000000	-1.000000	-1.000000	138.827586	0.000000	-1.000000	-1.000000	557984.000000	1772919146.057605
-2473.470000	24953.895000	-20507.670000	-14961.870000	0.000000	0.000000	0.000000	0.000000	-214.553374	40.806249	-280.222959	-264.594974	-0.000000	0.000000	0.000000	-0.000000	5.112100	-21.089320	10.804080	-0.057068	0.877622	0.625120	-1.000000	-1.000000	-1.000000	-1.000000	-1.000000	-1.000000	-1.000000	138.827586	0.000000	-1.000000	-1.000000	557985.000000	1772919146.057608
-2375.010000	24951.330000	-20408.805000	-14730.570000	0.000000	0.000000	0.000000	0.000000	-179.050826	23.524850	-250.885415	-220.885827	-0.000000	0.000000	0.000000	-0.000000	8.011500	-30.046940	21.074060	-0.071289	0.859617	0.618956	-1.000000	-1.000000	-1.000000	-1.000000	-1.000000	-1.000000	-1.000000	138.827586	0.000000	-1.000000	-1.000000	557986.000000	1772919146.073593
-2396.115000	24846.075000	-20414.385000	-14623.470000	0.000000	0.000000	0.000000	0.000000	-65.736690	13.178210	-109.931625	-68.145002	-0.000000	0.000000	0.000000	-0.000000	8.011500	-30.046940	21.074060	-0.071289	0.859617	0.618956	-1.000000	-1.000000	-1.000000	-1.000000	-1.000000	-1.000000	-1.000000	138.827586	0.000000	-1.000000	-1.000000	557987.000000	1772919146.073596
-2153.880000	24868.620000	-20141.370000	-14362.245000	0.000000	0.000000	0.000000	0.000000	79.456429	1.417843	72.900499	134.512207	-0.000000	0.000000	0.000000	-0.000000	8.011500	-30.046940	21.074060	-0.071289	0.859617	0.618956	-1.000000	-1.000000	-1.000000	-1.000000	-1.000000	-1.000000	-1.000000	138.827586	0.000000	-1.000000	-1.000000	557988.000000	1772919146.073600
-1953.810000	24923.160000	-20047.770000	-14427.720000	0.000000	0.000000	0.000000	0.000000	198.179508	-12.383348	217.038923	286.761524	-0.000000	0.000000	0.000000	-0.000000	8.011500	-30.046940	21.074060	-0.071289	0.859617	0.618956	-1.000000	-1.000000	-1.000000	-1.000000	-1.000000	-1.000000	-1.000000	138.827586	0.000000	-1.000000	-1.000000	557989.000000	1772919146.073602
-2148.165000	24989.040000	-20349.045000	-14711.760000	0.000000	0.000000	0.000000	0.000000	245.449125	-16.266031	263.634733	305.535300	-0.000000	0.000000	0.000000	-0.000000	8.011500	-30.046940	21.074060	-0.071289	0.859617	0.618956	-1.000000	-1.000000	-1.000000	-1.000000	-1.000000	-1.000000	-1.000000	138.827586	0.000000	-1.000000	-1.000000	557990.000000	1772919146.074083
-2452.680000	25058.655000	-20562.930000	-14743.170000	0.000000	0.000000	0.000000	0.000000	188.020147	-3.718225	183.560032	173.993964	-0.000000	0.000000	0.000000	-0.000000	8.011500	-30.046940	21.074060	-0.071289	0.859617	0.618956	-1.000000	-1.000000	-1.000000	-1.000000	-1.000000	-1.000000	-1.000000	138.827586	0.000000	-1.000000	-1.000000	557991.000000	1772919146.074086
-2597.805000	24921.450000	-20610.765000	-14841.990000	0.000000	0.000000	0.000000	0.000000	32.422033	13.524312	10.508599	-33.809988	-0.000000	0.000000	0.000000	-0.000000	8.011500	-30.046940	21.074060	-0.071289	0.859617	0.618956	-1.000000	-1.000000	-1.000000	-1.000000	-1.000000	-1.000000	-1.000000	138.827586	0.000000	-1.000000	-1.000000	557992.000000	1772919146.074089
-2611.440000	24807.915000	-20567.205000	-14987.475000	0.000000	0.000000	0.000000	0.000000	-145.428573	11.988659	-155.315064	-203.417118	-0.000000	0.000000	0.000000	-0.000000	8.011500	-30.046940	21.074060	-0.071289	0.859617	0.618956	-1.000000	-1.000000	-1.000000	-1.000000	-1.000000	-1.000000	-1.000000	138.827586	0.000000	-1.000000	-1.000000	557993.000000	1772919146.074092
-2479.455000	24678.000000	-20521.665000	-15040.530000	0.000000	0.000000	0.000000	0.000000	-240.644019	-18.984484	-218.202933	-262.652717	-0.000000	0.000000	0.000000	-0.000000	8.011500	-30.046940	21.074060	-0.071289	0.859617	0.618956	-1.000000	-1.000000	-1.000000	-1.000000	-1.000000	-1.000000	-1.000000	138.827586	0.000000	-1.000000	-1.000000	557994.000000	1772919146.075289
-2322.090000	24633.270000	-20352.600000	-14830.830000	0.000000	0.000000	0.000000	0.000000	-197.382989	-60.753572	-154.919593	-202.804082	-0.000000	0.000000	0.000000	-0.000000	8.011500	-30.046940	21.074060	-0.071289	0.859617	0.618956	-1.000000	-1.000000	-1.000000	-1.000000	-1.000000	-1.000000	-1.000000	138.827586	0.000000	-1.000000	-1.000000	557995.000000	1772919146.075291
-2015.370000	24639.075000	-20057.130000	-14477.220000	0.000000	0.000000	0.000000	0.000000	-43.657188	-79.200946	-11.841021	-53.327335	-0.000000	0.000000	0.000000	-0.000000	59.926020	-30.016420	21.898100	-0.009094	0.831907	0.641417	-1.000000	-1.000000	-1.000000	-1.000000	-1.000000	-1.000000	-1.000000	138.827586	0.000000	-1.000000	-1.000000	557996.000000	1772919146.080757
-1924.155000	24663.060000	-20010.015000	-14392.215000	0.000000	0.000000	0.000000	0.000000	134.130087	-53.049935	134.554602	127.089498	-0.000000	0.000000	0.000000	-0.000000	59.926020	-30.016420	21.898100	-0.009094	0.831907	0.641417	-1.000000	-1.000000	-1.000000	-1.000000	-1.000000	-1.000000	-1.000000	138.827586	0.000000	-1.000000	-1.000000	557997.000000	1772919146.080760
-2191.590000	24709.860000	-20255.670000	-14561.865000	0.000000	0.000000	0.000000	0.000000	234.773793	9.308912	204.396332	249.342176	-0.000000	0.000000	0.000000	-0.000000	59.926020	-30.016420	21.898100	-0.009094	0.831907	0.641417	-1.000000	-1.000000	-1.000000	-1.000000	-1.000000	-1.000000	-1.000000	138.827586	0.000000	-1.000000	-1.000000	557998.000000	1772919146.083146
-2287.890000	24767.685000	-20300.490000	-14513.490000	0.000000	0.000000	0.000000	0.000000	193.545264	76.977115	150.881444	239.982334	-0.000000	0.000000	0.000000	-0.000000	59.926020	-30.016420	21.898100	-0.009094	0.831907	0.641417	-1.000000	-1.000000	-1.000000	-1.000000	-1.000000	-1.000000	-1.000000	138.827586	0.000000	-1.000000	-1.000000	557999.000000	1772919146.083149
-2448.045000	24712.110000	-20536.245000	-14866.290000	0.000000	0.000000	0.000000	0.000000	33.980099	115.989828	2.639659	103.038581	-0.000000	0.000000	0.000000	-0.000000	59.926020	-30.016420	21.898100	-0.009094	0.831907	0.641417	-1.000000	-1.000000	-1.000000	-1.000000	-1.000000	-1.000000	-1.000000	138.827586	0.000000	-1.000000	-1.000000	558000.000000	1772919146.087276
-2366.595000	24784.785000	-20504.340000	-14982.345000	0.000000	0.000000	0.000000	0.000000	-141.852268	107.330850	-151.716960	-87.823719	-0.000000	0.000000	0.000000	-0.000000	59.926020	-30.016420	21.898100	-0.009094	0.831907	0.641417	-1.000000	-1.000000	-1.000000	-1.000000	-1.000000	-1.000000	-1.000000	138.827586	0.000000	-1.000000	-1.000000	558001.000000	1772919146.087279
-2354.265000	24915.060000	-20481.210000	-14925.015000	0.000000	0.000000	0.000000	0.000000	-228.694880	61.226249	-224.172844	-235.292848	-0.000000	0.000000	0.000000	-0.000000	59.926020	-30.016420	21.898100	-0.009094	0.831907	0.641417	-1.000000	-1.000000	-1.000000	-1.000000	-1.000000	-1.000000	-1.000000	138.827586	0.000000	-1.000000	-1.000000	558002.000000	1772919146.091898
-2326.005000	24958.485000	-20433.015000	-14913.630000	0.000000	0.000000	0.000000	0.000000	-188.629863	8.528856	-178.951275	-262.287549	-0.000000	0.000000	0.000000	-0.000000	59.926020	-30.016420	21.898100	-0.009094	0.831907	0.641417	-1.000000	-1.000000	-1.000000	-1.000000	-1.000000	-1.000000	-1.000000	138.827586	0.000000	-1.000000	-1.000000	558003.000000	1772919146.091901
-2239.515000	24951.555000	-20196.540000	-14593.095000	0.000000	0.000000	0.000000	0.000000	-62.612746	-30.028094	-46.469359	-155.561342	-0.000000	0.000000	0.000000	-0.000000	59.926020	-30.016420	21.898100	-0.009094	0.831907	0.641417	-1.000000	-1.000000	-1.000000	-1.000000	-1.000000	-1.000000	-1.000000	138.827586	0.000000	-1.000000	-1.000000	558004.000000	1772919146.095313
-2137.590000	24951.960000	-20090.610000	-14464.080000	0.000000	0.000000	0.000000	0.000000	74.957430	-54.794205	106.024449	29.499947	-0.000000	0.000000	0.000000	-0.000000	59.926020	-30.016420	21.898100	-0.009094	0.831907	0.641417	-1.000000	-1.000000	-1.000000	-1.000000	-1.000000	-1.000000	-1.000000	138.827586	0.000000	-1.000000	-1.000000	558005.000000	1772919146.095316
-1916.820000	25064.730000	-20018.475000	-14460.300000	0.000000	0.000000	0.000000	0.000000	166.789849	-68.714911	209.254045	198.144372	-0.000000	0.000000	0.000000	-0.000000	64.366680	-41.125700	60.277000	-0.025940	0.883726	0.627989	-1.000000	-1.000000	-1.000000	-1.000000	-1.000000	-1.000000	-1.000000	138.827586	0.000000	-1.000000	-1.000000	558006.000000	1772919146.099233
-2221.380000	25028.505000	-20453.265000	-14844.780000	0.000000	0.000000	0.000000	0.000000	184.151164	-67.408591	210.169153	255.406922	-0.000000	0.000000	0.000000	-0.000000	64.366680	-41.125700	60.277000	-0.025940	0.883726	0.627989	-1.000000	-1.000000	-1.000000	-1.000000	-1.000000	-1.000000	-1.000000	138.827586	0.000000	-1.000000	-1.000000	558007.000000	1772919146.099236
-2460.510000	24977.745000	-20490.480000	-14986.080000	0.000000	0.000000	0.000000	0.000000	113.946949	-52.562904	96.667008	162.142687	-0.000000	0.000000	0.000000	-0.000000	64.366680	-41.125700	60.277000	-0.025940	0.883726	0.627989	-1.000000	-1.000000	-1.000000	-1.000000	-1.000000	-1.000000	-1.000000	138.827586	0.000000	-1.000000	-1.000000	558008.000000	1772919146.103290
-2379.915000	25036.155000	-20292.165000	-14898.645000	0.000000	0.000000	0.000000	0.000000	-20.153250	-34.170563	-67.416252	-20.739434	-0.000000	0.000000	0.000000	-0.000000	64.366680	-41.125700	60.277000	-0.025940	0.883726	0.627989	-1.000000	-1.000000	-1.000000	-1.000000	-1.000000	-1.000000	-1.000000	138.827586	0.000000	-1.000000	-1.000000	558009.000000	1772919146.103293
-2411.505000	25135.380000	-20331.855000	-14900.670000	0.000000	0.000000	0.000000	0.000000	-140.203353	-13.909827	-172.898020	-168.279833	-0.000000	0.000000	0.000000	-0.000000	64.366680	-41.125700	60.277000	-0.025940	0.883726	0.627989	-1.000000	-1.000000	-1.000000	-1.000000	-1.000000	-1.000000	-1.000000	138.827586	0.000000	-1.000000	-1.000000	558010.000000	1772919146.107338
-2261.160000	25101.045000	-20506.320000	-14765.895000	0.000000	0.000000	0.000000	0.000000	-171.157877	11.822231	-168.679746	-193.873178	-0.000000	0.000000	0.000000	-0.000000	64.366680	-41.125700	60.277000	-0.025940	0.883726	0.627989	-1.000000	-1.000000	-1.000000	-1.000000	-1.000000	-1.000000	-1.000000	138.827586	0.000000	-1.000000	-1.000000	558011.000000	1772919146.107341
-1958.715000	25024.545000	-20195.550000	-14465.970000	0.000000	0.000000	0.000000	0.000000	-97.623646	33.373128	-88.610925	-99.589653	-0.000000	0.000000	0.000000	-0.000000	64.366680	-41.125700	60.277000	-0.025940	0.883726	0.627989	-1.000000	-1.000000	-1.000000	-1.000000	-1.000000	-1.000000	-1.000000	138.827586	0.000000	-1.000000	-1.000000	558012.000000	1772919146.111461
-1820.295000	25034.580000	-19919.790000	-14355.405000	0.000000	0.000000	0.000000	0.000000	37.936542	35.044379	20.498773	50.766952	-0.000000	0.000000	0.000000	-0.000000	64.366680	-41.125700	60.277000	-0.025940	0.883726	0.627989	-1.000000	-1.000000	-1.000000	-1.000000	-1.000000	-1.000000	-1.000000	138.827586	0.000000	-1.000000	-1.000000	558013.000000	1772919146.111463
-1886.625000	24960.645000	-19976.490000	-14465.790000	0.000000	0.000000	0.000000	0.000000	155.844305	16.881593	122.724360	167.486474	-0.000000	0.000000	0.000000	-0.000000	64.366680	-41.125700	60.277000	-0.025940	0.883726	0.627989	-1.000000	-1.000000	-1.000000	-1.000000	-1.000000	-1.000000	-1.000000	138.827586	0.000000	-1.000000	-1.000000	558014.000000	1772919146.115295
-2100.015000	24887.835000	-20172.915000	-14576.085000	0.000000	0.000000	0.000000	0.000000	177.382578	-7.593791	165.580305	177.184919	-0.000000	0.000000	0.000000	-0.000000	64.366680	-41.125700	60.277000	-0.025940	0.883726	0.627989	-1.000000	-1.000000	-1.000000	-1.000000	-1.000000	-1.000000	-1.000000	138.827586	0.000000	-1.000000	-1.000000	558015.000000	1772919146.115298
-2389.365000	24815.385000	-20484.855000	-14833.350000	0.000000	0.000000	0.000000	0.000000	78.206858	-26.104309	105.821706	71.221724	-0.000000	0.000000	0.000000	-0.000000	51.746660	-63.817320	92.658720	-0.066345	0.943967	0.646971	-1.000000	-1.000000	-1.000000	-1.000000	-1.000000	-1.000000	-1.000000	138.827586	0.000000	-1.000000	-1.000000	558016.000000	1772919146.119317
-2362.455000	24695.910000	-20530.530000	-14936.310000	0.000000	0.000000	0.000000	0.000000	-85.616351	-32.583324	-34.404509	-88.338071	-0.000000	0.000000	0.000000	-0.000000	51.746660	-63.817320	92.658720	-0.066345	0.943967	0.646971	-1.000000	-1.000000	-1.000000	-1.000000	-1.000000	-1.000000	-1.000000	138.827586	0.000000	-1.000000	-1.000000	558017.000000	1772919146.119320
-2362.275000	24693.345000	-20584.080000	-14992.605000	0.000000	0.000000	0.000000	0.000000	-208.137267	-25.740039	-167.186885	-209.384237	-0.000000	0.000000	0.000000	-0.000000	51.746660	-63.817320	92.658720	-0.066345	0.943967	0.646971	-1.000000	-1.000000	-1.000000	-1.000000	-1.000000	-1.000000	-1.000000	138.827586	0.000000	-1.000000	-1.000000	558018.000000	1772919146.123379
-2355.255000	24730.065000	-20666.295000	-14929.290000	0.000000	0.000000	0.000000	0.000000	-212.026286	-4.432150	-207.913529	-223.566590	-0.000000	0.000000	0.000000	-0.000000	51.746660	-63.817320	92.658720	-0.066345	0.943967	0.646971	-1.000000	-1.000000	-1.000000	-1.000000	-1.000000	-1.000000	-1.000000	138.827586	0.000000	-1.000000	-1.000000	558019.000000	1772919146.123382
-2243.295000	24760.620000	-20385.180000	-14703.435000	0.000000	0.000000	0.000000	0.000000	-102.787877	30.196209	-135.030761	-121.363593	-0.000000	0.000000	0.000000	-0.000000	51.746660	-63.817320	92.658720	-0.066345	0.943967	0.646971	-1.000000	-1.000000	-1.000000	-1.000000	-1.000000	-1.000000	-1.000000	138.827586	0.000000	-1.000000	-1.000000	558020.000000	1772919146.127330
-2321.055000	24773.580000	-20266.470000	-14593.905000	0.000000	0.000000	0.000000	0.000000	49.735356	66.074575	14.575834	47.993190	-0.000000	0.000000	0.000000	-0.000000	51.746660	-63.817320	92.658720	-0.066345	0.943967	0.646971	-1.000000	-1.000000	-1.000000	-1.000000	-1.000000	-1.000000	-1.000000	138.827586	0.000000	-1.000000	-1.000000	558021.000000	1772919146.127333
-2181.555000	24749.775000	-20199.780000	-14569.695000	0.000000	0.000000	0.000000	0.000000	165.115292	83.221714	168.587574	199.673594	-0.000000	0.000000	0.000000	-0.000000	51.746660	-63.817320	92.658720	-0.066345	0.943967	0.646971	-1.000000	-1.000000	-1.000000	-1.000000	-1.000000	-1.000000	-1.000000	138.827586	0.000000	-1.000000	-1.000000	558022.000000	1772919146.131275
-2245.140000	24753.240000	-20472.930000	-14653.305000	0.000000	0.000000	0.000000	0.000000	198.479663	68.843682	242.689782	254.748675	-0.000000	0.000000	0.000000	-0.000000	51.746660	-63.817320	92.658720	-0.066345	0.943967	0.646971	-1.000000	-1.000000	-1.000000	-1.000000	-1.000000	-1.000000	-1.000000	138.827586	0.000000	-1.000000	-1.000000	558023.000000	1772919146.131278
-2434.815000	24761.520000	-20665.800000	-14793.615000	0.000000	0.000000	0.000000	0.000000	148.179439	28.576974	186.720223	185.851725	-0.000000	0.000000	0.000000	-0.000000	51.746660	-63.817320	92.658720	-0.066345	0.943967	0.646971	-1.000000	-1.000000	-1.000000	-1.000000	-1.000000	-1.000000	-1.000000	138.827586	0.000000	-1.000000	-1.000000	558024.000000	1772919146.135389
-2353.095000	24670.395000	-20626.065000	-14744.925000	0.000000	0.000000	0.000000	0.000000	43.041850	-19.320270	31.212109	34.992573	-0.000000	0.000000	0.000000	-0.000000	51.746660	-63.817320	92.658720	-0.066345	0.943967	0.646971	-1.000000	-1.000000	-1.000000	-1.000000	-1.000000	-1.000000	-1.000000	138.827586	0.000000	-1.000000	-1.000000	558025.000000	1772919146.135394
-2322.810000	24623.460000	-20655.045000	-14609.880000	0.000000	0.000000	0.000000	0.000000	-61.327186	-58.911851	-124.005261	-109.092256	-0.000000	0.000000	0.000000	-0.000000	-91.468440	-54.340860	102.669280	-0.050720	0.927366	0.595885	-1.000000	-1.000000	-1.000000	-1.000000	-1.000000	-1.000000	-1.000000	138.827586	0.000000	-1.000000	-1.000000	558026.000000	1772919146.139507
-2296.575000	24620.085000	-20543.625000	-14514.705000	0.000000	0.000000	0.000000	0.000000	-111.814749	-79.520391	-188.124921	-168.843853	-0.000000	0.000000	0.000000	-0.000000	-91.468440	-54.340860	102.669280	-0.050720	0.927366	0.595885	-1.000000	-1.000000	-1.000000	-1.000000	-1.000000	-1.000000	-1.000000	138.827586	0.000000	-1.000000	-1.000000	558027.000000	1772919146.139510
-2113.920000	24561.450000	-20422.350000	-14666.580000	0.000000	0.000000	0.000000	0.000000	-94.478631	-74.205503	-139.666253	-134.489611	-0.000000	0.000000	0.000000	-0.000000	-91.468440	-54.340860	102.669280	-0.050720	0.927366	0.595885	-1.000000	-1.000000	-1.000000	-1.000000	-1.000000	-1.000000	-1.000000	138.827586	0.000000	-1.000000	-1.000000	558028.000000	1772919146.143500
-2119.050000	24463.485000	-20320.785000	-14570.505000	0.000000	0.000000	0.000000	0.000000	-32.929581	-47.518782	-22.216754	-58.684922	-0.000000	0.000000	0.000000	-0.000000	-91.468440	-54.340860	102.669280	-0.050720	0.927366	0.595885	-1.000000	-1.000000	-1.000000	-1.000000	-1.000000	-1.000000	-1.000000	138.827586	0.000000	-1.000000	-1.000000	558029.000000	1772919146.143502
-2327.085000	24355.080000	-20386.170000	-14544.810000	0.000000	0.000000	0.000000	0.000000	25.665410	-16.077823	89.855860	5.825162	-0.000000	0.000000	0.000000	-0.000000	-91.468440	-54.340860	102.669280	-0.050720	0.927366	0.595885	-1.000000	-1.000000	-1.000000	-1.000000	-1.000000	-1.000000	-1.000000	138.827586	0.000000	-1.000000	-1.000000	558030.000000	1772919146.147425
-2393.595000	24344.460000	-20523.465000	-14586.840000	0.000000	0.000000	0.000000	0.000000	35.895474	6.903135	131.380814	40.066858	-0.000000	0.000000	0.000000	-0.000000	-91.468440	-54.340860	102.669280	-0.050720	0.927366	0.595885	-1.000000	-1.000000	-1.000000	-1.000000	-1.000000	-1.000000	-1.000000	138.827586	0.000000	-1.000000	-1.000000	558031.000000	1772919146.147428
-2424.015000	24305.400000	-20641.815000	-14689.890000	0.000000	0.000000	0.000000	0.000000	-4.172490	22.174571	82.727147	42.386052	-0.000000	0.000000	0.000000	-0.000000	-91.468440	-54.340860	102.669280	-0.050720	0.927366	0.595885	-1.000000	-1.000000	-1.000000	-1.000000	-1.000000	-1.000000	-1.000000	138.827586	0.000000	-1.000000	-1.000000	558032.000000	1772919146.151451
-2429.280000	24196.905000	-20687.985000	-14758.920000	0.000000	0.000000	0.000000	0.000000	-51.391419	34.076107	-18.229322	18.030557	-0.000000	0.000000	0.000000	-0.000000	-91.468440	-54.340860	102.669280	-0.050720	0.927366	0.595885	-1.000000	-1.000000	-1.000000	-1.000000	-1.000000	-1.000000	-1.000000	138.827586	0.000000	-1.000000	-1.000000	558033.000000	1772919146.151453
-2141.055000	24302.385000	-20468.520000	-14515.110000	0.000000	0.000000	0.000000	0.000000	-58.295044	41.974444	-99.706583	-10.932830	-0.000000	0.000000	0.000000	-0.000000	-91.468440	-54.340860	102.669280	-0.050720	0.927366	0.595885	-1.000000	-1.000000	-1.000000	-1.000000	-1.000000	-1.000000	-1.000000	138.827586	0.000000	-1.000000	-1.000000	558034.000000	1772919146.156883
-2161.710000	24291.135000	-20439.225000	-14487.480000	0.000000	0.000000	0.000000	0.000000	-8.986854	47.373678	-105.017574	-12.487215	-0.000000	0.000000	0.000000	-0.000000	-91.468440	-54.340860	102.669280	-0.050720	0.927366	0.595885	-1.000000	-1.000000	-1.000000	-1.000000	-1.000000	-1.000000	-1.000000	138.827586	0.000000	-1.000000	-1.000000	558035.000000	1772919146.156886
-2262.330000	24254.595000	-20454.930000	-14601.285000	0.000000	0.000000	0.000000	0.000000	61.371172	49.899948	-38.737477	16.302972	-0.000000	0.000000	0.000000	-0.000000	-111.871060	-21.547120	-28.810880	0.079284	0.737242	0.507140	-1.000000	-1.000000	-1.000000	-1.000000	-1.000000	-1.000000	-1.000000	138.827586	0.000000	-1.000000	-1.000000	558036.000000	1772919146.159704
-2265.660000	24266.430000	-20415.465000	-14596.245000	0.000000	0.000000	0.000000	0.000000	93.368748	41.368795	41.706862	40.240430	-0.000000	0.000000	0.000000	-0.000000	-111.871060	-21.547120	-28.810880	0.079284	0.737242	0.507140	-1.000000	-1.000000	-1.000000	-1.000000	-1.000000	-1.000000	-1.000000	138.827586	0.000000	-1.000000	-1.000000	558037.000000	1772919146.159706
-2450.160000	24370.875000	-20557.620000	-14732.505000	0.000000	0.000000	0.000000	0.000000	61.407155	20.636012	81.248810	30.844084	-0.000000	0.000000	0.000000	-0.000000	-111.871060	-21.547120	-28.810880	0.079284	0.737242	0.507140	-1.000000	-1.000000	-1.000000	-1.000000	-1.000000	-1.000000	-1.000000	138.827586	0.000000	-1.000000	-1.000000	558038.000000	1772919146.166133
-2352.735000	24409.080000	-20440.845000	-14709.555000	0.000000	0.000000	0.000000	0.000000	-9.350149	-0.192011	64.419233	-5.942411	-0.000000	0.000000	0.000000	-0.000000	-111.871060	-21.547120	-28.810880	0.079284	0.737242	0.507140	-1.000000	-1.000000	-1.000000	-1.000000	-1.000000	-1.000000	-1.000000	138.827586	0.000000	-1.000000	-1.000000	558039.000000	1772919146.166135
-2388.960000	24378.120000	-20525.985000	-14727.780000	0.000000	0.000000	0.000000	0.000000	-68.477060	-13.344157	15.652810	-41.478559	-0.000000	0.000000	0.000000	-0.000000	-111.871060	-21.547120	-28.810880	0.079284	0.737242	0.507140	-1.000000	-1.000000	-1.000000	-1.000000	-1.000000	-1.000000	-1.000000	138.827586	0.000000	-1.000000	-1.000000	558040.000000	1772919146.169642
-2429.955000	24387.750000	-20670.930000	-14797.440000	0.000000	0.000000	0.000000	0.000000	-80.871077	-24.022621	-32.129446	-51.123898	-0.000000	0.000000	0.000000	-0.000000	-111.871060	-21.547120	-28.810880	0.079284	0.737242	0.507140	-1.000000	-1.000000	-1.000000	-1.000000	-1.000000	-1.000000	-1.000000	138.827586	0.000000	-1.000000	-1.000000	558041.000000	1772919146.169644
-2435.670000	24361.560000	-20656.890000	-14792.085000	0.000000	0.000000	0.000000	0.000000	-50.746226	-37.233449	-62.863382	-33.357289	-0.000000	0.000000	0.000000	-0.000000	-111.871060	-21.547120	-28.810880	0.079284	0.737242	0.507140	-1.000000	-1.000000	-1.000000	-1.000000	-1.000000	-1.000000	-1.000000	138.827586	0.000000	-1.000000	-1.000000	558042.000000	1772919146.172754
-2320.965000	24380.460000	-20461.230000	-14656.905000	0.000000	0.000000	0.000000	0.000000	-2.261903	-48.549799	-63.948354	0.500548	-0.000000	0.000000	0.000000	-0.000000	-111.871060	-21.547120	-28.810880	0.079284	0.737242	0.507140	-1.000000	-1.000000	-1.000000	-1.000000	-1.000000	-1.000000	-1.000000	138.827586	0.000000	-1.000000	-1.000000	558043.000000	1772919146.172756
-2347.830000	24300.810000	-20529.855000	-14752.530000	0.000000	0.000000	0.000000	0.000000	43.942821	-50.763319	-26.258989	38.229716	-0.000000	0.000000	0.000000	-0.000000	-111.871060	-21.547120	-28.810880	0.079284	0.737242	0.507140	-1.000000	-1.000000	-1.000000	-1.000000	-1.000000	-1.000000	-1.000000	138.827586	0.000000	-1.000000	-1.000000	558044.000000	1772919146.175471
-2366.730000	24254.460000	-20499.255000	-14682.825000	0.000000	0.000000	0.000000	0.000000	69.859153	-43.097733	30.187645	62.337958	-0.000000	0.000000	0.000000	-0.000000	-111.871060	-21.547120	-28.810880	0.079284	0.737242	0.507140	-1.000000	-1.000000	-1.000000	-1.000000	-1.000000	-1.000000	-1.000000	138.827586	0.000000	-1.000000	-1.000000	558045.000000	1772919146.175474
-2226.465000	24255.000000	-20352.960000	-14520.870000	0.000000	0.000000	0.000000	0.000000	65.715764	-28.857426	70.195241	62.830865	-0.000000	0.000000	0.000000	-0.000000	-44.147180	15.046360	-28.246260	0.119629	0.600706	0.448973	-1.000000	-1.000000	-1.000000	-1.000000	-1.000000	-1.000000	-1.000000	138.827586	0.000000	-1.000000	-1.000000	558046.000000	1772919146.179620
-2197.620000	24270.345000	-20301.390000	-14439.420000	0.000000	0.000000	0.000000	0.000000	41.689817	-8.187556	79.563473	49.610001	-0.000000	0.000000	0.000000	-0.000000	-44.147180	15.046360	-28.246260	0.119629	0.600706	0.448973	-1.000000	-1.000000	-1.000000	-1.000000	-1.000000	-1.000000	-1.000000	138.827586	0.000000	-1.000000	-1.000000	558047.000000	1772919146.179623
-2241.360000	24296.085000	-20370.240000	-14494.995000	0.000000	0.000000	0.000000	0.000000	12.878993	18.699675	60.732227	31.082165	-0.000000	0.000000	0.000000	-0.000000	-44.147180	15.046360	-28.246260	0.119629	0.600706	0.448973	-1.000000	-1.000000	-1.000000	-1.000000	-1.000000	-1.000000	-1.000000	138.827586	0.000000	-1.000000	-1.000000	558048.000000	1772919146.183405
-2420.955000	24308.235000	-20547.945000	-14672.565000	0.000000	0.000000	0.000000	0.000000	-20.259525	45.081028	14.107506	-1.968007	-0.000000	0.000000	0.000000	-0.000000	-44.147180	15.046360	-28.246260	0.119629	0.600706	0.448973	-1.000000	-1.000000	-1.000000	-1.000000	-1.000000	-1.000000	-1.000000	138.827586	0.000000	-1.000000	-1.000000	558049.000000	1772919146.183408
-2510.595000	24335.010000	-20538.630000	-14849.865000	0.000000	0.000000	0.000000	0.000000	-61.442122	60.182661	-51.649367	-57.929066	-0.000000	0.000000	0.000000	-0.000000	-44.147180	15.046360	-28.246260	0.119629	0.600706	0.448973	-1.000000	-1.000000	-1.000000	-1.000000	-1.000000	-1.000000	-1.000000	138.827586	0.000000	-1.000000	-1.000000	558050.000000	1772919146.187517
-2639.070000	24396.615000	-20476.755000	-14975.100000	0.000000	0.000000	0.000000	0.000000	-98.944703	57.915653	-103.787234	-120.482624	-0.000000	0.000000	0.000000	-0.000000	-44.147180	15.046360	-28.246260	0.119629	0.600706	0.448973	-1.000000	-1.000000	-1.000000	-1.000000	-1.000000	-1.000000	-1.000000	138.827586	0.000000	-1.000000	-1.000000	558051.000000	1772919146.187519
-2382.975000	24351.435000	-20155.590000	-14795.865000	0.000000	0.000000	0.000000	0.000000	-104.095672	39.893658	-100.440211	-147.969787	-0.000000	0.000000	0.000000	-0.000000	-44.147180	15.046360	-28.246260	0.119629	0.600706	0.448973	-1.000000	-1.000000	-1.000000	-1.000000	-1.000000	-1.000000	-1.000000	138.827586	0.000000	-1.000000	-1.000000	558052.000000	1772919146.191378
-2290.455000	24267.780000	-20145.015000	-14617.080000	0.000000	0.000000	0.000000	0.000000	-51.617620	9.083777	-30.397041	-100.679410	-0.000000	0.000000	0.000000	-0.000000	-44.147180	15.046360	-28.246260	0.119629	0.600706	0.448973	-1.000000	-1.000000	-1.000000	-1.000000	-1.000000	-1.000000	-1.000000	138.827586	0.000000	-1.000000	-1.000000	558053.000000	1772919146.191381
-2064.510000	24280.110000	-20186.235000	-14429.250000	0.000000	0.000000	0.000000	0.000000	48.387663	-28.949960	61.499619	18.125629	-0.000000	0.000000	0.000000	-0.000000	-44.147180	15.046360	-28.246260	0.119629	0.600706	0.448973	-1.000000	-1.000000	-1.000000	-1.000000	-1.000000	-1.000000	-1.000000	138.827586	0.000000	-1.000000	-1.000000	558054.000000	1772919146.195538
-2022.030000	24275.475000	-20044.980000	-14405.805000	0.000000	0.000000	0.000000	0.000000	145.021101	-58.567241	109.812524	148.727361	-0.000000	0.000000	0.000000	-0.000000	-44.147180	15.046360	-28.246260	0.119629	0.600706	0.448973	-1.000000	-1.000000	-1.000000	-1.000000	-1.000000	-1.000000	-1.000000	138.827586	0.000000	-1.000000	-1.000000	558055.000000	1772919146.195540
-2471.670000	24224.895000	-20497.770000	-14732.820000	0.000000	0.000000	0.000000	0.000000	172.214767	-64.133027	83.537146	207.385699	-0.000000	0.000000	0.000000	-0.000000	-85.623860	36.501920	1.449700	0.093628	0.714720	0.483336	-1.000000	-1.000000	-1.000000	-1.000000	-1.000000	-1.000000	-1.000000	138.827586	0.000000	-1.000000	-1.000000	558056.000000	1772919146.199473
-2608.335000	24266.295000	-20635.965000	-14904.945000	0.000000	0.000000	0.000000	0.000000	89.632420	-44.839038	-8.583417	143.391701	-0.000000	0.000000	0.000000	-0.000000	-85.623860	36.501920	1.449700	0.093628	0.714720	0.483336	-1.000000	-1.000000	-1.000000	-1.000000	-1.000000	-1.000000	-1.000000	138.827586	0.000000	-1.000000	-1.000000	558057.000000	1772919146.199475
-2494.755000	24335.460000	-20352.825000	-14772.195000	0.000000	0.000000	0.000000	0.000000	-62.289084	-9.848608	-113.563931	-7.452565	-0.000000	0.000000	0.000000	-0.000000	-85.623860	36.501920	1.449700	0.093628	0.714720	0.483336	-1.000000	-1.000000	-1.000000	-1.000000	-1.000000	-1.000000	-1.000000	138.827586	0.000000	-1.000000	-1.000000	558058.000000	1772919146.203525
-2294.055000	24328.620000	-20277.405000	-14619.735000	0.000000	0.000000	0.000000	0.000000	-171.812766	28.749164	-146.672207	-136.224798	-0.000000	0.000000	0.000000	-0.000000	-85.623860	36.501920	1.449700	0.093628	0.714720	0.483336	-1.000000	-1.000000	-1.000000	-1.000000	-1.000000	-1.000000	-1.000000	138.827586	0.000000	-1.000000	-1.000000	558059.000000	1772919146.203528
-2259.945000	24256.935000	-20474.100000	-14642.640000	0.000000	0.000000	0.000000	0.000000	-159.203409	53.376324	-78.525039	-158.407591	-0.000000	0.000000	0.000000	-0.000000	-85.623860	36.501920	1.449700	0.093628	0.714720	0.483336	-1.000000	-1.000000	-1.000000	-1.000000	-1.000000	-1.000000	-1.000000	138.827586	0.000000	-1.000000	-1.000000	558060.000000	1772919146.207680
-2272.905000	24229.935000	-20376.090000	-14630.400000	0.000000	0.000000	0.000000	0.000000	-49.028687	48.738623	29.178258	-84.655298	-0.000000	0.000000	0.000000	-0.000000	-85.623860	36.501920	1.449700	0.093628	0.714720	0.483336	-1.000000	-1.000000	-1.000000	-1.000000	-1.000000	-1.000000	-1.000000	138.827586	0.000000	-1.000000	-1.000000	558061.000000	1772919146.207683
-2397.465000	24247.710000	-20405.610000	-14694.390000	0.000000	0.000000	0.000000	0.000000	66.278183	18.903027	103.004485	11.970263	-0.000000	0.000000	0.000000	-0.000000	-85.623860	36.501920	1.449700	0.093628	0.714720	0.483336	-1.000000	-1.000000	-1.000000	-1.000000	-1.000000	-1.000000	-1.000000	138.827586	0.000000	-1.000000	-1.000000	558062.000000	1772919146.214940
-2476.260000	24301.305000	-20421.270000	-14681.115000	0.000000	0.000000	0.000000	0.000000	110.725762	-12.804525	117.124770	68.884904	-0.000000	0.000000	0.000000	-0.000000	-85.623860	36.501920	1.449700	0.093628	0.714720	0.483336	-1.000000	-1.000000	-1.000000	-1.000000	-1.000000	-1.000000	-1.000000	138.827586	0.000000	-1.000000	-1.000000	558063.000000	1772919146.214943
-2396.745000	24282.810000	-20324.115000	-14646.015000	0.000000	0.000000	0.000000	0.000000	76.546881	-25.517799	84.429740	71.082377	-0.000000	0.000000	0.000000	-0.000000	-85.623860	36.501920	1.449700	0.093628	0.714720	0.483336	-1.000000	-1.000000	-1.000000	-1.000000	-1.000000	-1.000000	-1.000000	138.827586	0.000000	-1.000000	-1.000000	558064.000000	1772919146.215525
-2296.440000	24254.730000	-20346.165000	-14650.065000	0.000000	0.000000	0.000000	0.000000	14.624182	-18.955957	34.861018	41.036127	-0.000000	0.000000	0.000000	-0.000000	-85.623860	36.501920	1.449700	0.093628	0.714720	0.483336	-1.000000	-1.000000	-1.000000	-1.000000	-1.000000	-1.000000	-1.000000	138.827586	0.000000	-1.000000	-1.000000	558065.000000	1772919146.215527
-2421.945000	24241.995000	-20556.405000	-14790.690000	0.000000	0.000000	0.000000	0.000000	-23.720620	-7.461646	-11.347120	4.350637	-0.000000	0.000000	0.000000	-0.000000	-89.362560	20.768860	10.697260	0.044922	0.868040	0.582091	-1.000000	-1.000000	-1.000000	-1.000000	-1.000000	-1.000000	-1.000000	138.827586	0.000000	-1.000000	-1.000000	558066.000000	1772919146.219672
-2568.870000	24241.950000	-20649.375000	-14872.950000	0.000000	0.000000	0.000000	0.000000	-33.446867	-1.502455	-54.273730	-29.252099	-0.000000	0.000000	0.000000	-0.000000	-89.362560	20.768860	10.697260	0.044922	0.868040	0.582091	-1.000000	-1.000000	-1.000000	-1.000000	-1.000000	-1.000000	-1.000000	138.827586	0.000000	-1.000000	-1.000000	558067.000000	1772919146.219675
-2484.000000	24261.705000	-20475.360000	-14772.555000	0.000000	0.000000	0.000000	0.000000	-35.077764	-0.432282	-85.642479	-51.904078	-0.000000	0.000000	0.000000	-0.000000	-89.362560	20.768860	10.697260	0.044922	0.868040	0.582091	-1.000000	-1.000000	-1.000000	-1.000000	-1.000000	-1.000000	-1.000000	138.827586	0.000000	-1.000000	-1.000000	558068.000000	1772919146.223733
-2394.945000	24249.735000	-20382.930000	-14706.720000	0.000000	0.000000	0.000000	0.000000	-29.739378	0.797327	-77.138857	-46.586848	-0.000000	0.000000	0.000000	-0.000000	-89.362560	20.768860	10.697260	0.044922	0.868040	0.582091	-1.000000	-1.000000	-1.000000	-1.000000	-1.000000	-1.000000	-1.000000	138.827586	0.000000	-1.000000	-1.000000	558069.000000	1772919146.223735
-2293.605000	24271.245000	-20276.235000	-14561.640000	0.000000	0.000000	0.000000	0.000000	-4.254530	4.014867	-18.673797	-5.985208	-0.000000	0.000000	0.000000	-0.000000	-89.362560	20.768860	10.697260	0.044922	0.868040	0.582091	-1.000000	-1.000000	-1.000000	-1.000000	-1.000000	-1.000000	-1.000000	138.827586	0.000000	-1.000000	-1.000000	558070.000000	1772919146.227644
-2124.315000	24328.485000	-20083.545000	-14349.105000	0.000000	0.000000	0.000000	0.000000	38.846029	8.564995	60.152211	53.927953	-0.000000	0.000000	0.000000	-0.000000	-89.362560	20.768860	10.697260	0.044922	0.868040	0.582091	-1.000000	-1.000000	-1.000000	-1.000000	-1.000000	-1.000000	-1.000000	138.827586	0.000000	-1.000000	-1.000000	558071.000000	1772919146.227646
-2221.155000	24379.785000	-20277.135000	-14527.755000	0.000000	0.000000	0.000000	0.000000	75.397060	14.518411	111.629763	99.231698	-0.000000	0.000000	0.000000	-0.000000	-89.362560	20.768860	10.697260	0.044922	0.868040	0.582091	-1.000000	-1.000000	-1.000000	-1.000000	-1.000000	-1.000000	-1.000000	138.827586	0.000000	-1.000000	-1.000000	558072.000000	1772919146.231568
-2236.140000	24331.140000	-20331.945000	-14615.505000	0.000000	0.000000	0.000000	0.000000	74.081347	18.695469	96.758679	90.279945	-0.000000	0.000000	0.000000	-0.000000	-89.362560	20.768860	10.697260	0.044922	0.868040	0.582091	-1.000000	-1.000000	-1.000000	-1.000000	-1.000000	-1.000000	-1.000000	138.827586	0.000000	-1.000000	-1.000000	558073.000000	1772919146.231571
-2294.370000	24308.505000	-20397.960000	-14709.330000	0.000000	0.000000	0.000000	0.000000	24.553143	12.783771	16.096685	16.387709	-0.000000	0.000000	0.000000	-0.000000	-89.362560	20.768860	10.697260	0.044922	0.868040	0.582091	-1.000000	-1.000000	-1.000000	-1.000000	-1.000000	-1.000000	-1.000000	138.827586	0.000000	-1.000000	-1.000000	558074.000000	1772919146.238714
-2405.565000	24304.545000	-20485.710000	-14895.585000	0.000000	0.000000	0.000000	0.000000	-49.122111	-5.886647	-82.346824	-84.378755	-0.000000	0.000000	0.000000	-0.000000	-89.362560	20.768860	10.697260	0.044922	0.868040	0.582091	-1.000000	-1.000000	-1.000000	-1.000000	-1.000000	-1.000000	-1.000000	138.827586	0.000000	-1.000000	-1.000000	558075.000000	1772919146.238717
-2448.045000	24331.725000	-20487.690000	-14877.405000	0.000000	0.000000	0.000000	0.000000	-108.785381	-26.464520	-141.633400	-155.034810	-0.000000	0.000000	0.000000	-0.000000	-66.564120	5.768280	-5.753020	0.000488	0.809263	0.633055	-1.000000	-1.000000	-1.000000	-1.000000	-1.000000	-1.000000	-1.000000	138.827586	0.000000	-1.000000	-1.000000	558076.000000	1772919146.239710
-2401.740000	24386.670000	-20516.940000	-14754.960000	0.000000	0.000000	0.000000	0.000000	-123.919218	-33.302519	-133.351689	-152.866964	-0.000000	0.000000	0.000000	-0.000000	-66.564120	5.768280	-5.753020	0.000488	0.809263	0.633055	-1.000000	-1.000000	-1.000000	-1.000000	-1.000000	-1.000000	-1.000000	138.827586	0.000000	-1.000000	-1.000000	558077.000000	1772919146.239712
-2359.710000	24416.685000	-20336.850000	-14575.590000	0.000000	0.000000	0.000000	0.000000	-83.365218	-20.099368	-64.190284	-68.389785	-0.000000	0.000000	0.000000	-0.000000	-66.564120	5.768280	-5.753020	0.000488	0.809263	0.633055	-1.000000	-1.000000	-1.000000	-1.000000	-1.000000	-1.000000	-1.000000	138.827586	0.000000	-1.000000	-1.000000	558078.000000	1772919146.244307
-2300.850000	24570.810000	-20251.665000	-14600.385000	0.000000	0.000000	0.000000	0.000000	-3.872195	6.883537	35.987161	59.913342	-0.000000	0.000000	0.000000	-0.000000	-66.564120	5.768280	-5.753020	0.000488	0.809263	0.633055	-1.000000	-1.000000	-1.000000	-1.000000	-1.000000	-1.000000	-1.000000	138.827586	0.000000	-1.000000	-1.000000	558079.000000	1772919146.244310
-2317.680000	24735.555000	-20336.535000	-14666.445000	0.000000	0.000000	0.000000	0.000000	75.922542	37.758385	122.393341	158.624008	-0.000000	0.000000	0.000000	-0.000000	-66.564120	5.768280	-5.753020	0.000488	0.809263	0.633055	-1.000000	-1.000000	-1.000000	-1.000000	-1.000000	-1.000000	-1.000000	138.827586	0.000000	-1.000000	-1.000000	558080.000000	1772919146.247653
-2400.570000	24729.435000	-20442.420000	-14739.570000	0.000000	0.000000	0.000000	0.000000	116.041806	60.499646	147.630415	169.636534	-0.000000	0.000000	0.000000	-0.000000	-66.564120	5.768280	-5.753020	0.000488	0.809263	0.633055	-1.000000	-1.000000	-1.000000	-1.000000	-1.000000	-1.000000	-1.000000	138.827586	0.000000	-1.000000	-1.000000	558081.000000	1772919146.247656
-2447.055000	24675.120000	-20532.645000	-14871.690000	0.000000	0.000000	0.000000	0.000000	98.053639	56.026221	95.099362	92.330186	-0.000000	0.000000	0.000000	-0.000000	-66.564120	5.768280	-5.753020	0.000488	0.809263	0.633055	-1.000000	-1.000000	-1.000000	-1.000000	-1.000000	-1.000000	-1.000000	138.827586	0.000000	-1.000000	-1.000000	558082.000000	1772919146.251741
-2504.205000	24637.770000	-20514.690000	-14944.140000	0.000000	0.000000	0.000000	0.000000	37.099475	13.204015	-1.057611	-23.652027	-0.000000	0.000000	0.000000	-0.000000	-66.564120	5.768280	-5.753020	0.000488	0.809263	0.633055	-1.000000	-1.000000	-1.000000	-1.000000	-1.000000	-1.000000	-1.000000	138.827586	0.000000	-1.000000	-1.000000	558083.000000	1772919146.251744
-2503.125000	24588.000000	-20507.400000	-14874.750000	0.000000	0.000000	0.000000	0.000000	-29.187875	-51.499697	-80.339279	-113.264637	-0.000000	0.000000	0.000000	-0.000000	-66.564120	5.768280	-5.753020	0.000488	0.809263	0.633055	-1.000000	-1.000000	-1.000000	-1.000000	-1.000000	-1.000000	-1.000000	138.827586	0.000000	-1.000000	-1.000000	558084.000000	1772919146.255732
-2437.245000	24577.290000	-20394.315000	-14784.705000	0.000000	0.000000	0.000000	0.000000	-64.877724	-102.673513	-99.665731	-129.515325	-0.000000	0.000000	0.000000	-0.000000	-66.564120	5.768280	-5.753020	0.000488	0.809263	0.633055	-1.000000	-1.000000	-1.000000	-1.000000	-1.000000	-1.000000	-1.000000	138.827586	0.000000	-1.000000	-1.000000	558085.000000	1772919146.255734
-2274.210000	24531.615000	-20320.065000	-14643.405000	0.000000	0.000000	0.000000	0.000000	-52.773187	-112.487738	-56.812240	-68.317820	-0.000000	0.000000	0.000000	-0.000000	-43.841980	11.506040	9.079700	0.033020	0.751463	0.644285	-1.000000	-1.000000	-1.000000	-1.000000	-1.000000	-1.000000	-1.000000	138.827586	0.000000	-1.000000	-1.000000	558086.000000	1772919146.262372
-2160.720000	24475.410000	-20238.165000	-14498.730000	0.000000	0.000000	0.000000	0.000000	-1.200143	-78.633464	15.626403	31.659060	-0.000000	0.000000	0.000000	-0.000000	-43.841980	11.506040	9.079700	0.033020	0.751463	0.644285	-1.000000	-1.000000	-1.000000	-1.000000	-1.000000	-1.000000	-1.000000	138.827586	0.000000	-1.000000	-1.000000	558087.000000	1772919146.262375
-2321.190000	24404.985000	-20255.805000	-14510.925000	0.000000	0.000000	0.000000	0.000000	53.884458	-22.094161	72.484691	113.422204	-0.000000	0.000000	0.000000	-0.000000	-43.841980	11.506040	9.079700	0.033020	0.751463	0.644285	-1.000000	-1.000000	-1.000000	-1.000000	-1.000000	-1.000000	-1.000000	138.827586	0.000000	-1.000000	-1.000000	558088.000000	1772919146.268454
-2363.445000	24409.080000	-20320.200000	-14578.155000	0.000000	0.000000	0.000000	0.000000	66.339262	31.323986	80.733309	129.969968	-0.000000	0.000000	0.000000	-0.000000	-43.841980	11.506040	9.079700	0.033020	0.751463	0.644285	-1.000000	-1.000000	-1.000000	-1.000000	-1.000000	-1.000000	-1.000000	138.827586	0.000000	-1.000000	-1.000000	558089.000000	1772919146.268456
-2420.640000	24379.335000	-20340.180000	-14735.520000	0.000000	0.000000	0.000000	0.000000	21.872586	66.950238	37.188513	68.427802	-0.000000	0.000000	0.000000	-0.000000	-43.841980	11.506040	9.079700	0.033020	0.751463	0.644285	-1.000000	-1.000000	-1.000000	-1.000000	-1.000000	-1.000000	-1.000000	138.827586	0.000000	-1.000000	-1.000000	558090.000000	1772919146.271413
-2386.395000	24322.905000	-20196.000000	-14757.840000	0.000000	0.000000	0.000000	0.000000	-45.461275	80.478035	-26.675336	-39.154531	-0.000000	0.000000	0.000000	-0.000000	-43.841980	11.506040	9.079700	0.033020	0.751463	0.644285	-1.000000	-1.000000	-1.000000	-1.000000	-1.000000	-1.000000	-1.000000	138.827586	0.000000	-1.000000	-1.000000	558091.000000	1772919146.271415
-2418.615000	24204.375000	-20284.020000	-14748.390000	0.000000	0.000000	0.000000	0.000000	-87.268459	70.336945	-67.831979	-130.923412	-0.000000	0.000000	0.000000	-0.000000	-43.841980	11.506040	9.079700	0.033020	0.751463	0.644285	-1.000000	-1.000000	-1.000000	-1.000000	-1.000000	-1.000000	-1.000000	138.827586	0.000000	-1.000000	-1.000000	558092.000000	1772919146.274620
-2393.865000	24159.015000	-20452.770000	-14716.215000	0.000000	0.000000	0.000000	0.000000	-80.589119	39.560875	-73.109640	-154.297336	-0.000000	0.000000	0.000000	-0.000000	-43.841980	11.506040	9.079700	0.033020	0.751463	0.644285	-1.000000	-1.000000	-1.000000	-1.000000	-1.000000	-1.000000	-1.000000	138.827586	0.000000	-1.000000	-1.000000	558093.000000	1772919146.274623
-2394.585000	24167.970000	-20473.650000	-14724.450000	0.000000	0.000000	0.000000	0.000000	-36.027768	2.971188	-61.366404	-101.615777	-0.000000	0.000000	0.000000	-0.000000	-43.841980	11.506040	9.079700	0.033020	0.751463	0.644285	-1.000000	-1.000000	-1.000000	-1.000000	-1.000000	-1.000000	-1.000000	138.827586	0.000000	-1.000000	-1.000000	558094.000000	1772919146.275689
-2338.740000	24260.220000	-20411.550000	-14670.090000	0.000000	0.000000	0.000000	0.000000	19.392516	-16.983874	-43.569467	-9.112073	-0.000000	0.000000	0.000000	-0.000000	-43.841980	11.506040	9.079700	0.033020	0.751463	0.644285	-1.000000	-1.000000	-1.000000	-1.000000	-1.000000	-1.000000	-1.000000	138.827586	0.000000	-1.000000	-1.000000	558095.000000	1772919146.275692
-2198.025000	24301.530000	-20248.695000	-14533.740000	0.000000	0.000000	0.000000	0.000000	63.338789	-7.926875	-9.502081	76.832777	-0.000000	0.000000	0.000000	-0.000000	-28.612500	9.064440	9.110220	0.035339	0.721251	0.662474	-1.000000	-1.000000	-1.000000	-1.000000	-1.000000	-1.000000	-1.000000	138.965517	0.000000	-1.000000	-1.000000	558096.000000	1772919146.279833
-2257.965000	24318.855000	-20265.030000	-14582.520000	0.000000	0.000000	0.000000	0.000000	84.280244	19.154667	43.711394	125.257412	-0.000000	0.000000	0.000000	-0.000000	-28.612500	9.064440	9.110220	0.035339	0.721251	0.662474	-1.000000	-1.000000	-1.000000	-1.000000	-1.000000	-1.000000	-1.000000	138.965517	0.000000	-1.000000	-1.000000	558097.000000	1772919146.279836
-2465.595000	24294.285000	-20437.020000	-14680.035000	0.000000	0.000000	0.000000	0.000000	70.262225	37.900024	87.950573	119.665251	-0.000000	0.000000	0.000000	-0.000000	-28.612500	9.064440	9.110220	0.035339	0.721251	0.662474	-1.000000	-1.000000	-1.000000	-1.000000	-1.000000	-1.000000	-1.000000	138.965517	0.000000	-1.000000	-1.000000	558098.000000	1772919146.283674
-2474.190000	24249.150000	-20456.415000	-14760.585000	0.000000	0.000000	0.000000	0.000000	15.796038	28.684935	85.605605	60.354798	-0.000000	0.000000	0.000000	-0.000000	-28.612500	9.064440	9.110220	0.035339	0.721251	0.662474	-1.000000	-1.000000	-1.000000	-1.000000	-1.000000	-1.000000	-1.000000	138.965517	0.000000	-1.000000	-1.000000	558099.000000	1772919146.283678
-2483.820000	24187.050000	-20485.530000	-14806.530000	0.000000	0.000000	0.000000	0.000000	-53.078872	-7.363732	35.221112	-24.837493	-0.000000	0.000000	0.000000	-0.000000	-28.612500	9.064440	9.110220	0.035339	0.721251	0.662474	-1.000000	-1.000000	-1.000000	-1.000000	-1.000000	-1.000000	-1.000000	138.965517	0.000000	-1.000000	-1.000000	558100.000000	1772919146.287758
-2435.445000	24181.425000	-20516.265000	-14768.145000	0.000000	0.000000	0.000000	0.000000	-90.752025	-50.513451	-25.912414	-90.522684	-0.000000	0.000000	0.000000	-0.000000	-28.612500	9.064440	9.110220	0.035339	0.721251	0.662474	-1.000000	-1.000000	-1.000000	-1.000000	-1.000000	-1.000000	-1.000000	138.965517	0.000000	-1.000000	-1.000000	558101.000000	1772919146.287762
-2418.390000	24198.030000	-20518.290000	-14777.910000	0.000000	0.000000	0.000000	0.000000	-73.647226	-74.889859	-60.576799	-103.147748	-0.000000	0.000000	0.000000	-0.000000	-28.612500	9.064440	9.110220	0.035339	0.721251	0.662474	-1.000000	-1.000000	-1.000000	-1.000000	-1.000000	-1.000000	-1.000000	138.965517	0.000000	-1.000000	-1.000000	558102.000000	1772919146.291794
-2368.530000	24250.680000	-20426.085000	-14706.135000	0.000000	0.000000	0.000000	0.000000	-16.457166	-64.523420	-54.581686	-62.117653	-0.000000	0.000000	0.000000	-0.000000	-28.612500	9.064440	9.110220	0.035339	0.721251	0.662474	-1.000000	-1.000000	-1.000000	-1.000000	-1.000000	-1.000000	-1.000000	138.965517	0.000000	-1.000000	-1.000000	558103.000000	1772919146.291796
-2192.265000	24249.240000	-20179.710000	-14543.640000	0.000000	0.000000	0.000000	0.000000	47.899699	-24.335627	-11.832690	7.506551	-0.000000	0.000000	0.000000	-0.000000	-28.612500	9.064440	9.110220	0.035339	0.721251	0.662474	-1.000000	-1.000000	-1.000000	-1.000000	-1.000000	-1.000000	-1.000000	138.965517	0.000000	-1.000000	-1.000000	558104.000000	1772919146.295984
-2254.140000	24214.995000	-20156.445000	-14543.235000	0.000000	0.000000	0.000000	0.000000	90.879130	21.852722	49.453509	73.554069	-0.000000	0.000000	0.000000	-0.000000	-28.612500	9.064440	9.110220	0.035339	0.721251	0.662474	-1.000000	-1.000000	-1.000000	-1.000000	-1.000000	-1.000000	-1.000000	138.965517	0.000000	-1.000000	-1.000000	558105.000000	1772919146.295986
-2285.190000	24210.585000	-20277.045000	-14611.770000	0.000000	0.000000	0.000000	0.000000	91.679161	48.079562	90.922059	103.352348	-0.000000	0.000000	0.000000	-0.000000	-1.648080	-1.815940	-0.946120	-0.007202	0.681517	0.689024	-1.000000	-1.000000	-1.000000	-1.000000	-1.000000	-1.000000	-1.000000	138.965517	0.000000	-1.000000	-1.000000	558106.000000	1772919146.299823
-2348.685000	24286.635000	-20470.410000	-14719.635000	0.000000	0.000000	0.000000	0.000000	44.999891	46.769798	71.402950	75.906469	-0.000000	0.000000	0.000000	-0.000000	-1.648080	-1.815940	-0.946120	-0.007202	0.681517	0.689024	-1.000000	-1.000000	-1.000000	-1.000000	-1.000000	-1.000000	-1.000000	138.965517	0.000000	-1.000000	-1.000000	558107.000000	1772919146.299826
-2436.120000	24376.320000	-20621.160000	-14881.815000	0.000000	0.000000	0.000000	0.000000	-28.037116	31.952931	-12.314768	0.481906	-0.000000	0.000000	0.000000	-0.000000	-1.648080	-1.815940	-0.946120	-0.007202	0.681517	0.689024	-1.000000	-1.000000	-1.000000	-1.000000	-1.000000	-1.000000	-1.000000	138.965517	0.000000	-1.000000	-1.000000	558108.000000	1772919146.304729
-2402.730000	24406.560000	-20536.110000	-14851.935000	0.000000	0.000000	0.000000	0.000000	-90.086343	20.242444	-109.775273	-82.991134	-0.000000	0.000000	0.000000	-0.000000	-1.648080	-1.815940	-0.946120	-0.007202	0.681517	0.689024	-1.000000	-1.000000	-1.000000	-1.000000	-1.000000	-1.000000	-1.000000	138.965517	0.000000	-1.000000	-1.000000	558109.000000	1772919146.304732
-2424.825000	24395.895000	-20470.815000	-14769.135000	0.000000	0.000000	0.000000	0.000000	-109.096022	12.892116	-150.188877	-123.308724	-0.000000	0.000000	0.000000	-0.000000	-1.648080	-1.815940	-0.946120	-0.007202	0.681517	0.689024	-1.000000	-1.000000	-1.000000	-1.000000	-1.000000	-1.000000	-1.000000	138.965517	0.000000	-1.000000	-1.000000	558110.000000	1772919146.307835
-2403.090000	24374.655000	-20379.330000	-14655.510000	0.000000	0.000000	0.000000	0.000000	-77.531778	0.154711	-100.569580	-90.914060	-0.000000	0.000000	0.000000	-0.000000	-1.648080	-1.815940	-0.946120	-0.007202	0.681517	0.689024	-1.000000	-1.000000	-1.000000	-1.000000	-1.000000	-1.000000	-1.000000	138.965517	0.000000	-1.000000	-1.000000	558111.000000	1772919146.307838
-2154.915000	24349.635000	-20139.030000	-14414.355000	0.000000	0.000000	0.000000	0.000000	-11.460917	-22.064778	11.293885	0.101097	-0.000000	0.000000	0.000000	-0.000000	-1.648080	-1.815940	-0.946120	-0.007202	0.681517	0.689024	-1.000000	-1.000000	-1.000000	-1.000000	-1.000000	-1.000000	-1.000000	138.965517	0.000000	-1.000000	-1.000000	558112.000000	1772919146.311739
