Channel1	Channel2	Channel3	Channel4	Channel5	Channel6	Channel7	Channel8	FilteredChannel1	FilteredChannel2	FilteredChannel3	FilteredChannel4	FilteredChannel5	FilteredChannel6	FilteredChannel7	FilteredChannel8	GyroX	GyroY	GyroZ	AccX	AccY	AccZ	PPG1	PPG2	rawPPG1	rawPPG2	rawPPG3	Hr	Hrv	Battery	Trigger	PhysicalTrigger	AutoTrigger	NumMeasurements	Timestamp
-2108.025000	25177.590000	-20307.375000	-14524.155000	0.000000	0.000000	0.000000	0.000000	43.051799	6.386205	69.547172	69.196560	-0.000000	0.000000	0.000000	0.000000	3.219860	0.305200	-0.717220	-0.019165	0.749632	0.664000	-1.000000	-1.000000	-1.000000	-1.000000	-1.000000	-1.000000	-1.000000	139.172414	0.000000	-1.000000	-1.000000	564825.000000	1772919159.776222
-2140.380000	25203.735000	-20359.800000	-14579.235000	0.000000	0.000000	0.000000	0.000000	82.966660	-6.004829	124.957061	130.929673	-0.000000	0.000000	0.000000	0.000000	3.219860	0.305200	-0.717220	-0.019165	0.749632	0.664000	-1.000000	-1.000000	-1.000000	-1.000000	-1.000000	-1.000000	-1.000000	139.172414	0.000000	-1.000000	-1.000000	564826.000000	1772919159.776226
-2192.490000	25249.185000	-20434.230000	-14656.815000	0.000000	0.000000	0.000000	0.000000	77.628030	-7.087486	112.288654	121.213572	-0.000000	0.000000	0.000000	0.000000	3.906560	0.000000	-0.854560	-0.019287	0.749022	0.663695	-1.000000	-1.000000	-1.000000	-1.000000	-1.000000	-1.000000	-1.000000	139.172414	0.000000	-1.000000	-1.000000	564827.000000	1772919159.782330
-2293.650000	25346.205000	-20577.420000	-14805.990000	0.000000	0.000000	0.000000	0.000000	31.408357	-6.907273	40.023820	46.847188	-0.000000	0.000000	0.000000	0.000000	3.906560	0.000000	-0.854560	-0.019287	0.749022	0.663695	-1.000000	-1.000000	-1.000000	-1.000000	-1.000000	-1.000000	-1.000000	139.172414	0.000000	-1.000000	-1.000000	564828.000000	1772919159.782334
-2334.330000	25364.295000	-20632.275000	-14871.645000	0.000000	0.000000	0.000000	0.000000	-30.438734	-9.637278	-52.370283	-51.455197	-0.000000	0.000000	0.000000	0.000000	3.906560	0.000000	-0.854560	-0.019287	0.749022	0.663695	-1.000000	-1.000000	-1.000000	-1.000000	-1.000000	-1.000000	-1.000000	139.172414	0.000000	-1.000000	-1.000000	564829.000000	1772919159.785526
-2301.570000	25363.620000	-20578.905000	-14817.105000	0.000000	0.000000	0.000000	0.000000	-74.204988	-16.683130	-114.734701	-120.244644	-0.000000	0.000000	0.000000	0.000000	3.906560	0.000000	-0.854560	-0.019287	0.749022	0.663695	-1.000000	-1.000000	-1.000000	-1.000000	-1.000000	-1.000000	-1.000000	139.172414	0.000000	-1.000000	-1.000000	564830.000000	1772919159.785529
-2256.795000	25371.810000	-20512.305000	-14747.850000	0.000000	0.000000	0.000000	0.000000	-74.774290	-29.058456	-111.692864	-120.552872	-0.000000	0.000000	0.000000	0.000000	3.906560	0.000000	-0.854560	-0.019287	0.749022	0.663695	-1.000000	-1.000000	-1.000000	-1.000000	-1.000000	-1.000000	-1.000000	139.172414	0.000000	-1.000000	-1.000000	564831.000000	1772919159.788641
-2172.420000	25357.545000	-20386.125000	-14619.510000	0.000000	0.000000	0.000000	0.000000	-31.533995	-42.699283	-44.730169	-52.019269	-0.000000	0.000000	0.000000	0.000000	3.906560	0.000000	-0.854560	-0.019287	0.749022	0.663695	-1.000000	-1.000000	-1.000000	-1.000000	-1.000000	-1.000000	-1.000000	139.172414	0.000000	-1.000000	-1.000000	564832.000000	1772919159.788646
-2107.620000	25321.545000	-20298.870000	-14522.535000	0.000000	0.000000	0.000000	0.000000	31.353629	-50.204649	48.917232	47.048884	-0.000000	0.000000	0.000000	0.000000	3.906560	0.000000	-0.854560	-0.019287	0.749022	0.663695	-1.000000	-1.000000	-1.000000	-1.000000	-1.000000	-1.000000	-1.000000	139.172414	0.000000	-1.000000	-1.000000	564833.000000	1772919159.792120
-2121.570000	25260.840000	-20331.090000	-14554.440000	0.000000	0.000000	0.000000	0.000000	79.464073	-47.706074	118.155525	122.550148	-0.000000	0.000000	0.000000	0.000000	3.906560	0.000000	-0.854560	-0.019287	0.749022	0.663695	-1.000000	-1.000000	-1.000000	-1.000000	-1.000000	-1.000000	-1.000000	139.172414	0.000000	-1.000000	-1.000000	564834.000000	1772919159.792139
-2163.555000	25251.120000	-20395.620000	-14618.340000	0.000000	0.000000	0.000000	0.000000	85.736831	-35.653300	124.137283	132.420581	-0.000000	0.000000	0.000000	0.000000	3.906560	0.000000	-0.854560	-0.019287	0.749022	0.663695	-1.000000	-1.000000	-1.000000	-1.000000	-1.000000	-1.000000	-1.000000	139.172414	0.000000	-1.000000	-1.000000	564835.000000	1772919159.796212
-2236.545000	25250.805000	-20509.425000	-14730.705000	0.000000	0.000000	0.000000	0.000000	45.480851	-14.891452	62.204681	70.214386	-0.000000	0.000000	0.000000	0.000000	3.906560	0.000000	-0.854560	-0.019287	0.749022	0.663695	-1.000000	-1.000000	-1.000000	-1.000000	-1.000000	-1.000000	-1.000000	139.172414	0.000000	-1.000000	-1.000000	564836.000000	1772919159.796231
-2290.905000	25162.245000	-20589.885000	-14829.030000	0.000000	0.000000	0.000000	0.000000	-20.204069	11.018794	-34.558670	-30.655264	-0.000000	0.000000	0.000000	0.000000	6.012440	0.686700	-0.946120	-0.017944	0.743162	0.666807	-1.000000	-1.000000	-1.000000	-1.000000	-1.000000	-1.000000	-1.000000	139.172414	0.000000	-1.000000	-1.000000	564837.000000	1772919159.800229
-2266.515000	25079.220000	-20547.945000	-14792.265000	0.000000	0.000000	0.000000	0.000000	-75.948519	31.171935	-113.650068	-115.976192	-0.000000	0.000000	0.000000	0.000000	6.012440	0.686700	-0.946120	-0.017944	0.743162	0.666807	-1.000000	-1.000000	-1.000000	-1.000000	-1.000000	-1.000000	-1.000000	139.172414	0.000000	-1.000000	-1.000000	564838.000000	1772919159.800247
-2235.060000	25102.080000	-20493.495000	-14735.925000	0.000000	0.000000	0.000000	0.000000	-91.435761	37.010605	-131.486761	-139.317880	-0.000000	0.000000	0.000000	0.000000	6.012440	0.686700	-0.946120	-0.017944	0.743162	0.666807	-1.000000	-1.000000	-1.000000	-1.000000	-1.000000	-1.000000	-1.000000	139.172414	0.000000	-1.000000	-1.000000	564839.000000	1772919159.804213
-2175.885000	25112.565000	-20410.695000	-14641.920000	0.000000	0.000000	0.000000	0.000000	-59.401961	34.191277	-79.591862	-88.831703	-0.000000	0.000000	0.000000	0.000000	6.012440	0.686700	-0.946120	-0.017944	0.743162	0.666807	-1.000000	-1.000000	-1.000000	-1.000000	-1.000000	-1.000000	-1.000000	139.172414	0.000000	-1.000000	-1.000000	564840.000000	1772919159.804218
-2091.645000	25088.220000	-20293.155000	-14509.440000	0.000000	0.000000	0.000000	0.000000	1.365992	32.829811	11.560344	6.540831	-0.000000	0.000000	0.000000	0.000000	6.012440	0.686700	-0.946120	-0.017944	0.743162	0.666807	-1.000000	-1.000000	-1.000000	-1.000000	-1.000000	-1.000000	-1.000000	139.172414	0.000000	-1.000000	-1.000000	564841.000000	1772919159.808219
-2114.505000	25168.545000	-20323.080000	-14539.185000	0.000000	0.000000	0.000000	0.000000	58.544923	34.390123	93.043732	95.749724	-0.000000	0.000000	0.000000	0.000000	6.012440	0.686700	-0.946120	-0.017944	0.743162	0.666807	-1.000000	-1.000000	-1.000000	-1.000000	-1.000000	-1.000000	-1.000000	139.172414	0.000000	-1.000000	-1.000000	564842.000000	1772919159.808229
-2159.325000	25234.875000	-20389.455000	-14610.690000	0.000000	0.000000	0.000000	0.000000	81.747765	36.259631	121.837376	130.805722	-0.000000	0.000000	0.000000	0.000000	6.012440	0.686700	-0.946120	-0.017944	0.743162	0.666807	-1.000000	-1.000000	-1.000000	-1.000000	-1.000000	-1.000000	-1.000000	139.172414	0.000000	-1.000000	-1.000000	564843.000000	1772919159.812200
-2214.045000	25243.155000	-20472.840000	-14697.855000	0.000000	0.000000	0.000000	0.000000	58.777874	35.235461	83.085704	92.632806	-0.000000	0.000000	0.000000	0.000000	6.012440	0.686700	-0.946120	-0.017944	0.743162	0.666807	-1.000000	-1.000000	-1.000000	-1.000000	-1.000000	-1.000000	-1.000000	139.172414	0.000000	-1.000000	-1.000000	564844.000000	1772919159.812203
-2294.820000	25224.435000	-20597.220000	-14829.930000	0.000000	0.000000	0.000000	0.000000	4.005664	24.134193	-0.243984	4.038664	-0.000000	0.000000	0.000000	0.000000	6.012440	0.686700	-0.946120	-0.017944	0.743162	0.666807	-1.000000	-1.000000	-1.000000	-1.000000	-1.000000	-1.000000	-1.000000	139.172414	0.000000	-1.000000	-1.000000	564845.000000	1772919159.816167
-2292.255000	25190.010000	-20584.755000	-14825.475000	0.000000	0.000000	0.000000	0.000000	-51.222778	-2.216683	-81.720505	-85.107171	-0.000000	0.000000	0.000000	0.000000	6.012440	0.686700	-0.946120	-0.017944	0.743162	0.666807	-1.000000	-1.000000	-1.000000	-1.000000	-1.000000	-1.000000	-1.000000	139.172414	0.000000	-1.000000	-1.000000	564846.000000	1772919159.816170
-2261.115000	25207.965000	-20532.330000	-14769.495000	0.000000	0.000000	0.000000	0.000000	-76.222872	-36.880623	-116.294753	-125.417908	-0.000000	0.000000	0.000000	0.000000	13.001520	-0.335720	-2.166920	-0.019104	0.733519	0.669676	-1.000000	-1.000000	-1.000000	-1.000000	-1.000000	-1.000000	-1.000000	139.172414	0.000000	-1.000000	-1.000000	564847.000000	1772919159.820215
-2214.540000	25234.605000	-20462.310000	-14695.110000	0.000000	0.000000	0.000000	0.000000	-57.532059	-62.009595	-84.908506	-94.770139	-0.000000	0.000000	0.000000	0.000000	13.001520	-0.335720	-2.166920	-0.019104	0.733519	0.669676	-1.000000	-1.000000	-1.000000	-1.000000	-1.000000	-1.000000	-1.000000	139.172414	0.000000	-1.000000	-1.000000	564848.000000	1772919159.820220
-2112.615000	25187.310000	-20317.590000	-14544.090000	0.000000	0.000000	0.000000	0.000000	-6.102403	-63.834195	-5.763130	-11.061962	-0.000000	0.000000	0.000000	0.000000	13.001520	-0.335720	-2.166920	-0.019104	0.733519	0.669676	-1.000000	-1.000000	-1.000000	-1.000000	-1.000000	-1.000000	-1.000000	139.172414	0.000000	-1.000000	-1.000000	564849.000000	1772919159.824264
-2105.640000	25225.695000	-20309.310000	-14525.955000	0.000000	0.000000	0.000000	0.000000	50.408789	-44.297697	78.255432	80.257811	-0.000000	0.000000	0.000000	0.000000	13.001520	-0.335720	-2.166920	-0.019104	0.733519	0.669676	-1.000000	-1.000000	-1.000000	-1.000000	-1.000000	-1.000000	-1.000000	139.172414	0.000000	-1.000000	-1.000000	564850.000000	1772919159.824267
-2132.280000	25195.680000	-20358.720000	-14579.100000	0.000000	0.000000	0.000000	0.000000	81.175948	-15.190812	121.357304	129.550864	-0.000000	0.000000	0.000000	0.000000	13.001520	-0.335720	-2.166920	-0.019104	0.733519	0.669676	-1.000000	-1.000000	-1.000000	-1.000000	-1.000000	-1.000000	-1.000000	139.172414	0.000000	-1.000000	-1.000000	564851.000000	1772919159.828204
-2173.320000	25153.380000	-20424.420000	-14644.620000	0.000000	0.000000	0.000000	0.000000	68.201377	10.480141	98.503699	108.581770	-0.000000	0.000000	0.000000	0.000000	13.001520	-0.335720	-2.166920	-0.019104	0.733519	0.669676	-1.000000	-1.000000	-1.000000	-1.000000	-1.000000	-1.000000	-1.000000	139.172414	0.000000	-1.000000	-1.000000	564852.000000	1772919159.828208
-2259.045000	25124.535000	-20555.280000	-14779.440000	0.000000	0.000000	0.000000	0.000000	18.116372	22.823397	21.690488	28.558170	-0.000000	0.000000	0.000000	0.000000	13.001520	-0.335720	-2.166920	-0.019104	0.733519	0.669676	-1.000000	-1.000000	-1.000000	-1.000000	-1.000000	-1.000000	-1.000000	139.172414	0.000000	-1.000000	-1.000000	564853.000000	1772919159.832188
-2280.240000	25071.030000	-20580.615000	-14822.190000	0.000000	0.000000	0.000000	0.000000	-42.326225	20.433734	-67.743263	-67.385144	-0.000000	0.000000	0.000000	0.000000	13.001520	-0.335720	-2.166920	-0.019104	0.733519	0.669676	-1.000000	-1.000000	-1.000000	-1.000000	-1.000000	-1.000000	-1.000000	139.172414	0.000000	-1.000000	-1.000000	564854.000000	1772919159.832191
-2244.240000	24994.800000	-20529.315000	-14767.245000	0.000000	0.000000	0.000000	0.000000	-80.704157	9.143499	-121.458271	-127.878904	-0.000000	0.000000	0.000000	0.000000	13.001520	-0.335720	-2.166920	-0.019104	0.733519	0.669676	-1.000000	-1.000000	-1.000000	-1.000000	-1.000000	-1.000000	-1.000000	139.172414	0.000000	-1.000000	-1.000000	564855.000000	1772919159.836250
-2218.275000	25029.180000	-20479.725000	-14710.185000	0.000000	0.000000	0.000000	0.000000	-76.054381	-2.237249	-109.843461	-119.813462	-0.000000	0.000000	0.000000	0.000000	13.001520	-0.335720	-2.166920	-0.019104	0.733519	0.669676	-1.000000	-1.000000	-1.000000	-1.000000	-1.000000	-1.000000	-1.000000	139.172414	0.000000	-1.000000	-1.000000	564856.000000	1772919159.836254
-2129.040000	25025.760000	-20345.895000	-14574.240000	0.000000	0.000000	0.000000	0.000000	-31.755380	-3.670596	-40.118054	-48.133620	-0.000000	0.000000	0.000000	0.000000	10.117380	0.320460	-0.839300	-0.018249	0.741514	0.664244	-1.000000	-1.000000	-1.000000	-1.000000	-1.000000	-1.000000	-1.000000	139.172414	0.000000	-1.000000	-1.000000	564857.000000	1772919159.840349
-2061.135000	24941.790000	-20261.700000	-14479.740000	0.000000	0.000000	0.000000	0.000000	28.465131	6.730932	50.370534	48.671043	-0.000000	0.000000	0.000000	0.000000	10.117380	0.320460	-0.839300	-0.018249	0.741514	0.664244	-1.000000	-1.000000	-1.000000	-1.000000	-1.000000	-1.000000	-1.000000	139.172414	0.000000	-1.000000	-1.000000	564858.000000	1772919159.840352
-2105.730000	24992.055000	-20326.905000	-14544.990000	0.000000	0.000000	0.000000	0.000000	73.691766	18.898902	114.456526	119.702655	-0.000000	0.000000	0.000000	0.000000	10.117380	0.320460	-0.839300	-0.018249	0.741514	0.664244	-1.000000	-1.000000	-1.000000	-1.000000	-1.000000	-1.000000	-1.000000	139.172414	0.000000	-1.000000	-1.000000	564859.000000	1772919159.844256
-2158.335000	25068.735000	-20401.155000	-14623.920000	0.000000	0.000000	0.000000	0.000000	78.616161	26.382637	116.113481	125.114107	-0.000000	0.000000	0.000000	0.000000	10.117380	0.320460	-0.839300	-0.018249	0.741514	0.664244	-1.000000	-1.000000	-1.000000	-1.000000	-1.000000	-1.000000	-1.000000	139.172414	0.000000	-1.000000	-1.000000	564860.000000	1772919159.844259
-2230.290000	25057.755000	-20510.955000	-14737.095000	0.000000	0.000000	0.000000	0.000000	38.964790	31.134442	52.712676	60.367071	-0.000000	0.000000	0.000000	0.000000	10.117380	0.320460	-0.839300	-0.018249	0.741514	0.664244	-1.000000	-1.000000	-1.000000	-1.000000	-1.000000	-1.000000	-1.000000	139.172414	0.000000	-1.000000	-1.000000	564861.000000	1772919159.851013
-2293.830000	25034.760000	-20601.765000	-14836.365000	0.000000	0.000000	0.000000	0.000000	-23.170336	29.958149	-40.614192	-38.357372	-0.000000	0.000000	0.000000	0.000000	10.117380	0.320460	-0.839300	-0.018249	0.741514	0.664244	-1.000000	-1.000000	-1.000000	-1.000000	-1.000000	-1.000000	-1.000000	139.172414	0.000000	-1.000000	-1.000000	564862.000000	1772919159.851016
-2256.795000	24945.300000	-20548.530000	-14784.345000	0.000000	0.000000	0.000000	0.000000	-72.536098	14.184173	-111.903372	-115.931392	-0.000000	0.000000	0.000000	0.000000	10.117380	0.320460	-0.839300	-0.018249	0.741514	0.664244	-1.000000	-1.000000	-1.000000	-1.000000	-1.000000	-1.000000	-1.000000	139.172414	0.000000	-1.000000	-1.000000	564863.000000	1772919159.856794
-2203.695000	24837.480000	-20479.905000	-14709.735000	0.000000	0.000000	0.000000	0.000000	-80.485537	-17.976964	-120.672517	-128.419739	-0.000000	0.000000	0.000000	0.000000	10.117380	0.320460	-0.839300	-0.018249	0.741514	0.664244	-1.000000	-1.000000	-1.000000	-1.000000	-1.000000	-1.000000	-1.000000	139.172414	0.000000	-1.000000	-1.000000	564864.000000	1772919159.856797
-2130.570000	24758.280000	-20369.295000	-14597.235000	0.000000	0.000000	0.000000	0.000000	-41.952021	-55.428212	-61.524518	-68.464855	-0.000000	0.000000	0.000000	0.000000	10.117380	0.320460	-0.839300	-0.018249	0.741514	0.664244	-1.000000	-1.000000	-1.000000	-1.000000	-1.000000	-1.000000	-1.000000	139.172414	0.000000	-1.000000	-1.000000	564865.000000	1772919159.863442
-2042.505000	24667.920000	-20245.635000	-14461.965000	0.000000	0.000000	0.000000	0.000000	21.323588	-78.947793	32.689308	30.403728	-0.000000	0.000000	0.000000	0.000000	10.117380	0.320460	-0.839300	-0.018249	0.741514	0.664244	-1.000000	-1.000000	-1.000000	-1.000000	-1.000000	-1.000000	-1.000000	139.172414	0.000000	-1.000000	-1.000000	564866.000000	1772919159.863445
-2071.350000	24706.260000	-20281.815000	-14496.660000	0.000000	0.000000	0.000000	0.000000	74.246524	-72.290350	110.824619	114.344560	-0.000000	0.000000	0.000000	0.000000	5.829320	0.579880	0.061040	-0.018311	0.758482	0.661864	-1.000000	-1.000000	-1.000000	-1.000000	-1.000000	-1.000000	-1.000000	139.172414	0.000000	-1.000000	-1.000000	564867.000000	1772919159.865063
-2110.455000	24738.345000	-20348.190000	-14567.040000	0.000000	0.000000	0.000000	0.000000	86.670272	-31.077015	129.197016	136.445084	-0.000000	0.000000	0.000000	0.000000	5.829320	0.579880	0.061040	-0.018311	0.758482	0.661864	-1.000000	-1.000000	-1.000000	-1.000000	-1.000000	-1.000000	-1.000000	139.172414	0.000000	-1.000000	-1.000000	564868.000000	1772919159.865107
-2171.115000	24731.325000	-20439.225000	-14659.245000	0.000000	0.000000	0.000000	0.000000	50.707723	30.804050	76.173505	82.947166	-0.000000	0.000000	0.000000	0.000000	5.829320	0.579880	0.061040	-0.018311	0.758482	0.661864	-1.000000	-1.000000	-1.000000	-1.000000	-1.000000	-1.000000	-1.000000	139.172414	0.000000	-1.000000	-1.000000	564869.000000	1772919159.865160
-2275.065000	24778.035000	-20577.960000	-14805.765000	0.000000	0.000000	0.000000	0.000000	-14.103133	84.533866	-19.518596	-17.028087	-0.000000	0.000000	0.000000	0.000000	5.829320	0.579880	0.061040	-0.018311	0.758482	0.661864	-1.000000	-1.000000	-1.000000	-1.000000	-1.000000	-1.000000	-1.000000	139.172414	0.000000	-1.000000	-1.000000	564870.000000	1772919159.865163
-2285.190000	24874.155000	-20572.155000	-14810.940000	0.000000	0.000000	0.000000	0.000000	-73.856085	107.039699	-106.875414	-110.118105	-0.000000	0.000000	0.000000	0.000000	5.829320	0.579880	0.061040	-0.018311	0.758482	0.661864	-1.000000	-1.000000	-1.000000	-1.000000	-1.000000	-1.000000	-1.000000	139.172414	0.000000	-1.000000	-1.000000	564871.000000	1772919159.868415
-2269.665000	25003.350000	-20536.965000	-14772.240000	0.000000	0.000000	0.000000	0.000000	-97.483605	96.636019	-139.353701	-146.979605	-0.000000	0.000000	0.000000	0.000000	5.829320	0.579880	0.061040	-0.018311	0.758482	0.661864	-1.000000	-1.000000	-1.000000	-1.000000	-1.000000	-1.000000	-1.000000	139.172414	0.000000	-1.000000	-1.000000	564872.000000	1772919159.868420
-2211.840000	25050.195000	-20454.165000	-14687.145000	0.000000	0.000000	0.000000	0.000000	-71.732946	65.048413	-99.176532	-107.473815	-0.000000	0.000000	0.000000	0.000000	5.829320	0.579880	0.061040	-0.018311	0.758482	0.661864	-1.000000	-1.000000	-1.000000	-1.000000	-1.000000	-1.000000	-1.000000	139.172414	0.000000	-1.000000	-1.000000	564873.000000	1772919159.878832
-2120.715000	25061.265000	-20322.180000	-14549.310000	0.000000	0.000000	0.000000	0.000000	-8.798125	21.450803	-7.528782	-12.120346	-0.000000	0.000000	0.000000	0.000000	5.829320	0.579880	0.061040	-0.018311	0.758482	0.661864	-1.000000	-1.000000	-1.000000	-1.000000	-1.000000	-1.000000	-1.000000	139.172414	0.000000	-1.000000	-1.000000	564874.000000	1772919159.878835
-2113.290000	25107.930000	-20316.330000	-14535.270000	0.000000	0.000000	0.000000	0.000000	60.041386	-28.292054	88.367956	90.072056	-0.000000	0.000000	0.000000	0.000000	5.829320	0.579880	0.061040	-0.018311	0.758482	0.661864	-1.000000	-1.000000	-1.000000	-1.000000	-1.000000	-1.000000	-1.000000	139.172414	0.000000	-1.000000	-1.000000	564875.000000	1772919159.898390
-2151.855000	25106.445000	-20376.945000	-14596.470000	0.000000	0.000000	0.000000	0.000000	99.047857	-73.063480	138.319136	145.713435	-0.000000	0.000000	0.000000	0.000000	5.829320	0.579880	0.061040	-0.018311	0.758482	0.661864	-1.000000	-1.000000	-1.000000	-1.000000	-1.000000	-1.000000	-1.000000	139.172414	0.000000	-1.000000	-1.000000	564876.000000	1772919159.898395
-2175.705000	25072.830000	-20427.615000	-14650.785000	0.000000	0.000000	0.000000	0.000000	87.605798	-99.888165	115.806119	125.315198	-0.000000	0.000000	0.000000	0.000000	3.250380	0.549360	-1.480220	-0.019226	0.752501	0.660948	-1.000000	-1.000000	-1.000000	-1.000000	-1.000000	-1.000000	-1.000000	139.172414	0.000000	-1.000000	-1.000000	564877.000000	1772919159.898404
-2244.105000	24971.265000	-20542.995000	-14770.935000	0.000000	0.000000	0.000000	0.000000	34.015215	-104.389023	35.319474	42.191844	-0.000000	0.000000	0.000000	0.000000	3.250380	0.549360	-1.480220	-0.019226	0.752501	0.660948	-1.000000	-1.000000	-1.000000	-1.000000	-1.000000	-1.000000	-1.000000	139.172414	0.000000	-1.000000	-1.000000	564878.000000	1772919159.898407
-2258.055000	24836.400000	-20562.345000	-14798.205000	0.000000	0.000000	0.000000	0.000000	-31.466260	-92.216540	-58.304509	-57.415424	-0.000000	0.000000	0.000000	0.000000	3.250380	0.549360	-1.480220	-0.019226	0.752501	0.660948	-1.000000	-1.000000	-1.000000	-1.000000	-1.000000	-1.000000	-1.000000	139.172414	0.000000	-1.000000	-1.000000	564879.000000	1772919159.898411
-2224.350000	24797.385000	-20504.880000	-14739.345000	0.000000	0.000000	0.000000	0.000000	-75.070765	-69.740580	-115.722182	-121.007780	-0.000000	0.000000	0.000000	0.000000	3.250380	0.549360	-1.480220	-0.019226	0.752501	0.660948	-1.000000	-1.000000	-1.000000	-1.000000	-1.000000	-1.000000	-1.000000	139.172414	0.000000	-1.000000	-1.000000	564880.000000	1772919159.898413
-2184.255000	24799.635000	-20443.230000	-14676.615000	0.000000	0.000000	0.000000	0.000000	-76.351004	-35.247411	-108.155630	-116.608947	-0.000000	0.000000	0.000000	0.000000	3.250380	0.549360	-1.480220	-0.019226	0.752501	0.660948	-1.000000	-1.000000	-1.000000	-1.000000	-1.000000	-1.000000	-1.000000	139.172414	0.000000	-1.000000	-1.000000	564881.000000	1772919159.898417
-2107.980000	24822.990000	-20323.755000	-14553.630000	0.000000	0.000000	0.000000	0.000000	-38.332536	14.670605	-43.271215	-50.429796	-0.000000	0.000000	0.000000	0.000000	3.250380	0.549360	-1.480220	-0.019226	0.752501	0.660948	-1.000000	-1.000000	-1.000000	-1.000000	-1.000000	-1.000000	-1.000000	139.172414	0.000000	-1.000000	-1.000000	564882.000000	1772919159.898419
-2066.940000	24819.120000	-20267.190000	-14484.780000	0.000000	0.000000	0.000000	0.000000	16.039986	70.984718	41.336999	39.000038	-0.000000	0.000000	0.000000	0.000000	3.250380	0.549360	-1.480220	-0.019226	0.752501	0.660948	-1.000000	-1.000000	-1.000000	-1.000000	-1.000000	-1.000000	-1.000000	139.172414	0.000000	-1.000000	-1.000000	564883.000000	1772919159.898423
-2110.140000	24900.300000	-20329.560000	-14547.375000	0.000000	0.000000	0.000000	0.000000	56.602138	113.477648	99.201115	102.715490	-0.000000	0.000000	0.000000	0.000000	3.250380	0.549360	-1.480220	-0.019226	0.752501	0.660948	-1.000000	-1.000000	-1.000000	-1.000000	-1.000000	-1.000000	-1.000000	139.172414	0.000000	-1.000000	-1.000000	564884.000000	1772919159.898425
-2146.095000	24909.570000	-20385.225000	-14609.835000	0.000000	0.000000	0.000000	0.000000	60.814780	125.751064	98.136203	105.385443	-0.000000	0.000000	0.000000	0.000000	3.250380	0.549360	-1.480220	-0.019226	0.752501	0.660948	-1.000000	-1.000000	-1.000000	-1.000000	-1.000000	-1.000000	-1.000000	139.172414	0.000000	-1.000000	-1.000000	564885.000000	1772919159.898429
-2217.870000	24869.475000	-20497.635000	-14726.250000	0.000000	0.000000	0.000000	0.000000	27.410303	102.157610	39.605577	46.187245	-0.000000	0.000000	0.000000	0.000000	3.250380	0.549360	-1.480220	-0.019226	0.752501	0.660948	-1.000000	-1.000000	-1.000000	-1.000000	-1.000000	-1.000000	-1.000000	139.172414	0.000000	-1.000000	-1.000000	564886.000000	1772919159.898432
-2257.155000	24773.760000	-20564.325000	-14802.255000	0.000000	0.000000	0.000000	0.000000	-22.851558	46.351092	-42.330389	-40.400782	-0.000000	0.000000	0.000000	0.000000	4.715340	0.732480	-0.976640	-0.018311	0.749632	0.662718	-1.000000	-1.000000	-1.000000	-1.000000	-1.000000	-1.000000	-1.000000	139.172414	0.000000	-1.000000	-1.000000	564887.000000	1772919159.900472
-2226.330000	24759.495000	-20521.710000	-14757.165000	0.000000	0.000000	0.000000	0.000000	-60.192431	-25.467292	-101.526124	-105.287989	-0.000000	0.000000	0.000000	0.000000	4.715340	0.732480	-0.976640	-0.018311	0.749632	0.662718	-1.000000	-1.000000	-1.000000	-1.000000	-1.000000	-1.000000	-1.000000	139.172414	0.000000	-1.000000	-1.000000	564888.000000	1772919159.900481
-2202.435000	24831.855000	-20474.190000	-14707.080000	0.000000	0.000000	0.000000	0.000000	-62.530185	-82.947434	-104.259451	-111.234787	-0.000000	0.000000	0.000000	0.000000	4.715340	0.732480	-0.976640	-0.018311	0.749632	0.662718	-1.000000	-1.000000	-1.000000	-1.000000	-1.000000	-1.000000	-1.000000	139.172414	0.000000	-1.000000	-1.000000	564889.000000	1772919159.904446
-2122.560000	24780.645000	-20360.115000	-14588.820000	0.000000	0.000000	0.000000	0.000000	-28.389521	-98.701509	-48.565157	-54.422609	-0.000000	0.000000	0.000000	0.000000	4.715340	0.732480	-0.976640	-0.018311	0.749632	0.662718	-1.000000	-1.000000	-1.000000	-1.000000	-1.000000	-1.000000	-1.000000	139.172414	0.000000	-1.000000	-1.000000	564890.000000	1772919159.904449
-2072.520000	24815.430000	-20273.580000	-14490.315000	0.000000	0.000000	0.000000	0.000000	23.394449	-71.799745	35.405404	34.172887	-0.000000	0.000000	0.000000	0.000000	4.715340	0.732480	-0.976640	-0.018311	0.749632	0.662718	-1.000000	-1.000000	-1.000000	-1.000000	-1.000000	-1.000000	-1.000000	139.172414	0.000000	-1.000000	-1.000000	564891.000000	1772919159.908564
-2121.030000	24923.025000	-20332.530000	-14545.935000	0.000000	0.000000	0.000000	0.000000	64.182244	-22.613820	102.192868	106.508826	-0.000000	0.000000	0.000000	0.000000	4.715340	0.732480	-0.976640	-0.018311	0.749632	0.662718	-1.000000	-1.000000	-1.000000	-1.000000	-1.000000	-1.000000	-1.000000	139.172414	0.000000	-1.000000	-1.000000	564892.000000	1772919159.908567
-2156.760000	24890.220000	-20392.200000	-14611.680000	0.000000	0.000000	0.000000	0.000000	69.573703	26.477202	113.431866	121.121710	-0.000000	0.000000	0.000000	0.000000	4.715340	0.732480	-0.976640	-0.018311	0.749632	0.662718	-1.000000	-1.000000	-1.000000	-1.000000	-1.000000	-1.000000	-1.000000	139.172414	0.000000	-1.000000	-1.000000	564893.000000	1772919159.912490
-2226.465000	24943.905000	-20493.045000	-14716.350000	0.000000	0.000000	0.000000	0.000000	35.429234	55.924357	61.597545	68.271966	-0.000000	0.000000	0.000000	0.000000	4.715340	0.732480	-0.976640	-0.018311	0.749632	0.662718	-1.000000	-1.000000	-1.000000	-1.000000	-1.000000	-1.000000	-1.000000	139.172414	0.000000	-1.000000	-1.000000	564894.000000	1772919159.912492
-2304.270000	25011.000000	-20608.830000	-14844.780000	0.000000	0.000000	0.000000	0.000000	-18.980067	56.652911	-24.345796	-22.802411	-0.000000	0.000000	0.000000	0.000000	4.715340	0.732480	-0.976640	-0.018311	0.749632	0.662718	-1.000000	-1.000000	-1.000000	-1.000000	-1.000000	-1.000000	-1.000000	139.172414	0.000000	-1.000000	-1.000000	564895.000000	1772919159.916408
-2279.520000	24968.790000	-20574.990000	-14817.195000	0.000000	0.000000	0.000000	0.000000	-63.777218	35.239769	-97.427193	-102.456055	-0.000000	0.000000	0.000000	0.000000	4.715340	0.732480	-0.976640	-0.018311	0.749632	0.662718	-1.000000	-1.000000	-1.000000	-1.000000	-1.000000	-1.000000	-1.000000	139.172414	0.000000	-1.000000	-1.000000	564896.000000	1772919159.916411
-2246.355000	24958.440000	-20524.950000	-14756.760000	0.000000	0.000000	0.000000	0.000000	-73.623305	2.566519	-116.991681	-126.319187	-0.000000	0.000000	0.000000	0.000000	5.585160	-1.159760	1.129240	-0.022156	0.748350	0.665281	-1.000000	-1.000000	-1.000000	-1.000000	-1.000000	-1.000000	-1.000000	139.172414	0.000000	-1.000000	-1.000000	564897.000000	1772919159.920582
-2193.570000	24955.920000	-20447.280000	-14675.805000	0.000000	0.000000	0.000000	0.000000	-42.055490	-30.867248	-71.643995	-80.087229	-0.000000	0.000000	0.000000	0.000000	5.585160	-1.159760	1.129240	-0.022156	0.748350	0.665281	-1.000000	-1.000000	-1.000000	-1.000000	-1.000000	-1.000000	-1.000000	139.172414	0.000000	-1.000000	-1.000000	564898.000000	1772919159.920585
-2101.905000	24996.285000	-20309.445000	-14533.560000	0.000000	0.000000	0.000000	0.000000	13.953336	-51.669820	13.518699	10.869669	-0.000000	0.000000	0.000000	0.000000	5.585160	-1.159760	1.129240	-0.022156	0.748350	0.665281	-1.000000	-1.000000	-1.000000	-1.000000	-1.000000	-1.000000	-1.000000	139.172414	0.000000	-1.000000	-1.000000	564899.000000	1772919159.924551
-2100.195000	25081.560000	-20315.070000	-14528.520000	0.000000	0.000000	0.000000	0.000000	65.077752	-48.476480	93.470142	98.092682	-0.000000	0.000000	0.000000	0.000000	5.585160	-1.159760	1.129240	-0.022156	0.748350	0.665281	-1.000000	-1.000000	-1.000000	-1.000000	-1.000000	-1.000000	-1.000000	139.172414	0.000000	-1.000000	-1.000000	564900.000000	1772919159.924553
-2132.415000	25108.335000	-20372.490000	-14583.285000	0.000000	0.000000	0.000000	0.000000	84.042973	-21.452188	125.342272	134.956800	-0.000000	0.000000	0.000000	0.000000	5.585160	-1.159760	1.129240	-0.022156	0.748350	0.665281	-1.000000	-1.000000	-1.000000	-1.000000	-1.000000	-1.000000	-1.000000	139.172414	0.000000	-1.000000	-1.000000	564901.000000	1772919159.928669
-2184.120000	25153.425000	-20451.510000	-14665.095000	0.000000	0.000000	0.000000	0.000000	59.172895	14.228205	90.125924	100.253542	-0.000000	0.000000	0.000000	0.000000	5.585160	-1.159760	1.129240	-0.022156	0.748350	0.665281	-1.000000	-1.000000	-1.000000	-1.000000	-1.000000	-1.000000	-1.000000	139.172414	0.000000	-1.000000	-1.000000	564902.000000	1772919159.928672
-2274.030000	25188.435000	-20584.215000	-14811.930000	0.000000	0.000000	0.000000	0.000000	2.290365	38.590674	5.741732	11.515143	-0.000000	0.000000	0.000000	0.000000	5.585160	-1.159760	1.129240	-0.022156	0.748350	0.665281	-1.000000	-1.000000	-1.000000	-1.000000	-1.000000	-1.000000	-1.000000	139.172414	0.000000	-1.000000	-1.000000	564903.000000	1772919159.932478
-2292.705000	25225.830000	-20581.920000	-14813.910000	0.000000	0.000000	0.000000	0.000000	-57.802118	41.367563	-82.956164	-84.740110	-0.000000	0.000000	0.000000	0.000000	5.585160	-1.159760	1.129240	-0.022156	0.748350	0.665281	-1.000000	-1.000000	-1.000000	-1.000000	-1.000000	-1.000000	-1.000000	139.172414	0.000000	-1.000000	-1.000000	564904.000000	1772919159.932481
-2280.690000	25278.975000	-20541.420000	-14766.210000	0.000000	0.000000	0.000000	0.000000	-90.097929	25.998422	-127.906767	-136.635147	-0.000000	0.000000	0.000000	0.000000	5.585160	-1.159760	1.129240	-0.022156	0.748350	0.665281	-1.000000	-1.000000	-1.000000	-1.000000	-1.000000	-1.000000	-1.000000	139.172414	0.000000	-1.000000	-1.000000	564905.000000	1772919159.936533
-2245.860000	25320.915000	-20492.640000	-14717.430000	0.000000	0.000000	0.000000	0.000000	-77.556316	3.996674	-104.849431	-115.837053	-0.000000	0.000000	0.000000	-0.000000	5.585160	-1.159760	1.129240	-0.022156	0.748350	0.665281	-1.000000	-1.000000	-1.000000	-1.000000	-1.000000	-1.000000	-1.000000	139.172414	0.000000	-1.000000	-1.000000	564906.000000	1772919159.936537
-2142.270000	25251.525000	-20358.405000	-14594.985000	0.000000	0.000000	0.000000	0.000000	-26.420403	-15.708725	-28.014639	-35.802506	-0.000000	0.000000	0.000000	-0.000000	8.515080	-2.990960	-2.548420	-0.021973	0.746763	0.665709	-1.000000	-1.000000	-1.000000	-1.000000	-1.000000	-1.000000	-1.000000	139.172414	0.000000	-1.000000	-1.000000	564907.000000	1772919159.940578
-2077.605000	25071.255000	-20307.645000	-14537.295000	0.000000	0.000000	0.000000	0.000000	38.969959	-35.165739	61.819260	59.753036	-0.000000	0.000000	0.000000	-0.000000	8.515080	-2.990960	-2.548420	-0.021973	0.746763	0.665709	-1.000000	-1.000000	-1.000000	-1.000000	-1.000000	-1.000000	-1.000000	139.172414	0.000000	-1.000000	-1.000000	564908.000000	1772919159.940581
-2104.740000	25018.830000	-20358.900000	-14589.630000	0.000000	0.000000	0.000000	0.000000	86.905194	-58.578163	118.808637	121.863825	-0.000000	0.000000	0.000000	-0.000000	8.515080	-2.990960	-2.548420	-0.021973	0.746763	0.665709	-1.000000	-1.000000	-1.000000	-1.000000	-1.000000	-1.000000	-1.000000	139.172414	0.000000	-1.000000	-1.000000	564909.000000	1772919159.944625
-2157.930000	25041.330000	-20430.135000	-14666.715000	0.000000	0.000000	0.000000	0.000000	91.042906	-73.674223	112.381276	118.419837	-0.000000	0.000000	0.000000	-0.000000	8.515080	-2.990960	-2.548420	-0.021973	0.746763	0.665709	-1.000000	-1.000000	-1.000000	-1.000000	-1.000000	-1.000000	-1.000000	139.172414	0.000000	-1.000000	-1.000000	564910.000000	1772919159.944628
-2234.880000	25039.935000	-20530.395000	-14783.220000	0.000000	0.000000	0.000000	0.000000	46.910411	-58.227469	45.832581	51.837215	-0.000000	0.000000	0.000000	-0.000000	8.515080	-2.990960	-2.548420	-0.021973	0.746763	0.665709	-1.000000	-1.000000	-1.000000	-1.000000	-1.000000	-1.000000	-1.000000	139.172414	0.000000	-1.000000	-1.000000	564911.000000	1772919159.948631
-2266.245000	25055.595000	-20570.220000	-14838.030000	0.000000	0.000000	0.000000	0.000000	-22.005607	-8.531541	-43.644015	-40.880644	-0.000000	0.000000	0.000000	-0.000000	8.515080	-2.990960	-2.548420	-0.021973	0.746763	0.665709	-1.000000	-1.000000	-1.000000	-1.000000	-1.000000	-1.000000	-1.000000	139.172414	0.000000	-1.000000	-1.000000	564912.000000	1772919159.948634
-2262.420000	25079.490000	-20546.955000	-14776.245000	0.000000	0.000000	0.000000	0.000000	-77.662343	52.970385	-106.851811	-108.167955	-0.000000	0.000000	0.000000	-0.000000	8.515080	-2.990960	-2.548420	-0.021973	0.746763	0.665709	-1.000000	-1.000000	-1.000000	-1.000000	-1.000000	-1.000000	-1.000000	139.172414	0.000000	-1.000000	-1.000000	564913.000000	1772919159.952605
-2232.720000	25153.605000	-20513.700000	-14719.905000	0.000000	0.000000	0.000000	0.000000	-90.680969	97.663689	-111.037819	-112.446974	-0.000000	0.000000	0.000000	-0.000000	8.515080	-2.990960	-2.548420	-0.021973	0.746763	0.665709	-1.000000	-1.000000	-1.000000	-1.000000	-1.000000	-1.000000	-1.000000	139.172414	0.000000	-1.000000	-1.000000	564914.000000	1772919159.952608
-2142.315000	25195.725000	-20406.555000	-14611.005000	0.000000	0.000000	0.000000	0.000000	-56.349163	109.632171	-57.339304	-53.279961	-0.000000	0.000000	0.000000	-0.000000	8.515080	-2.990960	-2.548420	-0.021973	0.746763	0.665709	-1.000000	-1.000000	-1.000000	-1.000000	-1.000000	-1.000000	-1.000000	139.172414	0.000000	-1.000000	-1.000000	564915.000000	1772919159.957297
-2057.760000	25227.405000	-20276.550000	-14482.395000	0.000000	0.000000	0.000000	0.000000	6.389820	88.249076	25.034458	34.863953	-0.000000	0.000000	0.000000	-0.000000	8.515080	-2.990960	-2.548420	-0.021973	0.746763	0.665709	-1.000000	-1.000000	-1.000000	-1.000000	-1.000000	-1.000000	-1.000000	139.172414	0.000000	-1.000000	-1.000000	564916.000000	1772919159.957301
-2083.365000	25293.195000	-20295.405000	-14502.960000	0.000000	0.000000	0.000000	0.000000	64.975071	43.757068	95.532167	105.020453	-0.000000	0.000000	0.000000	-0.000000	14.649600	-2.563680	0.763000	-0.023071	0.748167	0.666868	-1.000000	-1.000000	-1.000000	-1.000000	-1.000000	-1.000000	-1.000000	139.172414	0.000000	-1.000000	-1.000000	564917.000000	1772919159.962036
-2140.515000	25334.010000	-20372.580000	-14576.490000	0.000000	0.000000	0.000000	0.000000	86.700767	-6.537722	116.611742	118.850265	-0.000000	0.000000	0.000000	-0.000000	14.649600	-2.563680	0.763000	-0.023071	0.748167	0.666868	-1.000000	-1.000000	-1.000000	-1.000000	-1.000000	-1.000000	-1.000000	139.172414	0.000000	-1.000000	-1.000000	564918.000000	1772919159.962039
-2216.880000	25346.835000	-20509.740000	-14717.295000	0.000000	0.000000	0.000000	0.000000	58.035716	-46.481588	72.572580	65.250274	-0.000000	0.000000	0.000000	-0.000000	14.649600	-2.563680	0.763000	-0.023071	0.748167	0.666868	-1.000000	-1.000000	-1.000000	-1.000000	-1.000000	-1.000000	-1.000000	139.172414	0.000000	-1.000000	-1.000000	564919.000000	1772919159.965170
-2327.445000	25380.765000	-20666.205000	-14892.300000	0.000000	0.000000	0.000000	0.000000	-5.086206	-68.317053	-16.966395	-31.145363	-0.000000	0.000000	0.000000	-0.000000	14.649600	-2.563680	0.763000	-0.023071	0.748167	0.666868	-1.000000	-1.000000	-1.000000	-1.000000	-1.000000	-1.000000	-1.000000	139.172414	0.000000	-1.000000	-1.000000	564920.000000	1772919159.965179
-2343.465000	25365.780000	-20628.540000	-14865.030000	0.000000	0.000000	0.000000	0.000000	-67.624794	-71.801374	-103.980858	-120.335388	-0.000000	0.000000	0.000000	-0.000000	14.649600	-2.563680	0.763000	-0.023071	0.748167	0.666868	-1.000000	-1.000000	-1.000000	-1.000000	-1.000000	-1.000000	-1.000000	139.172414	0.000000	-1.000000	-1.000000	564921.000000	1772919159.975504
-2309.220000	25316.415000	-20571.615000	-14788.170000	0.000000	0.000000	0.000000	0.000000	-94.380391	-62.201217	-136.038739	-149.610177	-0.000000	0.000000	0.000000	-0.000000	14.649600	-2.563680	0.763000	-0.023071	0.748167	0.666868	-1.000000	-1.000000	-1.000000	-1.000000	-1.000000	-1.000000	-1.000000	139.172414	0.000000	-1.000000	-1.000000	564922.000000	1772919159.975507
-2195.325000	25244.190000	-20434.680000	-14632.605000	0.000000	0.000000	0.000000	0.000000	-67.784292	-48.072189	-89.729088	-95.146335	-0.000000	0.000000	0.000000	-0.000000	14.649600	-2.563680	0.763000	-0.023071	0.748167	0.666868	-1.000000	-1.000000	-1.000000	-1.000000	-1.000000	-1.000000	-1.000000	139.172414	0.000000	-1.000000	-1.000000	564923.000000	1772919159.975955
-2070.585000	25324.920000	-20270.565000	-14480.865000	0.000000	0.000000	0.000000	0.000000	1.672107	-32.623398	12.171888	18.275116	-0.000000	0.000000	0.000000	-0.000000	14.649600	-2.563680	0.763000	-0.023071	0.748167	0.666868	-1.000000	-1.000000	-1.000000	-1.000000	-1.000000	-1.000000	-1.000000	139.172414	0.000000	-1.000000	-1.000000	564924.000000	1772919159.975958
-2064.600000	25326.495000	-20293.245000	-14519.115000	0.000000	0.000000	0.000000	0.000000	78.166745	-9.945472	114.183839	128.883114	-0.000000	0.000000	0.000000	-0.000000	14.649600	-2.563680	0.763000	-0.023071	0.748167	0.666868	-1.000000	-1.000000	-1.000000	-1.000000	-1.000000	-1.000000	-1.000000	139.172414	0.000000	-1.000000	-1.000000	564925.000000	1772919159.976765
-2130.030000	25357.095000	-20392.965000	-14638.545000	0.000000	0.000000	0.000000	0.000000	116.623657	21.856294	156.464653	171.033054	-0.000000	0.000000	0.000000	-0.000000	14.649600	-2.563680	0.763000	-0.023071	0.748167	0.666868	-1.000000	-1.000000	-1.000000	-1.000000	-1.000000	-1.000000	-1.000000	139.172414	0.000000	-1.000000	-1.000000	564926.000000	1772919159.976768
-2193.480000	25399.170000	-20473.290000	-14713.695000	0.000000	0.000000	0.000000	0.000000	90.825615	52.233878	110.984604	117.392276	-0.000000	0.000000	0.000000	-0.000000	25.514720	-2.075360	-0.259420	-0.023376	0.739866	0.679075	-1.000000	-1.000000	-1.000000	-1.000000	-1.000000	-1.000000	-1.000000	139.172414	0.000000	-1.000000	-1.000000	564927.000000	1772919159.981055
-2302.380000	25404.255000	-20619.315000	-14879.655000	0.000000	0.000000	0.000000	0.000000	13.585523	67.648271	3.215079	-0.192686	-0.000000	0.000000	0.000000	-0.000000	25.514720	-2.075360	-0.259420	-0.023376	0.739866	0.679075	-1.000000	-1.000000	-1.000000	-1.000000	-1.000000	-1.000000	-1.000000	139.172414	0.000000	-1.000000	-1.000000	564928.000000	1772919159.981058
-2307.780000	25386.300000	-20617.020000	-14904.990000	0.000000	0.000000	0.000000	0.000000	-71.910782	60.411553	-105.785767	-115.258205	-0.000000	0.000000	0.000000	-0.000000	25.514720	-2.075360	-0.259420	-0.023376	0.739866	0.679075	-1.000000	-1.000000	-1.000000	-1.000000	-1.000000	-1.000000	-1.000000	139.172414	0.000000	-1.000000	-1.000000	564929.000000	1772919159.986904
-2263.545000	25349.985000	-20550.915000	-14824.305000	0.000000	0.000000	0.000000	0.000000	-118.381458	31.544763	-156.256049	-166.605955	-0.000000	0.000000	0.000000	-0.000000	25.514720	-2.075360	-0.259420	-0.023376	0.739866	0.679075	-1.000000	-1.000000	-1.000000	-1.000000	-1.000000	-1.000000	-1.000000	139.172414	0.000000	-1.000000	-1.000000	564930.000000	1772919159.986907
-2207.295000	25306.560000	-20522.340000	-14748.390000	0.000000	0.000000	0.000000	0.000000	-101.207279	-8.484184	-122.903336	-128.007950	-0.000000	0.000000	0.000000	-0.000000	25.514720	-2.075360	-0.259420	-0.023376	0.739866	0.679075	-1.000000	-1.000000	-1.000000	-1.000000	-1.000000	-1.000000	-1.000000	139.172414	0.000000	-1.000000	-1.000000	564931.000000	1772919159.989924
-2108.295000	25333.065000	-20436.075000	-14618.340000	0.000000	0.000000	0.000000	0.000000	-32.282618	-42.680479	-29.612167	-22.599990	-0.000000	0.000000	0.000000	-0.000000	25.514720	-2.075360	-0.259420	-0.023376	0.739866	0.679075	-1.000000	-1.000000	-1.000000	-1.000000	-1.000000	-1.000000	-1.000000	139.172414	0.000000	-1.000000	-1.000000	564932.000000	1772919159.989927
-2071.755000	25433.685000	-20399.670000	-14523.120000	0.000000	0.000000	0.000000	0.000000	49.775111	-53.132600	70.326071	92.671930	-0.000000	0.000000	0.000000	-0.000000	25.514720	-2.075360	-0.259420	-0.023376	0.739866	0.679075	-1.000000	-1.000000	-1.000000	-1.000000	-1.000000	-1.000000	-1.000000	139.172414	0.000000	-1.000000	-1.000000	564933.000000	1772919159.993211
-2095.830000	25455.555000	-20418.390000	-14519.880000	0.000000	0.000000	0.000000	0.000000	102.040283	-32.342507	128.013830	160.678367	-0.000000	0.000000	0.000000	-0.000000	25.514720	-2.075360	-0.259420	-0.023376	0.739866	0.679075	-1.000000	-1.000000	-1.000000	-1.000000	-1.000000	-1.000000	-1.000000	139.172414	0.000000	-1.000000	-1.000000	564934.000000	1772919159.993220
-2097.810000	25450.785000	-20408.130000	-14554.890000	0.000000	0.000000	0.000000	0.000000	99.510460	5.553987	121.453055	150.340709	-0.000000	0.000000	0.000000	-0.000000	25.514720	-2.075360	-0.259420	-0.023376	0.739866	0.679075	-1.000000	-1.000000	-1.000000	-1.000000	-1.000000	-1.000000	-1.000000	139.172414	0.000000	-1.000000	-1.000000	564935.000000	1772919159.998639
-2211.570000	25464.060000	-20488.365000	-14710.050000	0.000000	0.000000	0.000000	0.000000	47.360318	33.865366	61.972878	67.914662	-0.000000	0.000000	0.000000	-0.000000	25.514720	-2.075360	-0.259420	-0.023376	0.739866	0.679075	-1.000000	-1.000000	-1.000000	-1.000000	-1.000000	-1.000000	-1.000000	139.172414	0.000000	-1.000000	-1.000000	564936.000000	1772919159.998643
-2378.835000	25434.360000	-20636.010000	-14903.010000	0.000000	0.000000	0.000000	0.000000	-28.410085	36.174181	-19.688689	-50.093724	-0.000000	0.000000	0.000000	-0.000000	55.927900	-6.531280	-1.876980	-0.021179	0.705381	0.687864	-1.000000	-1.000000	-1.000000	-1.000000	-1.000000	-1.000000	-1.000000	139.172414	0.000000	-1.000000	-1.000000	564937.000000	1772919160.000680
-2414.475000	25529.535000	-20666.655000	-14957.730000	0.000000	0.000000	0.000000	0.000000	-95.609074	17.121260	-90.801990	-152.732593	-0.000000	0.000000	0.000000	-0.000000	55.927900	-6.531280	-1.876980	-0.021179	0.705381	0.687864	-1.000000	-1.000000	-1.000000	-1.000000	-1.000000	-1.000000	-1.000000	139.172414	0.000000	-1.000000	-1.000000	564938.000000	1772919160.000684
-2318.265000	25592.310000	-20589.660000	-14851.440000	0.000000	0.000000	0.000000	0.000000	-120.432096	-3.821049	-120.813044	-189.176572	-0.000000	0.000000	0.000000	-0.000000	55.927900	-6.531280	-1.876980	-0.021179	0.705381	0.687864	-1.000000	-1.000000	-1.000000	-1.000000	-1.000000	-1.000000	-1.000000	139.172414	0.000000	-1.000000	-1.000000	564939.000000	1772919160.004805
-2206.890000	25644.870000	-20454.705000	-14701.365000	0.000000	0.000000	0.000000	0.000000	-81.233351	-10.528360	-90.089107	-132.190367	-0.000000	0.000000	0.000000	-0.000000	55.927900	-6.531280	-1.876980	-0.021179	0.705381	0.687864	-1.000000	-1.000000	-1.000000	-1.000000	-1.000000	-1.000000	-1.000000	139.172414	0.000000	-1.000000	-1.000000	564940.000000	1772919160.004818
-2059.965000	25803.945000	-20277.540000	-14532.300000	0.000000	0.000000	0.000000	0.000000	9.523688	-1.899310	-7.234408	-2.588090	-0.000000	0.000000	0.000000	-0.000000	55.927900	-6.531280	-1.876980	-0.021179	0.705381	0.687864	-1.000000	-1.000000	-1.000000	-1.000000	-1.000000	-1.000000	-1.000000	139.172414	0.000000	-1.000000	-1.000000	564941.000000	1772919160.008747
-2085.570000	25872.705000	-20332.125000	-14565.285000	0.000000	0.000000	0.000000	0.000000	104.400135	13.993965	85.710163	133.292031	-0.000000	0.000000	0.000000	-0.000000	55.927900	-6.531280	-1.876980	-0.021179	0.705381	0.687864	-1.000000	-1.000000	-1.000000	-1.000000	-1.000000	-1.000000	-1.000000	139.172414	0.000000	-1.000000	-1.000000	564942.000000	1772919160.008751
-2183.670000	25872.255000	-20442.870000	-14648.805000	0.000000	0.000000	0.000000	0.000000	146.490879	23.992147	130.987187	199.010375	-0.000000	0.000000	0.000000	-0.000000	55.927900	-6.531280	-1.876980	-0.021179	0.705381	0.687864	-1.000000	-1.000000	-1.000000	-1.000000	-1.000000	-1.000000	-1.000000	139.172414	0.000000	-1.000000	-1.000000	564943.000000	1772919160.012784
-2257.020000	25877.565000	-20541.240000	-14788.935000	0.000000	0.000000	0.000000	0.000000	107.327467	14.106533	95.338841	156.858126	-0.000000	0.000000	0.000000	-0.000000	55.927900	-6.531280	-1.876980	-0.021179	0.705381	0.687864	-1.000000	-1.000000	-1.000000	-1.000000	-1.000000	-1.000000	-1.000000	139.172414	0.000000	-1.000000	-1.000000	564944.000000	1772919160.012786
-2277.945000	25882.875000	-20618.415000	-14906.790000	0.000000	0.000000	0.000000	0.000000	11.008952	-16.231345	0.328293	33.411330	-0.000000	0.000000	0.000000	-0.000000	55.927900	-6.531280	-1.876980	-0.021179	0.705381	0.687864	-1.000000	-1.000000	-1.000000	-1.000000	-1.000000	-1.000000	-1.000000	139.172414	0.000000	-1.000000	-1.000000	564945.000000	1772919160.016889
-2328.075000	25950.285000	-20683.620000	-14933.565000	0.000000	0.000000	0.000000	0.000000	-83.895795	-49.167375	-94.793026	-99.665058	-0.000000	0.000000	0.000000	-0.000000	55.927900	-6.531280	-1.876980	-0.021179	0.705381	0.687864	-1.000000	-1.000000	-1.000000	-1.000000	-1.000000	-1.000000	-1.000000	139.172414	0.000000	-1.000000	-1.000000	564946.000000	1772919160.016892
-2387.520000	25995.735000	-20668.680000	-14875.515000	0.000000	0.000000	0.000000	0.000000	-129.430749	-62.113300	-136.884273	-169.933349	-0.000000	0.000000	0.000000	-0.000000	56.446740	-3.753960	1.495480	-0.007263	0.710325	0.648924	-1.000000	-1.000000	-1.000000	-1.000000	-1.000000	-1.000000	-1.000000	139.172414	0.000000	-1.000000	-1.000000	564947.000000	1772919160.020916
-2285.460000	26020.215000	-20480.760000	-14692.320000	0.000000	0.000000	0.000000	0.000000	-112.291056	-46.552375	-104.763349	-142.693852	-0.000000	0.000000	0.000000	-0.000000	56.446740	-3.753960	1.495480	-0.007263	0.710325	0.648924	-1.000000	-1.000000	-1.000000	-1.000000	-1.000000	-1.000000	-1.000000	139.172414	0.000000	-1.000000	-1.000000	564948.000000	1772919160.020919
-2152.125000	26102.745000	-20328.165000	-14533.695000	0.000000	0.000000	0.000000	0.000000	-45.003634	-12.748610	-12.000536	-35.808441	-0.000000	0.000000	0.000000	-0.000000	56.446740	-3.753960	1.495480	-0.007263	0.710325	0.648924	-1.000000	-1.000000	-1.000000	-1.000000	-1.000000	-1.000000	-1.000000	139.172414	0.000000	-1.000000	-1.000000	564949.000000	1772919160.024929
-2039.715000	26143.110000	-20254.950000	-14484.645000	0.000000	0.000000	0.000000	0.000000	44.393999	22.146211	96.445333	90.306851	-0.000000	0.000000	0.000000	-0.000000	56.446740	-3.753960	1.495480	-0.007263	0.710325	0.648924	-1.000000	-1.000000	-1.000000	-1.000000	-1.000000	-1.000000	-1.000000	139.172414	0.000000	-1.000000	-1.000000	564950.000000	1772919160.024932
-1965.420000	26070.480000	-20193.345000	-14434.470000	0.000000	0.000000	0.000000	0.000000	116.825121	42.213222	162.409465	165.320862	-0.000000	0.000000	0.000000	-0.000000	56.446740	-3.753960	1.495480	-0.007263	0.710325	0.648924	-1.000000	-1.000000	-1.000000	-1.000000	-1.000000	-1.000000	-1.000000	139.172414	0.000000	-1.000000	-1.000000	564951.000000	1772919160.028837
-2039.040000	26001.360000	-20308.905000	-14518.125000	0.000000	0.000000	0.000000	0.000000	136.054572	35.399456	148.385786	150.523028	-0.000000	0.000000	0.000000	-0.000000	56.446740	-3.753960	1.495480	-0.007263	0.710325	0.648924	-1.000000	-1.000000	-1.000000	-1.000000	-1.000000	-1.000000	-1.000000	139.172414	0.000000	-1.000000	-1.000000	564952.000000	1772919160.028840
-2190.465000	25898.400000	-20508.345000	-14706.900000	0.000000	0.000000	0.000000	0.000000	86.438835	2.771484	56.109205	55.251349	-0.000000	0.000000	0.000000	-0.000000	56.446740	-3.753960	1.495480	-0.007263	0.710325	0.648924	-1.000000	-1.000000	-1.000000	-1.000000	-1.000000	-1.000000	-1.000000	139.172414	0.000000	-1.000000	-1.000000	564953.000000	1772919160.033025
-2243.745000	25808.400000	-20562.840000	-14777.685000	0.000000	0.000000	0.000000	0.000000	-13.485141	-37.828736	-74.041328	-74.127184	-0.000000	0.000000	0.000000	-0.000000	56.446740	-3.753960	1.495480	-0.007263	0.710325	0.648924	-1.000000	-1.000000	-1.000000	-1.000000	-1.000000	-1.000000	-1.000000	139.172414	0.000000	-1.000000	-1.000000	564954.000000	1772919160.033029
-2119.590000	25762.680000	-20419.380000	-14654.205000	0.000000	0.000000	0.000000	0.000000	-109.602191	-62.429700	-172.935790	-170.524297	-0.000000	0.000000	0.000000	-0.000000	56.446740	-3.753960	1.495480	-0.007263	0.710325	0.648924	-1.000000	-1.000000	-1.000000	-1.000000	-1.000000	-1.000000	-1.000000	139.172414	0.000000	-1.000000	-1.000000	564955.000000	1772919160.036915
-2093.850000	25756.830000	-20362.680000	-14572.755000	0.000000	0.000000	0.000000	0.000000	-143.211763	-54.458643	-180.103976	-177.500313	-0.000000	0.000000	0.000000	-0.000000	56.446740	-3.753960	1.495480	-0.007263	0.710325	0.648924	-1.000000	-1.000000	-1.000000	-1.000000	-1.000000	-1.000000	-1.000000	139.172414	0.000000	-1.000000	-1.000000	564956.000000	1772919160.036918
-2033.505000	25766.190000	-20280.645000	-14449.230000	0.000000	0.000000	0.000000	0.000000	-98.524420	-13.850911	-92.819393	-90.733385	-0.000000	0.000000	0.000000	-0.000000	-10.239460	-9.217040	-6.012440	-0.016174	0.807127	0.611571	-1.000000	-1.000000	-1.000000	-1.000000	-1.000000	-1.000000	-1.000000	139.172414	0.000000	-1.000000	-1.000000	564957.000000	1772919160.040863
-2044.980000	25836.480000	-20316.105000	-14506.695000	0.000000	0.000000	0.000000	0.000000	-12.257775	42.825524	30.630674	34.959181	-0.000000	0.000000	0.000000	-0.000000	-10.239460	-9.217040	-6.012440	-0.016174	0.807127	0.611571	-1.000000	-1.000000	-1.000000	-1.000000	-1.000000	-1.000000	-1.000000	139.172414	0.000000	-1.000000	-1.000000	564958.000000	1772919160.040866
-2136.240000	25877.520000	-20412.315000	-14620.995000	0.000000	0.000000	0.000000	0.000000	59.706148	91.898151	116.209504	122.901287	-0.000000	0.000000	0.000000	-0.000000	-10.239460	-9.217040	-6.012440	-0.016174	0.807127	0.611571	-1.000000	-1.000000	-1.000000	-1.000000	-1.000000	-1.000000	-1.000000	139.172414	0.000000	-1.000000	-1.000000	564959.000000	1772919160.044951
-2131.740000	25840.890000	-20327.940000	-14495.220000	0.000000	0.000000	0.000000	0.000000	80.888560	111.623262	125.372544	130.009342	-0.000000	0.000000	0.000000	-0.000000	-10.239460	-9.217040	-6.012440	-0.016174	0.807127	0.611571	-1.000000	-1.000000	-1.000000	-1.000000	-1.000000	-1.000000	-1.000000	139.172414	0.000000	-1.000000	-1.000000	564960.000000	1772919160.044961
-2240.190000	25762.545000	-20500.695000	-14679.180000	0.000000	0.000000	0.000000	0.000000	52.955611	88.704876	72.841754	72.715127	-0.000000	0.000000	0.000000	-0.000000	-10.239460	-9.217040	-6.012440	-0.016174	0.807127	0.611571	-1.000000	-1.000000	-1.000000	-1.000000	-1.000000	-1.000000	-1.000000	139.172414	0.000000	-1.000000	-1.000000	564961.000000	1772919160.048843
-2456.505000	25737.525000	-20746.845000	-14932.575000	0.000000	0.000000	0.000000	0.000000	0.499260	28.527902	-5.376604	-9.210283	-0.000000	0.000000	0.000000	-0.000000	-10.239460	-9.217040	-6.012440	-0.016174	0.807127	0.611571	-1.000000	-1.000000	-1.000000	-1.000000	-1.000000	-1.000000	-1.000000	139.172414	0.000000	-1.000000	-1.000000	564962.000000	1772919160.048847
-2482.920000	25777.395000	-20724.345000	-14967.810000	0.000000	0.000000	0.000000	0.000000	-50.598863	-40.170679	-77.637000	-84.742829	-0.000000	0.000000	0.000000	-0.000000	-10.239460	-9.217040	-6.012440	-0.016174	0.807127	0.611571	-1.000000	-1.000000	-1.000000	-1.000000	-1.000000	-1.000000	-1.000000	139.172414	0.000000	-1.000000	-1.000000	564963.000000	1772919160.052950
-2359.665000	25785.000000	-20538.585000	-14823.720000	0.000000	0.000000	0.000000	0.000000	-71.542992	-81.685008	-106.146691	-118.683296	-0.000000	0.000000	0.000000	-0.000000	-10.239460	-9.217040	-6.012440	-0.016174	0.807127	0.611571	-1.000000	-1.000000	-1.000000	-1.000000	-1.000000	-1.000000	-1.000000	139.172414	0.000000	-1.000000	-1.000000	564964.000000	1772919160.052959
-2288.520000	25830.855000	-20478.960000	-14720.400000	0.000000	0.000000	0.000000	0.000000	-39.478711	-79.383250	-62.707532	-80.401352	-0.000000	0.000000	0.000000	-0.000000	-10.239460	-9.217040	-6.012440	-0.016174	0.807127	0.611571	-1.000000	-1.000000	-1.000000	-1.000000	-1.000000	-1.000000	-1.000000	139.172414	0.000000	-1.000000	-1.000000	564965.000000	1772919160.056933
-2256.750000	25862.850000	-20448.090000	-14656.005000	0.000000	0.000000	0.000000	0.000000	33.528555	-43.386295	30.966298	17.151641	-0.000000	0.000000	0.000000	-0.000000	-10.239460	-9.217040	-6.012440	-0.016174	0.807127	0.611571	-1.000000	-1.000000	-1.000000	-1.000000	-1.000000	-1.000000	-1.000000	139.172414	0.000000	-1.000000	-1.000000	564966.000000	1772919160.056946
-2125.845000	25810.605000	-20294.370000	-14548.500000	0.000000	0.000000	0.000000	0.000000	103.243894	0.512942	115.088964	117.201325	-0.000000	0.000000	0.000000	-0.000000	-80.053960	-4.440660	0.579880	-0.005615	0.909544	0.618773	-1.000000	-1.000000	-1.000000	-1.000000	-1.000000	-1.000000	-1.000000	139.172414	0.000000	-1.000000	-1.000000	564967.000000	1772919160.061021
-2019.510000	25733.520000	-20205.495000	-14499.495000	0.000000	0.000000	0.000000	0.000000	132.017250	25.452063	145.470578	164.052331	-0.000000	0.000000	0.000000	-0.000000	-80.053960	-4.440660	0.579880	-0.005615	0.909544	0.618773	-1.000000	-1.000000	-1.000000	-1.000000	-1.000000	-1.000000	-1.000000	139.172414	0.000000	-1.000000	-1.000000	564968.000000	1772919160.061026
-2125.305000	25638.255000	-20381.490000	-14750.730000	0.000000	0.000000	0.000000	0.000000	107.543529	18.687312	111.570494	132.533266	-0.000000	0.000000	0.000000	-0.000000	-80.053960	-4.440660	0.579880	-0.005615	0.909544	0.618773	-1.000000	-1.000000	-1.000000	-1.000000	-1.000000	-1.000000	-1.000000	139.172414	0.000000	-1.000000	-1.000000	564969.000000	1772919160.065025
-2248.920000	25493.535000	-20462.490000	-14882.265000	0.000000	0.000000	0.000000	0.000000	33.922652	-11.669627	23.120278	29.714503	-0.000000	0.000000	0.000000	-0.000000	-80.053960	-4.440660	0.579880	-0.005615	0.909544	0.618773	-1.000000	-1.000000	-1.000000	-1.000000	-1.000000	-1.000000	-1.000000	139.172414	0.000000	-1.000000	-1.000000	564970.000000	1772919160.065041
-2105.415000	25502.445000	-20245.455000	-14654.880000	0.000000	0.000000	0.000000	0.000000	-62.714796	-42.923612	-81.793391	-94.634243	-0.000000	0.000000	0.000000	-0.000000	-80.053960	-4.440660	0.579880	-0.005615	0.909544	0.618773	-1.000000	-1.000000	-1.000000	-1.000000	-1.000000	-1.000000	-1.000000	139.172414	0.000000	-1.000000	-1.000000	564971.000000	1772919160.069565
-2155.725000	25564.770000	-20274.750000	-14611.590000	0.000000	0.000000	0.000000	0.000000	-132.652621	-48.168226	-142.685933	-161.982029	-0.000000	0.000000	0.000000	-0.000000	-80.053960	-4.440660	0.579880	-0.005615	0.909544	0.618773	-1.000000	-1.000000	-1.000000	-1.000000	-1.000000	-1.000000	-1.000000	139.172414	0.000000	-1.000000	-1.000000	564972.000000	1772919160.069582
-2161.575000	25567.020000	-20362.905000	-14669.280000	0.000000	0.000000	0.000000	0.000000	-141.595024	-14.591015	-131.972058	-135.012098	-0.000000	0.000000	0.000000	-0.000000	-80.053960	-4.440660	0.579880	-0.005615	0.909544	0.618773	-1.000000	-1.000000	-1.000000	-1.000000	-1.000000	-1.000000	-1.000000	139.172414	0.000000	-1.000000	-1.000000	564973.000000	1772919160.072965
-2186.415000	25580.970000	-20402.235000	-14633.730000	0.000000	0.000000	0.000000	0.000000	-97.994849	40.657802	-78.232306	-50.935202	-0.000000	0.000000	0.000000	-0.000000	-80.053960	-4.440660	0.579880	-0.005615	0.909544	0.618773	-1.000000	-1.000000	-1.000000	-1.000000	-1.000000	-1.000000	-1.000000	139.172414	0.000000	-1.000000	-1.000000	564974.000000	1772919160.072968
-2144.115000	25535.475000	-20305.575000	-14575.815000	0.000000	0.000000	0.000000	0.000000	-32.536867	82.372421	-20.404812	30.249502	-0.000000	0.000000	0.000000	-0.000000	-80.053960	-4.440660	0.579880	-0.005615	0.909544	0.618773	-1.000000	-1.000000	-1.000000	-1.000000	-1.000000	-1.000000	-1.000000	139.172414	0.000000	-1.000000	-1.000000	564975.000000	1772919160.078276
-2191.545000	25531.830000	-20308.950000	-14609.880000	0.000000	0.000000	0.000000	0.000000	26.921381	85.509583	26.611438	74.536192	-0.000000	0.000000	0.000000	-0.000000	-80.053960	-4.440660	0.579880	-0.005615	0.909544	0.618773	-1.000000	-1.000000	-1.000000	-1.000000	-1.000000	-1.000000	-1.000000	139.172414	0.000000	-1.000000	-1.000000	564976.000000	1772919160.078279
-2250.225000	25568.010000	-20463.030000	-14740.920000	0.000000	0.000000	0.000000	0.000000	61.196805	52.213968	56.303456	72.945091	-0.000000	0.000000	0.000000	-0.000000	-60.917920	-10.758300	21.577640	0.001343	0.955930	0.677183	-1.000000	-1.000000	-1.000000	-1.000000	-1.000000	-1.000000	-1.000000	139.172414	0.000000	-1.000000	-1.000000	564977.000000	1772919160.083286
-2266.875000	25559.865000	-20472.435000	-14843.565000	0.000000	0.000000	0.000000	0.000000	63.091381	5.802774	57.827538	31.601213	-0.000000	0.000000	0.000000	-0.000000	-60.917920	-10.758300	21.577640	0.001343	0.955930	0.677183	-1.000000	-1.000000	-1.000000	-1.000000	-1.000000	-1.000000	-1.000000	139.172414	0.000000	-1.000000	-1.000000	564978.000000	1772919160.083289
-2335.275000	25545.105000	-20412.405000	-14884.200000	0.000000	0.000000	0.000000	0.000000	41.165435	-31.149131	35.602628	-25.798471	-0.000000	0.000000	0.000000	-0.000000	-60.917920	-10.758300	21.577640	0.001343	0.955930	0.677183	-1.000000	-1.000000	-1.000000	-1.000000	-1.000000	-1.000000	-1.000000	139.172414	0.000000	-1.000000	-1.000000	564979.000000	1772919160.086240
-2049.660000	25488.810000	-20212.785000	-14664.465000	0.000000	0.000000	0.000000	0.000000	17.853604	-50.590151	17.101330	-60.232966	-0.000000	0.000000	0.000000	-0.000000	-60.917920	-10.758300	21.577640	0.001343	0.955930	0.677183	-1.000000	-1.000000	-1.000000	-1.000000	-1.000000	-1.000000	-1.000000	139.172414	0.000000	-1.000000	-1.000000	564980.000000	1772919160.086243
-2012.175000	25546.230000	-20460.690000	-14706.045000	0.000000	0.000000	0.000000	0.000000	17.625539	-53.705814	19.237340	-42.585631	-0.000000	0.000000	0.000000	-0.000000	-60.917920	-10.758300	21.577640	0.001343	0.955930	0.677183	-1.000000	-1.000000	-1.000000	-1.000000	-1.000000	-1.000000	-1.000000	139.172414	0.000000	-1.000000	-1.000000	564981.000000	1772919160.089279
-2103.255000	25572.195000	-20517.120000	-14693.040000	0.000000	0.000000	0.000000	0.000000	37.141775	-41.119650	21.670015	13.504908	-0.000000	0.000000	0.000000	-0.000000	-60.917920	-10.758300	21.577640	0.001343	0.955930	0.677183	-1.000000	-1.000000	-1.000000	-1.000000	-1.000000	-1.000000	-1.000000	138.965517	0.000000	-1.000000	-1.000000	564982.000000	1772919160.089282
-2000.205000	25643.880000	-20238.075000	-14492.250000	0.000000	0.000000	0.000000	0.000000	43.801108	-14.596192	5.992878	66.071392	-0.000000	0.000000	0.000000	-0.000000	-60.917920	-10.758300	21.577640	0.001343	0.955930	0.677183	-1.000000	-1.000000	-1.000000	-1.000000	-1.000000	-1.000000	-1.000000	138.965517	0.000000	-1.000000	-1.000000	564983.000000	1772919160.095530
-1987.785000	25663.770000	-20292.795000	-14521.725000	0.000000	0.000000	0.000000	0.000000	20.982741	16.597471	-8.275287	88.253782	-0.000000	0.000000	0.000000	-0.000000	-60.917920	-10.758300	21.577640	0.001343	0.955930	0.677183	-1.000000	-1.000000	-1.000000	-1.000000	-1.000000	-1.000000	-1.000000	138.965517	0.000000	-1.000000	-1.000000	564984.000000	1772919160.095533
-2115.675000	25558.515000	-20590.470000	-14783.715000	0.000000	0.000000	0.000000	0.000000	-19.354219	35.674760	-10.164552	68.217406	-0.000000	0.000000	0.000000	-0.000000	-60.917920	-10.758300	21.577640	0.001343	0.955930	0.677183	-1.000000	-1.000000	-1.000000	-1.000000	-1.000000	-1.000000	-1.000000	138.965517	0.000000	-1.000000	-1.000000	564985.000000	1772919160.098628
-2246.895000	25506.495000	-20729.295000	-14977.395000	0.000000	0.000000	0.000000	0.000000	-63.108990	27.471503	-24.638840	-0.631274	-0.000000	0.000000	0.000000	0.000000	-60.917920	-10.758300	21.577640	0.001343	0.955930	0.677183	-1.000000	-1.000000	-1.000000	-1.000000	-1.000000	-1.000000	-1.000000	138.965517	0.000000	-1.000000	-1.000000	564986.000000	1772919160.098631
-2066.265000	25502.445000	-20565.225000	-14882.580000	0.000000	0.000000	0.000000	0.000000	-93.841633	-4.416667	-56.454685	-91.670652	-0.000000	0.000000	0.000000	0.000000	34.579160	-44.116660	51.624580	-0.062866	0.868162	0.770140	-1.000000	-1.000000	-1.000000	-1.000000	-1.000000	-1.000000	-1.000000	138.965517	0.000000	-1.000000	-1.000000	564987.000000	1772919160.101643
-1960.245000	25495.470000	-20403.855000	-14670.945000	0.000000	0.000000	0.000000	0.000000	-84.191688	-35.603660	-63.408810	-138.837060	-0.000000	0.000000	0.000000	0.000000	34.579160	-44.116660	51.624580	-0.062866	0.868162	0.770140	-1.000000	-1.000000	-1.000000	-1.000000	-1.000000	-1.000000	-1.000000	138.965517	0.000000	-1.000000	-1.000000	564988.000000	1772919160.101646
-1943.055000	25347.330000	-20331.630000	-14580.180000	0.000000	0.000000	0.000000	0.000000	-25.614717	-45.946281	-13.786496	-94.614579	-0.000000	0.000000	0.000000	0.000000	34.579160	-44.116660	51.624580	-0.062866	0.868162	0.770140	-1.000000	-1.000000	-1.000000	-1.000000	-1.000000	-1.000000	-1.000000	138.965517	0.000000	-1.000000	-1.000000	564989.000000	1772919160.105070
-1960.155000	25169.670000	-20303.955000	-14577.795000	0.000000	0.000000	0.000000	0.000000	47.419322	-39.601667	65.708319	14.689860	-0.000000	0.000000	0.000000	0.000000	34.579160	-44.116660	51.624580	-0.062866	0.868162	0.770140	-1.000000	-1.000000	-1.000000	-1.000000	-1.000000	-1.000000	-1.000000	138.965517	0.000000	-1.000000	-1.000000	564990.000000	1772919160.105073
-2039.445000	25170.795000	-20337.930000	-14612.625000	0.000000	0.000000	0.000000	0.000000	86.008915	-29.913002	116.188990	110.500327	-0.000000	0.000000	0.000000	0.000000	34.579160	-44.116660	51.624580	-0.062866	0.868162	0.770140	-1.000000	-1.000000	-1.000000	-1.000000	-1.000000	-1.000000	-1.000000	138.965517	0.000000	-1.000000	-1.000000	564991.000000	1772919160.109162
-2159.640000	25129.665000	-20547.045000	-14759.415000	0.000000	0.000000	0.000000	0.000000	67.431941	-15.336774	97.770822	129.845592	-0.000000	0.000000	0.000000	0.000000	34.579160	-44.116660	51.624580	-0.062866	0.868162	0.770140	-1.000000	-1.000000	-1.000000	-1.000000	-1.000000	-1.000000	-1.000000	138.965517	0.000000	-1.000000	-1.000000	564992.000000	1772919160.109165
-2151.315000	25138.305000	-20516.985000	-14728.410000	0.000000	0.000000	0.000000	0.000000	8.331574	12.542372	16.627453	68.459101	-0.000000	0.000000	0.000000	0.000000	34.579160	-44.116660	51.624580	-0.062866	0.868162	0.770140	-1.000000	-1.000000	-1.000000	-1.000000	-1.000000	-1.000000	-1.000000	138.965517	0.000000	-1.000000	-1.000000	564993.000000	1772919160.113105
-2206.755000	25182.945000	-20583.765000	-14791.050000	0.000000	0.000000	0.000000	0.000000	-49.316022	50.136950	-77.169256	-24.709659	-0.000000	0.000000	0.000000	0.000000	34.579160	-44.116660	51.624580	-0.062866	0.868162	0.770140	-1.000000	-1.000000	-1.000000	-1.000000	-1.000000	-1.000000	-1.000000	138.965517	0.000000	-1.000000	-1.000000	564994.000000	1772919160.113108
-2292.930000	25220.385000	-20760.165000	-14986.800000	0.000000	0.000000	0.000000	0.000000	-71.958504	83.064306	-130.112361	-94.138645	-0.000000	0.000000	0.000000	0.000000	34.579160	-44.116660	51.624580	-0.062866	0.868162	0.770140	-1.000000	-1.000000	-1.000000	-1.000000	-1.000000	-1.000000	-1.000000	138.965517	0.000000	-1.000000	-1.000000	564995.000000	1772919160.117041
-2297.385000	25285.995000	-20739.825000	-14940.495000	0.000000	0.000000	0.000000	0.000000	-55.696899	96.416654	-124.802714	-115.432846	-0.000000	0.000000	0.000000	0.000000	34.579160	-44.116660	51.624580	-0.062866	0.868162	0.770140	-1.000000	-1.000000	-1.000000	-1.000000	-1.000000	-1.000000	-1.000000	138.965517	0.000000	-1.000000	-1.000000	564996.000000	1772919160.117044
-2258.280000	25315.560000	-20652.705000	-14789.970000	0.000000	0.000000	0.000000	0.000000	-14.670635	82.668432	-70.294908	-84.628627	-0.000000	0.000000	0.000000	0.000000	124.597900	-67.128740	85.608600	-0.109192	0.746153	0.748594	-1.000000	-1.000000	-1.000000	-1.000000	-1.000000	-1.000000	-1.000000	138.965517	0.000000	-1.000000	-1.000000	564997.000000	1772919160.121037
-2052.855000	25403.940000	-20425.770000	-14593.185000	0.000000	0.000000	0.000000	0.000000	37.369781	45.750997	17.877732	-6.409960	-0.000000	0.000000	0.000000	0.000000	124.597900	-67.128740	85.608600	-0.109192	0.746153	0.748594	-1.000000	-1.000000	-1.000000	-1.000000	-1.000000	-1.000000	-1.000000	138.965517	0.000000	-1.000000	-1.000000	564998.000000	1772919160.121040
-2006.190000	25482.735000	-20377.845000	-14494.500000	0.000000	0.000000	0.000000	0.000000	87.939451	-0.024622	112.581949	91.487327	-0.000000	0.000000	0.000000	0.000000	124.597900	-67.128740	85.608600	-0.109192	0.746153	0.748594	-1.000000	-1.000000	-1.000000	-1.000000	-1.000000	-1.000000	-1.000000	138.965517	0.000000	-1.000000	-1.000000	564999.000000	1772919160.125067
-2127.150000	25501.455000	-20513.970000	-14545.215000	0.000000	0.000000	0.000000	0.000000	113.322229	-38.906804	167.987372	157.132193	-0.000000	0.000000	0.000000	0.000000	124.597900	-67.128740	85.608600	-0.109192	0.746153	0.748594	-1.000000	-1.000000	-1.000000	-1.000000	-1.000000	-1.000000	-1.000000	138.965517	0.000000	-1.000000	-1.000000	565000.000000	1772919160.125071
-2097.405000	25533.450000	-20501.280000	-14617.620000	0.000000	0.000000	0.000000	0.000000	87.714937	-63.845587	144.419886	145.207878	-0.000000	0.000000	0.000000	0.000000	124.597900	-67.128740	85.608600	-0.109192	0.746153	0.748594	-1.000000	-1.000000	-1.000000	-1.000000	-1.000000	-1.000000	-1.000000	138.965517	0.000000	-1.000000	-1.000000	565001.000000	1772919160.129085
-2214.990000	25543.530000	-20656.665000	-14680.215000	0.000000	0.000000	0.000000	0.000000	15.319008	-75.001251	48.560398	54.691232	-0.000000	0.000000	0.000000	0.000000	124.597900	-67.128740	85.608600	-0.109192	0.746153	0.748594	-1.000000	-1.000000	-1.000000	-1.000000	-1.000000	-1.000000	-1.000000	138.965517	0.000000	-1.000000	-1.000000	565002.000000	1772919160.129087
-2140.830000	25605.945000	-20660.985000	-14701.635000	0.000000	0.000000	0.000000	0.000000	-66.078590	-72.565380	-68.256825	-65.477694	-0.000000	0.000000	0.000000	0.000000	124.597900	-67.128740	85.608600	-0.109192	0.746153	0.748594	-1.000000	-1.000000	-1.000000	-1.000000	-1.000000	-1.000000	-1.000000	138.965517	0.000000	-1.000000	-1.000000	565003.000000	1772919160.133078
-2018.655000	25495.245000	-20566.665000	-14696.595000	0.000000	0.000000	0.000000	0.000000	-110.714402	-58.329742	-144.752170	-150.494500	-0.000000	0.000000	0.000000	0.000000	124.597900	-67.128740	85.608600	-0.109192	0.746153	0.748594	-1.000000	-1.000000	-1.000000	-1.000000	-1.000000	-1.000000	-1.000000	138.965517	0.000000	-1.000000	-1.000000	565004.000000	1772919160.133082
-2148.795000	25356.735000	-20702.565000	-14875.785000	0.000000	0.000000	0.000000	0.000000	-97.204027	-42.607580	-146.059062	-164.790666	-0.000000	0.000000	0.000000	0.000000	124.597900	-67.128740	85.608600	-0.109192	0.746153	0.748594	-1.000000	-1.000000	-1.000000	-1.000000	-1.000000	-1.000000	-1.000000	138.965517	0.000000	-1.000000	-1.000000	565005.000000	1772919160.137169
-2216.115000	25372.665000	-20707.200000	-14822.685000	0.000000	0.000000	0.000000	0.000000	-49.015359	-34.442609	-87.306221	-118.090813	-0.000000	0.000000	0.000000	0.000000	124.597900	-67.128740	85.608600	-0.109192	0.746153	0.748594	-1.000000	-1.000000	-1.000000	-1.000000	-1.000000	-1.000000	-1.000000	138.965517	0.000000	-1.000000	-1.000000	565006.000000	1772919160.137173
-2211.120000	25327.845000	-20590.560000	-14631.795000	0.000000	0.000000	0.000000	0.000000	-6.232105	-25.796309	-9.726566	-36.771128	-0.000000	0.000000	0.000000	0.000000	-61.558840	-46.878720	80.008180	-0.040710	0.735228	0.652403	-1.000000	-1.000000	-1.000000	-1.000000	-1.000000	-1.000000	-1.000000	138.965517	0.000000	-1.000000	-1.000000	565007.000000	1772919160.141230
-2170.530000	25303.230000	-20564.325000	-14564.610000	0.000000	0.000000	0.000000	0.000000	17.004482	-3.851585	58.012174	57.819912	-0.000000	0.000000	0.000000	0.000000	-61.558840	-46.878720	80.008180	-0.040710	0.735228	0.652403	-1.000000	-1.000000	-1.000000	-1.000000	-1.000000	-1.000000	-1.000000	138.965517	0.000000	-1.000000	-1.000000	565008.000000	1772919160.141239
-2123.370000	25355.655000	-20473.380000	-14497.740000	0.000000	0.000000	0.000000	0.000000	30.751478	30.568258	100.795927	136.156877	-0.000000	0.000000	0.000000	0.000000	-61.558840	-46.878720	80.008180	-0.040710	0.735228	0.652403	-1.000000	-1.000000	-1.000000	-1.000000	-1.000000	-1.000000	-1.000000	138.965517	0.000000	-1.000000	-1.000000	565009.000000	1772919160.145178
-2243.835000	25279.245000	-20673.180000	-14709.015000	0.000000	0.000000	0.000000	0.000000	41.027123	64.638049	105.019694	159.037249	-0.000000	0.000000	0.000000	0.000000	-61.558840	-46.878720	80.008180	-0.040710	0.735228	0.652403	-1.000000	-1.000000	-1.000000	-1.000000	-1.000000	-1.000000	-1.000000	138.965517	0.000000	-1.000000	-1.000000	565010.000000	1772919160.145180
-2450.205000	25145.235000	-20980.530000	-14988.690000	0.000000	0.000000	0.000000	0.000000	36.088073	78.894934	57.917089	101.181423	-0.000000	0.000000	0.000000	0.000000	-61.558840	-46.878720	80.008180	-0.040710	0.735228	0.652403	-1.000000	-1.000000	-1.000000	-1.000000	-1.000000	-1.000000	-1.000000	138.965517	0.000000	-1.000000	-1.000000	565011.000000	1772919160.149196
-2351.295000	25066.260000	-20851.785000	-14876.955000	0.000000	0.000000	0.000000	0.000000	7.991185	59.213490	-29.075331	-16.091864	-0.000000	0.000000	0.000000	0.000000	-61.558840	-46.878720	80.008180	-0.040710	0.735228	0.652403	-1.000000	-1.000000	-1.000000	-1.000000	-1.000000	-1.000000	-1.000000	138.965517	0.000000	-1.000000	-1.000000	565012.000000	1772919160.149199
-2256.300000	25110.945000	-20764.980000	-14815.935000	0.000000	0.000000	0.000000	0.000000	-19.979078	16.460364	-99.338785	-117.754992	-0.000000	0.000000	0.000000	0.000000	-61.558840	-46.878720	80.008180	-0.040710	0.735228	0.652403	-1.000000	-1.000000	-1.000000	-1.000000	-1.000000	-1.000000	-1.000000	138.965517	0.000000	-1.000000	-1.000000	565013.000000	1772919160.153268
-2252.430000	25149.870000	-20710.395000	-14777.235000	0.000000	0.000000	0.000000	0.000000	-16.686231	-17.202912	-96.570011	-135.110659	-0.000000	0.000000	0.000000	0.000000	-61.558840	-46.878720	80.008180	-0.040710	0.735228	0.652403	-1.000000	-1.000000	-1.000000	-1.000000	-1.000000	-1.000000	-1.000000	138.965517	0.000000	-1.000000	-1.000000	565014.000000	1772919160.153270
-2251.845000	25195.275000	-20639.205000	-14713.245000	0.000000	0.000000	0.000000	0.000000	14.440143	-18.917508	-25.184692	-67.852696	-0.000000	0.000000	0.000000	0.000000	-61.558840	-46.878720	80.008180	-0.040710	0.735228	0.652403	-1.000000	-1.000000	-1.000000	-1.000000	-1.000000	-1.000000	-1.000000	138.965517	0.000000	-1.000000	-1.000000	565015.000000	1772919160.157285
-2199.240000	25224.480000	-20521.125000	-14529.645000	0.000000	0.000000	0.000000	0.000000	43.399937	5.323675	62.530116	32.144298	-0.000000	0.000000	0.000000	0.000000	-61.558840	-46.878720	80.008180	-0.040710	0.735228	0.652403	-1.000000	-1.000000	-1.000000	-1.000000	-1.000000	-1.000000	-1.000000	138.965517	0.000000	-1.000000	-1.000000	565016.000000	1772919160.157287
-2143.575000	25232.490000	-20464.065000	-14498.415000	0.000000	0.000000	0.000000	0.000000	49.753889	30.890252	116.220645	110.397861	-0.000000	0.000000	0.000000	0.000000	-98.304920	-12.131700	-28.856660	0.092956	0.703245	0.545348	-1.000000	-1.000000	-1.000000	-1.000000	-1.000000	-1.000000	-1.000000	138.965517	0.000000	-1.000000	-1.000000	565017.000000	1772919160.161207
-2071.845000	25220.880000	-20343.735000	-14561.640000	0.000000	0.000000	0.000000	0.000000	34.796664	35.992814	114.470231	130.634169	-0.000000	0.000000	0.000000	0.000000	-98.304920	-12.131700	-28.856660	0.092956	0.703245	0.545348	-1.000000	-1.000000	-1.000000	-1.000000	-1.000000	-1.000000	-1.000000	138.965517	0.000000	-1.000000	-1.000000	565018.000000	1772919160.161210
-2130.435000	25215.885000	-20346.840000	-14724.045000	0.000000	0.000000	0.000000	0.000000	8.562134	15.438733	65.501193	80.000576	-0.000000	0.000000	0.000000	0.000000	-98.304920	-12.131700	-28.856660	0.092956	0.703245	0.545348	-1.000000	-1.000000	-1.000000	-1.000000	-1.000000	-1.000000	-1.000000	138.965517	0.000000	-1.000000	-1.000000	565019.000000	1772919160.165129
-2072.070000	25181.235000	-20119.230000	-14629.365000	0.000000	0.000000	0.000000	0.000000	-21.378060	-19.288014	-3.032349	-17.703431	-0.000000	0.000000	0.000000	0.000000	-98.304920	-12.131700	-28.856660	0.092956	0.703245	0.545348	-1.000000	-1.000000	-1.000000	-1.000000	-1.000000	-1.000000	-1.000000	138.965517	0.000000	-1.000000	-1.000000	565020.000000	1772919160.165132
-2137.140000	25142.310000	-20385.720000	-14680.620000	0.000000	0.000000	0.000000	0.000000	-47.619620	-50.691986	-63.169250	-105.697279	-0.000000	0.000000	0.000000	0.000000	-98.304920	-12.131700	-28.856660	0.092956	0.703245	0.545348	-1.000000	-1.000000	-1.000000	-1.000000	-1.000000	-1.000000	-1.000000	138.965517	0.000000	-1.000000	-1.000000	565021.000000	1772919160.169251
-2275.020000	25181.505000	-20827.080000	-14770.350000	0.000000	0.000000	0.000000	0.000000	-64.908602	-64.478512	-114.592050	-137.803541	-0.000000	0.000000	0.000000	0.000000	-98.304920	-12.131700	-28.856660	0.092956	0.703245	0.545348	-1.000000	-1.000000	-1.000000	-1.000000	-1.000000	-1.000000	-1.000000	138.965517	0.000000	-1.000000	-1.000000	565022.000000	1772919160.169255
-2354.175000	25176.690000	-20869.290000	-14870.880000	0.000000	0.000000	0.000000	0.000000	-73.800114	-53.488237	-168.036156	-113.103787	-0.000000	0.000000	0.000000	0.000000	-98.304920	-12.131700	-28.856660	0.092956	0.703245	0.545348	-1.000000	-1.000000	-1.000000	-1.000000	-1.000000	-1.000000	-1.000000	138.965517	0.000000	-1.000000	-1.000000	565023.000000	1772919160.173254
-2240.055000	25156.080000	-20592.945000	-14702.940000	0.000000	0.000000	0.000000	0.000000	-68.406759	-23.040296	-188.766385	-55.460100	-0.000000	0.000000	0.000000	0.000000	-98.304920	-12.131700	-28.856660	0.092956	0.703245	0.545348	-1.000000	-1.000000	-1.000000	-1.000000	-1.000000	-1.000000	-1.000000	138.965517	0.000000	-1.000000	-1.000000	565024.000000	1772919160.173263
-2130.930000	25003.620000	-20475.225000	-14601.780000	0.000000	0.000000	0.000000	0.000000	-33.287965	7.735968	-117.893596	18.336808	-0.000000	0.000000	0.000000	0.000000	-98.304920	-12.131700	-28.856660	0.092956	0.703245	0.545348	-1.000000	-1.000000	-1.000000	-1.000000	-1.000000	-1.000000	-1.000000	138.965517	0.000000	-1.000000	-1.000000	565025.000000	1772919160.177278
-2176.830000	24950.745000	-20564.640000	-14617.350000	0.000000	0.000000	0.000000	0.000000	29.899937	19.022091	35.407217	90.769146	-0.000000	0.000000	0.000000	0.000000	-98.304920	-12.131700	-28.856660	0.092956	0.703245	0.545348	-1.000000	-1.000000	-1.000000	-1.000000	-1.000000	-1.000000	-1.000000	138.965517	0.000000	-1.000000	-1.000000	565026.000000	1772919160.177281
-2105.775000	24986.385000	-20479.905000	-14606.775000	0.000000	0.000000	0.000000	0.000000	88.778231	11.052753	181.705088	130.641596	-0.000000	0.000000	0.000000	0.000000	-74.682440	11.551820	-40.927320	0.102539	0.563292	0.544493	-1.000000	-1.000000	-1.000000	-1.000000	-1.000000	-1.000000	-1.000000	138.965517	0.000000	-1.000000	-1.000000	565027.000000	1772919160.181272
-2134.485000	24962.310000	-20535.030000	-14713.200000	0.000000	0.000000	0.000000	0.000000	109.162051	3.772142	238.238222	113.956397	-0.000000	0.000000	0.000000	0.000000	-74.682440	11.551820	-40.927320	0.102539	0.563292	0.544493	-1.000000	-1.000000	-1.000000	-1.000000	-1.000000	-1.000000	-1.000000	138.965517	0.000000	-1.000000	-1.000000	565028.000000	1772919160.181291
-2291.850000	24914.610000	-20776.950000	-14858.820000	0.000000	0.000000	0.000000	0.000000	80.001194	10.047063	184.717205	44.838344	-0.000000	0.000000	0.000000	0.000000	-74.682440	11.551820	-40.927320	0.102539	0.563292	0.544493	-1.000000	-1.000000	-1.000000	-1.000000	-1.000000	-1.000000	-1.000000	138.965517	0.000000	-1.000000	-1.000000	565029.000000	1772919160.186256
-2316.555000	24902.325000	-20675.835000	-14761.620000	0.000000	0.000000	0.000000	0.000000	13.297019	22.947830	57.053904	-43.104982	-0.000000	0.000000	0.000000	0.000000	-74.682440	11.551820	-40.927320	0.102539	0.563292	0.544493	-1.000000	-1.000000	-1.000000	-1.000000	-1.000000	-1.000000	-1.000000	138.965517	0.000000	-1.000000	-1.000000	565030.000000	1772919160.186260
-2270.565000	24897.555000	-20628.090000	-14728.005000	0.000000	0.000000	0.000000	0.000000	-56.454165	30.648265	-70.319045	-99.485760	-0.000000	0.000000	0.000000	0.000000	-74.682440	11.551820	-40.927320	0.102539	0.563292	0.544493	-1.000000	-1.000000	-1.000000	-1.000000	-1.000000	-1.000000	-1.000000	138.965517	0.000000	-1.000000	-1.000000	565031.000000	1772919160.189368
-2181.285000	24883.560000	-20506.635000	-14628.420000	0.000000	0.000000	0.000000	0.000000	-87.069653	28.884398	-127.795794	-92.048508	-0.000000	0.000000	0.000000	0.000000	-74.682440	11.551820	-40.927320	0.102539	0.563292	0.544493	-1.000000	-1.000000	-1.000000	-1.000000	-1.000000	-1.000000	-1.000000	138.965517	0.000000	-1.000000	-1.000000	565032.000000	1772919160.189377
-2048.580000	24771.195000	-20385.945000	-14498.820000	0.000000	0.000000	0.000000	0.000000	-60.198725	17.623621	-99.048254	-30.985197	-0.000000	0.000000	0.000000	0.000000	-74.682440	11.551820	-40.927320	0.102539	0.563292	0.544493	-1.000000	-1.000000	-1.000000	-1.000000	-1.000000	-1.000000	-1.000000	138.965517	0.000000	-1.000000	-1.000000	565033.000000	1772919160.195644
-1992.240000	24697.845000	-20358.945000	-14449.500000	0.000000	0.000000	0.000000	0.000000	4.780683	-3.205142	-21.903232	44.177295	-0.000000	0.000000	0.000000	0.000000	-74.682440	11.551820	-40.927320	0.102539	0.563292	0.544493	-1.000000	-1.000000	-1.000000	-1.000000	-1.000000	-1.000000	-1.000000	138.965517	0.000000	-1.000000	-1.000000	565034.000000	1772919160.195646
-2174.265000	24718.995000	-20493.270000	-14556.465000	0.000000	0.000000	0.000000	0.000000	61.112967	-26.774198	42.703135	87.886295	-0.000000	0.000000	0.000000	0.000000	-74.682440	11.551820	-40.927320	0.102539	0.563292	0.544493	-1.000000	-1.000000	-1.000000	-1.000000	-1.000000	-1.000000	-1.000000	138.965517	0.000000	-1.000000	-1.000000	565035.000000	1772919160.198683
-2339.415000	24714.675000	-20689.110000	-14755.590000	0.000000	0.000000	0.000000	0.000000	62.631425	-37.006166	47.313170	68.872053	-0.000000	0.000000	0.000000	0.000000	-74.682440	11.551820	-40.927320	0.102539	0.563292	0.544493	-1.000000	-1.000000	-1.000000	-1.000000	-1.000000	-1.000000	-1.000000	138.965517	0.000000	-1.000000	-1.000000	565036.000000	1772919160.198686
-2238.480000	24696.000000	-20638.710000	-14815.665000	0.000000	0.000000	0.000000	0.000000	6.343231	-24.710014	-7.680254	-7.069272	-0.000000	0.000000	0.000000	0.000000	-51.471980	16.358720	-22.600060	0.074829	0.621153	0.614561	-1.000000	-1.000000	-1.000000	-1.000000	-1.000000	-1.000000	-1.000000	138.965517	0.000000	-1.000000	-1.000000	565037.000000	1772919160.201709
-2217.420000	24671.970000	-20616.345000	-14748.750000	0.000000	0.000000	0.000000	0.000000	-56.729141	0.957884	-70.549221	-89.876467	-0.000000	0.000000	0.000000	0.000000	-51.471980	16.358720	-22.600060	0.074829	0.621153	0.614561	-1.000000	-1.000000	-1.000000	-1.000000	-1.000000	-1.000000	-1.000000	138.965517	0.000000	-1.000000	-1.000000	565038.000000	1772919160.201712
-2168.640000	24624.495000	-20534.355000	-14643.135000	0.000000	0.000000	0.000000	0.000000	-73.438401	22.008544	-84.910231	-117.693525	-0.000000	0.000000	0.000000	0.000000	-51.471980	16.358720	-22.600060	0.074829	0.621153	0.614561	-1.000000	-1.000000	-1.000000	-1.000000	-1.000000	-1.000000	-1.000000	138.965517	0.000000	-1.000000	-1.000000	565039.000000	1772919160.205329
-2054.970000	24664.860000	-20339.460000	-14526.720000	0.000000	0.000000	0.000000	0.000000	-35.610275	27.819692	-35.956675	-67.194865	-0.000000	0.000000	0.000000	0.000000	-51.471980	16.358720	-22.600060	0.074829	0.621153	0.614561	-1.000000	-1.000000	-1.000000	-1.000000	-1.000000	-1.000000	-1.000000	138.965517	0.000000	-1.000000	-1.000000	565040.000000	1772919160.205333
-2034.990000	24715.260000	-20298.555000	-14465.070000	0.000000	0.000000	0.000000	0.000000	27.053895	22.665112	47.364703	29.219366	-0.000000	0.000000	0.000000	0.000000	-51.471980	16.358720	-22.600060	0.074829	0.621153	0.614561	-1.000000	-1.000000	-1.000000	-1.000000	-1.000000	-1.000000	-1.000000	138.965517	0.000000	-1.000000	-1.000000	565041.000000	1772919160.209470
-2069.505000	24742.395000	-20367.945000	-14513.715000	0.000000	0.000000	0.000000	0.000000	73.146416	17.180035	111.824692	109.587098	-0.000000	0.000000	0.000000	0.000000	-51.471980	16.358720	-22.600060	0.074829	0.621153	0.614561	-1.000000	-1.000000	-1.000000	-1.000000	-1.000000	-1.000000	-1.000000	138.965517	0.000000	-1.000000	-1.000000	565042.000000	1772919160.209472
-2227.680000	24765.390000	-20530.620000	-14713.425000	0.000000	0.000000	0.000000	0.000000	71.413549	14.522092	110.041881	122.065798	-0.000000	0.000000	0.000000	0.000000	-51.471980	16.358720	-22.600060	0.074829	0.621153	0.614561	-1.000000	-1.000000	-1.000000	-1.000000	-1.000000	-1.000000	-1.000000	138.965517	0.000000	-1.000000	-1.000000	565043.000000	1772919160.213394
-2288.970000	24767.010000	-20630.880000	-14790.240000	0.000000	0.000000	0.000000	0.000000	19.597304	9.630355	36.020345	56.717292	-0.000000	0.000000	0.000000	0.000000	-51.471980	16.358720	-22.600060	0.074829	0.621153	0.614561	-1.000000	-1.000000	-1.000000	-1.000000	-1.000000	-1.000000	-1.000000	138.965517	0.000000	-1.000000	-1.000000	565044.000000	1772919160.213397
-2377.845000	24764.985000	-20751.525000	-14901.570000	0.000000	0.000000	0.000000	0.000000	-51.086396	-2.048110	-67.103984	-45.424149	-0.000000	0.000000	0.000000	0.000000	-51.471980	16.358720	-22.600060	0.074829	0.621153	0.614561	-1.000000	-1.000000	-1.000000	-1.000000	-1.000000	-1.000000	-1.000000	138.965517	0.000000	-1.000000	-1.000000	565045.000000	1772919160.217288
-2269.260000	24690.375000	-20601.990000	-14750.280000	0.000000	0.000000	0.000000	0.000000	-94.596934	-20.125973	-135.199875	-118.029303	-0.000000	0.000000	0.000000	0.000000	-51.471980	16.358720	-22.600060	0.074829	0.621153	0.614561	-1.000000	-1.000000	-1.000000	-1.000000	-1.000000	-1.000000	-1.000000	138.965517	0.000000	-1.000000	-1.000000	565046.000000	1772919160.217290
-2142.540000	24625.845000	-20409.120000	-14623.155000	0.000000	0.000000	0.000000	0.000000	-78.618568	-40.624722	-120.705926	-112.160087	-0.000000	0.000000	0.000000	0.000000	-42.407540	6.622840	-3.586100	0.041626	0.763548	0.676085	-1.000000	-1.000000	-1.000000	-1.000000	-1.000000	-1.000000	-1.000000	138.965517	0.000000	-1.000000	-1.000000	565047.000000	1772919160.221383
-2035.170000	24658.920000	-20289.420000	-14496.930000	0.000000	0.000000	0.000000	0.000000	-6.778838	-54.753311	-24.929390	-29.315687	-0.000000	0.000000	0.000000	0.000000	-42.407540	6.622840	-3.586100	0.041626	0.763548	0.676085	-1.000000	-1.000000	-1.000000	-1.000000	-1.000000	-1.000000	-1.000000	138.965517	0.000000	-1.000000	-1.000000	565048.000000	1772919160.221386
-2093.130000	24721.560000	-20342.025000	-14493.195000	0.000000	0.000000	0.000000	0.000000	77.329455	-48.812426	92.740950	76.647534	-0.000000	0.000000	0.000000	0.000000	-42.407540	6.622840	-3.586100	0.041626	0.763548	0.676085	-1.000000	-1.000000	-1.000000	-1.000000	-1.000000	-1.000000	-1.000000	138.965517	0.000000	-1.000000	-1.000000	565049.000000	1772919160.225395
-2065.140000	24851.205000	-20383.740000	-14510.205000	0.000000	0.000000	0.000000	0.000000	118.496988	-15.075094	153.791450	137.318843	-0.000000	0.000000	0.000000	0.000000	-42.407540	6.622840	-3.586100	0.041626	0.763548	0.676085	-1.000000	-1.000000	-1.000000	-1.000000	-1.000000	-1.000000	-1.000000	138.965517	0.000000	-1.000000	-1.000000	565050.000000	1772919160.225397
-2118.960000	24993.810000	-20473.830000	-14641.200000	0.000000	0.000000	0.000000	0.000000	92.807322	37.658445	120.984726	116.108810	-0.000000	0.000000	0.000000	0.000000	-42.407540	6.622840	-3.586100	0.041626	0.763548	0.676085	-1.000000	-1.000000	-1.000000	-1.000000	-1.000000	-1.000000	-1.000000	138.965517	0.000000	-1.000000	-1.000000	565051.000000	1772919160.229491
-2245.410000	24959.025000	-20588.490000	-14767.065000	0.000000	0.000000	0.000000	0.000000	18.637098	83.691169	19.782641	26.160766	-0.000000	0.000000	0.000000	0.000000	-42.407540	6.622840	-3.586100	0.041626	0.763548	0.676085	-1.000000	-1.000000	-1.000000	-1.000000	-1.000000	-1.000000	-1.000000	138.965517	0.000000	-1.000000	-1.000000	565052.000000	1772919160.229494
-2317.140000	24842.610000	-20730.735000	-14885.640000	0.000000	0.000000	0.000000	0.000000	-65.528284	89.711096	-90.714642	-83.147702	-0.000000	0.000000	0.000000	0.000000	-42.407540	6.622840	-3.586100	0.041626	0.763548	0.676085	-1.000000	-1.000000	-1.000000	-1.000000	-1.000000	-1.000000	-1.000000	138.965517	0.000000	-1.000000	-1.000000	565053.000000	1772919160.236737
-2330.370000	24791.355000	-20691.495000	-14841.270000	0.000000	0.000000	0.000000	0.000000	-120.445268	40.288462	-155.088698	-153.358367	-0.000000	0.000000	0.000000	0.000000	-42.407540	6.622840	-3.586100	0.041626	0.763548	0.676085	-1.000000	-1.000000	-1.000000	-1.000000	-1.000000	-1.000000	-1.000000	138.965517	0.000000	-1.000000	-1.000000	565054.000000	1772919160.236757
-2305.890000	24802.965000	-20520.945000	-14718.330000	0.000000	0.000000	0.000000	0.000000	-119.713567	-39.310597	-140.103314	-144.320639	-0.000000	0.000000	0.000000	0.000000	-42.407540	6.622840	-3.586100	0.041626	0.763548	0.676085	-1.000000	-1.000000	-1.000000	-1.000000	-1.000000	-1.000000	-1.000000	138.965517	0.000000	-1.000000	-1.000000	565055.000000	1772919160.237490
-2184.255000	24894.810000	-20381.805000	-14606.370000	0.000000	0.000000	0.000000	0.000000	-62.363795	-97.334768	-47.526612	-56.572624	-0.000000	0.000000	0.000000	0.000000	-42.407540	6.622840	-3.586100	0.041626	0.763548	0.676085	-1.000000	-1.000000	-1.000000	-1.000000	-1.000000	-1.000000	-1.000000	138.965517	0.000000	-1.000000	-1.000000	565056.000000	1772919160.237493
-1961.325000	25105.860000	-20210.355000	-14411.160000	0.000000	0.000000	0.000000	0.000000	28.975189	-94.065342	78.907376	66.231511	-0.000000	0.000000	0.000000	0.000000	-15.992480	-4.181240	14.832720	0.013123	0.800596	0.710753	-1.000000	-1.000000	-1.000000	-1.000000	-1.000000	-1.000000	-1.000000	138.965517	0.000000	-1.000000	-1.000000	565057.000000	1772919160.241424
-2112.075000	25186.410000	-20361.780000	-14530.230000	0.000000	0.000000	0.000000	0.000000	113.923905	-29.786606	170.344337	159.891117	-0.000000	0.000000	0.000000	0.000000	-15.992480	-4.181240	14.832720	0.013123	0.800596	0.710753	-1.000000	-1.000000	-1.000000	-1.000000	-1.000000	-1.000000	-1.000000	138.965517	0.000000	-1.000000	-1.000000	565058.000000	1772919160.241427
-2200.230000	25148.745000	-20448.990000	-14668.920000	0.000000	0.000000	0.000000	0.000000	142.069495	51.343563	169.850638	169.547469	-0.000000	0.000000	0.000000	0.000000	-15.992480	-4.181240	14.832720	0.013123	0.800596	0.710753	-1.000000	-1.000000	-1.000000	-1.000000	-1.000000	-1.000000	-1.000000	138.965517	0.000000	-1.000000	-1.000000	565059.000000	1772919160.245458
-2297.475000	25074.720000	-20485.170000	-14754.465000	0.000000	0.000000	0.000000	0.000000	89.038496	90.494763	74.722010	84.326541	-0.000000	0.000000	0.000000	0.000000	-15.992480	-4.181240	14.832720	0.013123	0.800596	0.710753	-1.000000	-1.000000	-1.000000	-1.000000	-1.000000	-1.000000	-1.000000	138.965517	0.000000	-1.000000	-1.000000	565060.000000	1772919160.245461
-2401.650000	24967.125000	-20635.695000	-14844.465000	0.000000	0.000000	0.000000	0.000000	-14.450478	60.297644	-57.442887	-46.410111	-0.000000	0.000000	0.000000	0.000000	-15.992480	-4.181240	14.832720	0.013123	0.800596	0.710753	-1.000000	-1.000000	-1.000000	-1.000000	-1.000000	-1.000000	-1.000000	138.965517	0.000000	-1.000000	-1.000000	565061.000000	1772919160.249486
-2291.220000	24945.300000	-20691.585000	-14820.120000	0.000000	0.000000	0.000000	0.000000	-104.460241	-15.824394	-155.896014	-146.604974	-0.000000	0.000000	0.000000	0.000000	-15.992480	-4.181240	14.832720	0.013123	0.800596	0.710753	-1.000000	-1.000000	-1.000000	-1.000000	-1.000000	-1.000000	-1.000000	138.965517	0.000000	-1.000000	-1.000000	565062.000000	1772919160.249489
-2373.795000	24944.040000	-20806.155000	-14878.440000	0.000000	0.000000	0.000000	0.000000	-129.550165	-84.599061	-180.743734	-165.930914	-0.000000	0.000000	0.000000	0.000000	-15.992480	-4.181240	14.832720	0.013123	0.800596	0.710753	-1.000000	-1.000000	-1.000000	-1.000000	-1.000000	-1.000000	-1.000000	138.965517	0.000000	-1.000000	-1.000000	565063.000000	1772919160.253508
-2290.455000	24829.470000	-20654.280000	-14718.870000	0.000000	0.000000	0.000000	0.000000	-84.263923	-104.729727	-129.358743	-103.767663	-0.000000	0.000000	0.000000	0.000000	-15.992480	-4.181240	14.832720	0.013123	0.800596	0.710753	-1.000000	-1.000000	-1.000000	-1.000000	-1.000000	-1.000000	-1.000000	138.965517	0.000000	-1.000000	-1.000000	565064.000000	1772919160.253510
-2122.245000	24748.560000	-20546.775000	-14587.605000	0.000000	0.000000	0.000000	0.000000	-0.796990	-75.076008	-23.655655	4.757365	-0.000000	0.000000	0.000000	0.000000	-15.992480	-4.181240	14.832720	0.013123	0.800596	0.710753	-1.000000	-1.000000	-1.000000	-1.000000	-1.000000	-1.000000	-1.000000	138.965517	0.000000	-1.000000	-1.000000	565065.000000	1772919160.257576
-2035.305000	24618.870000	-20395.845000	-14491.080000	0.000000	0.000000	0.000000	0.000000	82.380322	-23.720526	97.371224	111.244302	-0.000000	0.000000	0.000000	0.000000	-15.992480	-4.181240	14.832720	0.013123	0.800596	0.710753	-1.000000	-1.000000	-1.000000	-1.000000	-1.000000	-1.000000	-1.000000	138.965517	0.000000	-1.000000	-1.000000	565066.000000	1772919160.257579
-2012.490000	24540.210000	-20392.695000	-14518.305000	0.000000	0.000000	0.000000	0.000000	130.877386	21.133272	183.294958	167.687784	-0.000000	0.000000	0.000000	0.000000	-7.385840	-6.546540	25.942000	0.015137	0.778868	0.707823	-1.000000	-1.000000	-1.000000	-1.000000	-1.000000	-1.000000	-1.000000	138.965517	0.000000	-1.000000	-1.000000	565067.000000	1772919160.261514
-2007.675000	24551.955000	-20370.645000	-14539.725000	0.000000	0.000000	0.000000	0.000000	121.125123	48.880969	193.387851	146.086872	-0.000000	0.000000	0.000000	-0.000000	-7.385840	-6.546540	25.942000	0.015137	0.778868	0.707823	-1.000000	-1.000000	-1.000000	-1.000000	-1.000000	-1.000000	-1.000000	138.965517	0.000000	-1.000000	-1.000000	565068.000000	1772919160.261516
-2163.690000	24535.350000	-20556.360000	-14748.615000	0.000000	0.000000	0.000000	0.000000	54.030845	65.070278	119.798168	54.773177	-0.000000	0.000000	0.000000	-0.000000	-7.385840	-6.546540	25.942000	0.015137	0.778868	0.707823	-1.000000	-1.000000	-1.000000	-1.000000	-1.000000	-1.000000	-1.000000	138.965517	0.000000	-1.000000	-1.000000	565069.000000	1772919160.265601
-2322.450000	24488.100000	-20674.755000	-14884.155000	0.000000	0.000000	0.000000	0.000000	-45.579688	74.510403	-8.348948	-67.188862	-0.000000	0.000000	0.000000	-0.000000	-7.385840	-6.546540	25.942000	0.015137	0.778868	0.707823	-1.000000	-1.000000	-1.000000	-1.000000	-1.000000	-1.000000	-1.000000	138.965517	0.000000	-1.000000	-1.000000	565070.000000	1772919160.265604
-2256.345000	24405.525000	-20505.240000	-14749.155000	0.000000	0.000000	0.000000	0.000000	-134.951707	71.168796	-131.302988	-162.392033	-0.000000	0.000000	0.000000	-0.000000	-7.385840	-6.546540	25.942000	0.015137	0.778868	0.707823	-1.000000	-1.000000	-1.000000	-1.000000	-1.000000	-1.000000	-1.000000	138.965517	0.000000	-1.000000	-1.000000	565071.000000	1772919160.269593
-2175.390000	24400.305000	-20437.245000	-14658.255000	0.000000	0.000000	0.000000	0.000000	-164.417039	48.967723	-181.656947	-175.582920	-0.000000	0.000000	0.000000	-0.000000	-7.385840	-6.546540	25.942000	0.015137	0.778868	0.707823	-1.000000	-1.000000	-1.000000	-1.000000	-1.000000	-1.000000	-1.000000	138.965517	0.000000	-1.000000	-1.000000	565072.000000	1772919160.269597
-2078.370000	24484.590000	-20358.900000	-14575.995000	0.000000	0.000000	0.000000	0.000000	-110.840966	16.890330	-134.547034	-95.270563	-0.000000	0.000000	0.000000	-0.000000	-7.385840	-6.546540	25.942000	0.015137	0.778868	0.707823	-1.000000	-1.000000	-1.000000	-1.000000	-1.000000	-1.000000	-1.000000	138.965517	0.000000	-1.000000	-1.000000	565073.000000	1772919160.273562
-2119.095000	24501.150000	-20340.360000	-14539.680000	0.000000	0.000000	0.000000	0.000000	-4.248127	-6.068835	-29.978421	29.280722	-0.000000	0.000000	0.000000	-0.000000	-7.385840	-6.546540	25.942000	0.015137	0.778868	0.707823	-1.000000	-1.000000	-1.000000	-1.000000	-1.000000	-1.000000	-1.000000	138.965517	0.000000	-1.000000	-1.000000	565074.000000	1772919160.273565
-2062.350000	24526.755000	-20277.630000	-14471.010000	0.000000	0.000000	0.000000	0.000000	92.455700	-11.938803	65.428485	126.888314	-0.000000	0.000000	0.000000	-0.000000	-7.385840	-6.546540	25.942000	0.015137	0.778868	0.707823	-1.000000	-1.000000	-1.000000	-1.000000	-1.000000	-1.000000	-1.000000	138.965517	0.000000	-1.000000	-1.000000	565075.000000	1772919160.277592
-1996.200000	24477.930000	-20350.665000	-14522.670000	0.000000	0.000000	0.000000	0.000000	133.334412	-10.609930	105.723426	152.703990	-0.000000	0.000000	0.000000	-0.000000	-7.385840	-6.546540	25.942000	0.015137	0.778868	0.707823	-1.000000	-1.000000	-1.000000	-1.000000	-1.000000	-1.000000	-1.000000	138.965517	0.000000	-1.000000	-1.000000	565076.000000	1772919160.277595
-2176.875000	24459.615000	-20625.435000	-14669.190000	0.000000	0.000000	0.000000	0.000000	111.095538	-16.013974	77.886715	102.385807	-0.000000	0.000000	0.000000	-0.000000	-8.057280	-6.851740	15.260000	0.018005	0.707274	0.701658	-1.000000	-1.000000	-1.000000	-1.000000	-1.000000	-1.000000	-1.000000	138.965517	0.000000	-1.000000	-1.000000	565077.000000	1772919160.281664
-2256.795000	24501.330000	-20681.190000	-14744.880000	0.000000	0.000000	0.000000	0.000000	41.357449	-29.921489	-1.519211	4.032430	-0.000000	0.000000	0.000000	-0.000000	-8.057280	-6.851740	15.260000	0.018005	0.707274	0.701658	-1.000000	-1.000000	-1.000000	-1.000000	-1.000000	-1.000000	-1.000000	138.965517	0.000000	-1.000000	-1.000000	565078.000000	1772919160.281667
-2220.390000	24478.560000	-20602.305000	-14706.945000	0.000000	0.000000	0.000000	0.000000	-42.927633	-40.899970	-82.524452	-91.218979	-0.000000	0.000000	0.000000	-0.000000	-8.057280	-6.851740	15.260000	0.018005	0.707274	0.701658	-1.000000	-1.000000	-1.000000	-1.000000	-1.000000	-1.000000	-1.000000	138.965517	0.000000	-1.000000	-1.000000	565079.000000	1772919160.288034
-2060.055000	24417.945000	-20443.320000	-14560.830000	0.000000	0.000000	0.000000	0.000000	-93.413277	-40.578712	-103.743061	-129.691671	-0.000000	0.000000	0.000000	-0.000000	-8.057280	-6.851740	15.260000	0.018005	0.707274	0.701658	-1.000000	-1.000000	-1.000000	-1.000000	-1.000000	-1.000000	-1.000000	138.965517	0.000000	-1.000000	-1.000000	565080.000000	1772919160.288038
-2108.025000	24388.470000	-20480.850000	-14584.680000	0.000000	0.000000	0.000000	0.000000	-80.206136	-32.260668	-46.189964	-91.340999	-0.000000	0.000000	0.000000	-0.000000	-8.057280	-6.851740	15.260000	0.018005	0.707274	0.701658	-1.000000	-1.000000	-1.000000	-1.000000	-1.000000	-1.000000	-1.000000	138.965517	0.000000	-1.000000	-1.000000	565081.000000	1772919160.291048
-2272.005000	24356.610000	-20589.030000	-14681.430000	0.000000	0.000000	0.000000	0.000000	-25.716981	-21.462661	43.495051	-10.601485	-0.000000	0.000000	0.000000	-0.000000	-8.057280	-6.851740	15.260000	0.018005	0.707274	0.701658	-1.000000	-1.000000	-1.000000	-1.000000	-1.000000	-1.000000	-1.000000	138.965517	0.000000	-1.000000	-1.000000	565082.000000	1772919160.291051
-2107.035000	24468.345000	-20408.850000	-14501.295000	0.000000	0.000000	0.000000	0.000000	21.268171	-6.834398	100.686996	56.437364	-0.000000	0.000000	0.000000	-0.000000	-8.057280	-6.851740	15.260000	0.018005	0.707274	0.701658	-1.000000	-1.000000	-1.000000	-1.000000	-1.000000	-1.000000	-1.000000	138.965517	0.000000	-1.000000	-1.000000	565083.000000	1772919160.294076
-2065.365000	24554.790000	-20384.055000	-14552.055000	0.000000	0.000000	0.000000	0.000000	41.822498	17.440455	104.229552	83.153133	-0.000000	0.000000	0.000000	-0.000000	-8.057280	-6.851740	15.260000	0.018005	0.707274	0.701658	-1.000000	-1.000000	-1.000000	-1.000000	-1.000000	-1.000000	-1.000000	138.965517	0.000000	-1.000000	-1.000000	565084.000000	1772919160.294078
-2145.420000	24596.460000	-20454.750000	-14626.980000	0.000000	0.000000	0.000000	0.000000	44.909701	48.613701	70.241453	71.314839	-0.000000	0.000000	0.000000	-0.000000	-8.057280	-6.851740	15.260000	0.018005	0.707274	0.701658	-1.000000	-1.000000	-1.000000	-1.000000	-1.000000	-1.000000	-1.000000	138.965517	0.000000	-1.000000	-1.000000	565085.000000	1772919160.300419
-2225.070000	24564.375000	-20626.830000	-14833.350000	0.000000	0.000000	0.000000	0.000000	31.953162	68.188549	13.234544	26.599212	-0.000000	0.000000	0.000000	-0.000000	-8.057280	-6.851740	15.260000	0.018005	0.707274	0.701658	-1.000000	-1.000000	-1.000000	-1.000000	-1.000000	-1.000000	-1.000000	138.965517	0.000000	-1.000000	-1.000000	565086.000000	1772919160.300422
-2303.370000	24449.445000	-20680.425000	-14884.245000	0.000000	0.000000	0.000000	0.000000	0.670976	54.948785	-54.646487	-37.042359	-0.000000	0.000000	0.000000	-0.000000	-15.717800	3.830260	-13.123600	0.022766	0.618407	0.681456	-1.000000	-1.000000	-1.000000	-1.000000	-1.000000	-1.000000	-1.000000	138.965517	0.000000	-1.000000	-1.000000	565087.000000	1772919160.303456
-2303.010000	24332.220000	-20626.515000	-14774.760000	0.000000	0.000000	0.000000	0.000000	-35.862863	4.856849	-105.870676	-85.357878	-0.000000	0.000000	0.000000	-0.000000	-15.717800	3.830260	-13.123600	0.022766	0.618407	0.681456	-1.000000	-1.000000	-1.000000	-1.000000	-1.000000	-1.000000	-1.000000	138.965517	0.000000	-1.000000	-1.000000	565088.000000	1772919160.303459
-2217.015000	24344.010000	-20549.655000	-14714.235000	0.000000	0.000000	0.000000	0.000000	-52.755536	-58.907079	-107.285364	-80.785295	-0.000000	0.000000	0.000000	-0.000000	-15.717800	3.830260	-13.123600	0.022766	0.618407	0.681456	-1.000000	-1.000000	-1.000000	-1.000000	-1.000000	-1.000000	-1.000000	138.965517	0.000000	-1.000000	-1.000000	565089.000000	1772919160.305777
-2105.280000	24420.870000	-20404.530000	-14551.065000	0.000000	0.000000	0.000000	0.000000	-32.358116	-95.366296	-50.256577	-18.249669	-0.000000	0.000000	0.000000	-0.000000	-15.717800	3.830260	-13.123600	0.022766	0.618407	0.681456	-1.000000	-1.000000	-1.000000	-1.000000	-1.000000	-1.000000	-1.000000	138.965517	0.000000	-1.000000	-1.000000	565090.000000	1772919160.305780
-2093.715000	24555.735000	-20408.580000	-14500.125000	0.000000	0.000000	0.000000	0.000000	17.250876	-74.945180	36.129953	66.705862	-0.000000	0.000000	0.000000	-0.000000	-15.717800	3.830260	-13.123600	0.022766	0.618407	0.681456	-1.000000	-1.000000	-1.000000	-1.000000	-1.000000	-1.000000	-1.000000	138.965517	0.000000	-1.000000	-1.000000	565091.000000	1772919160.309787
-2076.480000	24643.395000	-20392.695000	-14455.170000	0.000000	0.000000	0.000000	0.000000	63.230187	-4.874807	101.627331	123.605971	-0.000000	0.000000	0.000000	-0.000000	-15.717800	3.830260	-13.123600	0.022766	0.618407	0.681456	-1.000000	-1.000000	-1.000000	-1.000000	-1.000000	-1.000000	-1.000000	138.965517	0.000000	-1.000000	-1.000000	565092.000000	1772919160.309789
-2085.165000	24685.335000	-20416.140000	-14528.070000	0.000000	0.000000	0.000000	0.000000	73.995639	73.353769	109.429707	117.888275	-0.000000	0.000000	0.000000	-0.000000	-15.717800	3.830260	-13.123600	0.022766	0.618407	0.681456	-1.000000	-1.000000	-1.000000	-1.000000	-1.000000	-1.000000	-1.000000	138.965517	0.000000	-1.000000	-1.000000	565093.000000	1772919160.313741
-2195.325000	24618.600000	-20561.445000	-14763.015000	0.000000	0.000000	0.000000	0.000000	41.831915	111.232211	58.282141	46.500451	-0.000000	0.000000	0.000000	-0.000000	-15.717800	3.830260	-13.123600	0.022766	0.618407	0.681456	-1.000000	-1.000000	-1.000000	-1.000000	-1.000000	-1.000000	-1.000000	138.965517	0.000000	-1.000000	-1.000000	565094.000000	1772919160.313744
-2300.850000	24586.335000	-20678.580000	-14848.875000	0.000000	0.000000	0.000000	0.000000	-18.322924	84.909481	-25.079630	-62.074994	-0.000000	0.000000	0.000000	-0.000000	-15.717800	3.830260	-13.123600	0.022766	0.618407	0.681456	-1.000000	-1.000000	-1.000000	-1.000000	-1.000000	-1.000000	-1.000000	138.965517	0.000000	-1.000000	-1.000000	565095.000000	1772919160.317716
-2172.015000	24621.975000	-20514.420000	-14639.130000	0.000000	0.000000	0.000000	0.000000	-75.000507	12.212617	-97.016507	-149.596390	-0.000000	0.000000	0.000000	-0.000000	-15.717800	3.830260	-13.123600	0.022766	0.618407	0.681456	-1.000000	-1.000000	-1.000000	-1.000000	-1.000000	-1.000000	-1.000000	138.965517	0.000000	-1.000000	-1.000000	565096.000000	1772919160.317719
-2117.115000	24654.060000	-20479.545000	-14653.755000	0.000000	0.000000	0.000000	0.000000	-90.676947	-60.000257	-112.347082	-156.633353	-0.000000	0.000000	0.000000	-0.000000	-9.262820	9.369640	-24.599120	0.040405	0.594603	0.684813	-1.000000	-1.000000	-1.000000	-1.000000	-1.000000	-1.000000	-1.000000	138.965517	0.000000	-1.000000	-1.000000	565097.000000	1772919160.321673
-2164.680000	24671.610000	-20495.655000	-14732.190000	0.000000	0.000000	0.000000	0.000000	-53.768528	-92.133229	-61.916696	-80.383362	-0.000000	0.000000	0.000000	-0.000000	-9.262820	9.369640	-24.599120	0.040405	0.594603	0.684813	-1.000000	-1.000000	-1.000000	-1.000000	-1.000000	-1.000000	-1.000000	138.965517	0.000000	-1.000000	-1.000000	565098.000000	1772919160.321676
-2151.225000	24677.055000	-20440.170000	-14619.825000	0.000000	0.000000	0.000000	0.000000	6.040635	-77.237429	15.711922	22.387197	-0.000000	0.000000	0.000000	-0.000000	-9.262820	9.369640	-24.599120	0.040405	0.594603	0.684813	-1.000000	-1.000000	-1.000000	-1.000000	-1.000000	-1.000000	-1.000000	138.965517	0.000000	-1.000000	-1.000000	565099.000000	1772919160.325775
-2102.265000	24588.045000	-20410.605000	-14596.830000	0.000000	0.000000	0.000000	0.000000	50.291354	-37.231718	73.552737	96.626146	-0.000000	0.000000	0.000000	-0.000000	-9.262820	9.369640	-24.599120	0.040405	0.594603	0.684813	-1.000000	-1.000000	-1.000000	-1.000000	-1.000000	-1.000000	-1.000000	138.965517	0.000000	-1.000000	-1.000000	565100.000000	1772919160.325784
-2161.800000	24536.250000	-20448.270000	-14627.385000	0.000000	0.000000	0.000000	0.000000	62.395347	-2.159736	88.298873	120.168169	-0.000000	0.000000	0.000000	-0.000000	-9.262820	9.369640	-24.599120	0.040405	0.594603	0.684813	-1.000000	-1.000000	-1.000000	-1.000000	-1.000000	-1.000000	-1.000000	138.965517	0.000000	-1.000000	-1.000000	565101.000000	1772919160.329657
-2285.370000	24490.530000	-20601.135000	-14787.765000	0.000000	0.000000	0.000000	0.000000	42.696122	12.121784	58.402970	91.152925	-0.000000	0.000000	0.000000	-0.000000	-9.262820	9.369640	-24.599120	0.040405	0.594603	0.684813	-1.000000	-1.000000	-1.000000	-1.000000	-1.000000	-1.000000	-1.000000	138.965517	0.000000	-1.000000	-1.000000	565102.000000	1772919160.329659
-2312.190000	24428.160000	-20586.420000	-14844.555000	0.000000	0.000000	0.000000	0.000000	0.974288	10.355617	-0.722311	22.870154	-0.000000	0.000000	0.000000	-0.000000	-9.262820	9.369640	-24.599120	0.040405	0.594603	0.684813	-1.000000	-1.000000	-1.000000	-1.000000	-1.000000	-1.000000	-1.000000	138.965517	0.000000	-1.000000	-1.000000	565103.000000	1772919160.333684
-2243.340000	24473.745000	-20530.980000	-14768.415000	0.000000	0.000000	0.000000	0.000000	-38.608869	6.956906	-55.129380	-49.766260	-0.000000	0.000000	0.000000	-0.000000	-9.262820	9.369640	-24.599120	0.040405	0.594603	0.684813	-1.000000	-1.000000	-1.000000	-1.000000	-1.000000	-1.000000	-1.000000	138.965517	0.000000	-1.000000	-1.000000	565104.000000	1772919160.333686
-2140.830000	24569.235000	-20567.475000	-14731.335000	0.000000	0.000000	0.000000	0.000000	-46.672457	15.600286	-71.441542	-83.450569	-0.000000	0.000000	0.000000	-0.000000	-9.262820	9.369640	-24.599120	0.040405	0.594603	0.684813	-1.000000	-1.000000	-1.000000	-1.000000	-1.000000	-1.000000	-1.000000	138.965517	0.000000	-1.000000	-1.000000	565105.000000	1772919160.337674
-2078.370000	24621.615000	-20518.470000	-14628.105000	0.000000	0.000000	0.000000	0.000000	-14.508811	39.904644	-45.587438	-60.100472	-0.000000	0.000000	0.000000	-0.000000	-9.262820	9.369640	-24.599120	0.040405	0.594603	0.684813	-1.000000	-1.000000	-1.000000	-1.000000	-1.000000	-1.000000	-1.000000	138.965517	0.000000	-1.000000	-1.000000	565106.000000	1772919160.337677
-2076.750000	24627.375000	-20438.955000	-14523.030000	0.000000	0.000000	0.000000	0.000000	34.521565	65.510238	1.375022	1.048000	-0.000000	0.000000	0.000000	-0.000000	12.955740	2.868880	-3.845520	0.007080	0.689390	0.717222	-1.000000	-1.000000	-1.000000	-1.000000	-1.000000	-1.000000	-1.000000	138.965517	0.000000	-1.000000	-1.000000	565107.000000	1772919160.341709
-2171.250000	24689.520000	-20472.255000	-14571.540000	0.000000	0.000000	0.000000	0.000000	62.056226	70.571932	44.144908	60.152575	-0.000000	0.000000	0.000000	-0.000000	12.955740	2.868880	-3.845520	0.007080	0.689390	0.717222	-1.000000	-1.000000	-1.000000	-1.000000	-1.000000	-1.000000	-1.000000	138.965517	0.000000	-1.000000	-1.000000	565108.000000	1772919160.341712
-2127.195000	24749.280000	-20482.110000	-14629.320000	0.000000	0.000000	0.000000	0.000000	46.338674	47.789294	61.565821	78.706476	-0.000000	0.000000	0.000000	-0.000000	12.955740	2.868880	-3.845520	0.007080	0.689390	0.717222	-1.000000	-1.000000	-1.000000	-1.000000	-1.000000	-1.000000	-1.000000	138.965517	0.000000	-1.000000	-1.000000	565109.000000	1772919160.345778
-2189.430000	24772.995000	-20547.720000	-14672.880000	0.000000	0.000000	0.000000	0.000000	0.058157	8.726863	44.727248	43.674614	-0.000000	0.000000	0.000000	-0.000000	12.955740	2.868880	-3.845520	0.007080	0.689390	0.717222	-1.000000	-1.000000	-1.000000	-1.000000	-1.000000	-1.000000	-1.000000	138.965517	0.000000	-1.000000	-1.000000	565110.000000	1772919160.345790
-2234.430000	24741.630000	-20654.730000	-14798.745000	0.000000	0.000000	0.000000	0.000000	-46.292280	-31.171572	2.425365	-23.148592	-0.000000	0.000000	0.000000	-0.000000	12.955740	2.868880	-3.845520	0.007080	0.689390	0.717222	-1.000000	-1.000000	-1.000000	-1.000000	-1.000000	-1.000000	-1.000000	138.965517	0.000000	-1.000000	-1.000000	565111.000000	1772919160.349821
-2213.145000	24668.235000	-20668.770000	-14848.065000	0.000000	0.000000	0.000000	0.000000	-69.556654	-63.472129	-44.165691	-84.126319	-0.000000	0.000000	0.000000	-0.000000	12.955740	2.868880	-3.845520	0.007080	0.689390	0.717222	-1.000000	-1.000000	-1.000000	-1.000000	-1.000000	-1.000000	-1.000000	138.965517	0.000000	-1.000000	-1.000000	565112.000000	1772919160.349834
-2188.530000	24606.090000	-20599.830000	-14797.665000	0.000000	0.000000	0.000000	0.000000	-60.235599	-84.389552	-68.522954	-106.824062	-0.000000	0.000000	0.000000	-0.000000	12.955740	2.868880	-3.845520	0.007080	0.689390	0.717222	-1.000000	-1.000000	-1.000000	-1.000000	-1.000000	-1.000000	-1.000000	138.965517	0.000000	-1.000000	-1.000000	565113.000000	1772919160.353737
-2172.060000	24554.745000	-20438.595000	-14635.125000	0.000000	0.000000	0.000000	0.000000	-23.623894	-88.819555	-50.329160	-74.095599	-0.000000	0.000000	0.000000	-0.000000	12.955740	2.868880	-3.845520	0.007080	0.689390	0.717222	-1.000000	-1.000000	-1.000000	-1.000000	-1.000000	-1.000000	-1.000000	138.965517	0.000000	-1.000000	-1.000000	565114.000000	1772919160.353743
-2192.040000	24498.720000	-20352.285000	-14533.515000	0.000000	0.000000	0.000000	0.000000	20.568523	-71.808867	7.240235	5.315334	-0.000000	0.000000	0.000000	-0.000000	12.955740	2.868880	-3.845520	0.007080	0.689390	0.717222	-1.000000	-1.000000	-1.000000	-1.000000	-1.000000	-1.000000	-1.000000	138.965517	0.000000	-1.000000	-1.000000	565115.000000	1772919160.357729
-2140.470000	24555.420000	-20333.385000	-14506.245000	0.000000	0.000000	0.000000	0.000000	50.460921	-33.617361	71.300942	92.114987	-0.000000	0.000000	0.000000	-0.000000	12.955740	2.868880	-3.845520	0.007080	0.689390	0.717222	-1.000000	-1.000000	-1.000000	-1.000000	-1.000000	-1.000000	-1.000000	138.965517	0.000000	-1.000000	-1.000000	565116.000000	1772919160.357732
-2171.655000	24556.500000	-20453.715000	-14568.255000	0.000000	0.000000	0.000000	0.000000	56.023163	18.584351	97.114372	135.098675	-0.000000	0.000000	0.000000	-0.000000	31.435600	-6.516020	11.185580	0.003723	0.754332	0.731871	-1.000000	-1.000000	-1.000000	-1.000000	-1.000000	-1.000000	-1.000000	138.965517	0.000000	-1.000000	-1.000000	565117.000000	1772919160.361858
-2123.055000	24554.835000	-20481.165000	-14622.255000	0.000000	0.000000	0.000000	0.000000	40.633747	68.701501	61.675188	106.305184	-0.000000	0.000000	0.000000	-0.000000	31.435600	-6.516020	11.185580	0.003723	0.754332	0.731871	-1.000000	-1.000000	-1.000000	-1.000000	-1.000000	-1.000000	-1.000000	138.965517	0.000000	-1.000000	-1.000000	565118.000000	1772919160.361861
-2157.570000	24567.120000	-20575.755000	-14747.985000	0.000000	0.000000	0.000000	0.000000	14.853891	96.407847	-15.822374	20.722169	-0.000000	0.000000	0.000000	-0.000000	31.435600	-6.516020	11.185580	0.003723	0.754332	0.731871	-1.000000	-1.000000	-1.000000	-1.000000	-1.000000	-1.000000	-1.000000	138.965517	0.000000	-1.000000	-1.000000	565119.000000	1772919160.366377
-2236.095000	24539.895000	-20643.660000	-14794.470000	0.000000	0.000000	0.000000	0.000000	-12.026356	90.719501	-90.031398	-75.946885	-0.000000	0.000000	0.000000	-0.000000	31.435600	-6.516020	11.185580	0.003723	0.754332	0.731871	-1.000000	-1.000000	-1.000000	-1.000000	-1.000000	-1.000000	-1.000000	138.965517	0.000000	-1.000000	-1.000000	565120.000000	1772919160.366380
-2215.665000	24511.185000	-20591.460000	-14758.065000	0.000000	0.000000	0.000000	0.000000	-34.622734	55.826722	-121.225668	-133.809430	-0.000000	0.000000	0.000000	-0.000000	31.435600	-6.516020	11.185580	0.003723	0.754332	0.731871	-1.000000	-1.000000	-1.000000	-1.000000	-1.000000	-1.000000	-1.000000	138.965517	0.000000	-1.000000	-1.000000	565121.000000	1772919160.369762
-2218.860000	24516.045000	-20576.745000	-14753.790000	0.000000	0.000000	0.000000	0.000000	-45.154859	7.551070	-93.522223	-124.265947	-0.000000	0.000000	0.000000	-0.000000	31.435600	-6.516020	11.185580	0.003723	0.754332	0.731871	-1.000000	-1.000000	-1.000000	-1.000000	-1.000000	-1.000000	-1.000000	138.965517	0.000000	-1.000000	-1.000000	565122.000000	1772919160.369765
-2065.905000	24520.905000	-20390.085000	-14564.610000	0.000000	0.000000	0.000000	0.000000	-34.149400	-33.340791	-19.228737	-54.017036	-0.000000	0.000000	0.000000	-0.000000	31.435600	-6.516020	11.185580	0.003723	0.754332	0.731871	-1.000000	-1.000000	-1.000000	-1.000000	-1.000000	-1.000000	-1.000000	138.965517	0.000000	-1.000000	-1.000000	565123.000000	1772919160.373822
-1839.195000	24575.310000	-20164.995000	-14354.415000	0.000000	0.000000	0.000000	0.000000	2.670083	-50.981122	71.833380	45.416543	-0.000000	0.000000	0.000000	-0.000000	31.435600	-6.516020	11.185580	0.003723	0.754332	0.731871	-1.000000	-1.000000	-1.000000	-1.000000	-1.000000	-1.000000	-1.000000	138.965517	0.000000	-1.000000	-1.000000	565124.000000	1772919160.373825
-1941.390000	24606.180000	-20290.275000	-14454.945000	0.000000	0.000000	0.000000	0.000000	51.988886	-42.010037	140.960552	129.841218	-0.000000	0.000000	0.000000	-0.000000	31.435600	-6.516020	11.185580	0.003723	0.754332	0.731871	-1.000000	-1.000000	-1.000000	-1.000000	-1.000000	-1.000000	-1.000000	138.965517	0.000000	-1.000000	-1.000000	565125.000000	1772919160.377835
-2100.690000	24628.230000	-20425.545000	-14519.880000	0.000000	0.000000	0.000000	0.000000	74.427582	-16.674428	144.055246	150.479994	-0.000000	0.000000	0.000000	-0.000000	31.435600	-6.516020	11.185580	0.003723	0.754332	0.731871	-1.000000	-1.000000	-1.000000	-1.000000	-1.000000	-1.000000	-1.000000	138.965517	0.000000	-1.000000	-1.000000	565126.000000	1772919160.377838
-2269.620000	24624.810000	-20626.470000	-14669.865000	0.000000	0.000000	0.000000	0.000000	35.941604	7.411209	62.585108	86.487083	-0.000000	0.000000	0.000000	-0.000000	32.931080	-6.363420	4.700080	0.039917	0.736998	0.710447	-1.000000	-1.000000	-1.000000	-1.000000	-1.000000	-1.000000	-1.000000	138.965517	0.000000	-1.000000	-1.000000	565127.000000	1772919160.381889
-2389.365000	24515.640000	-20766.330000	-14900.535000	0.000000	0.000000	0.000000	0.000000	-49.194268	14.656949	-66.974819	-32.348697	-0.000000	0.000000	0.000000	-0.000000	32.931080	-6.363420	4.700080	0.039917	0.736998	0.710447	-1.000000	-1.000000	-1.000000	-1.000000	-1.000000	-1.000000	-1.000000	138.965517	0.000000	-1.000000	-1.000000	565128.000000	1772919160.381892
-2299.815000	24438.060000	-20714.355000	-14935.680000	0.000000	0.000000	0.000000	0.000000	-122.649704	-1.140342	-170.611054	-144.848883	-0.000000	0.000000	0.000000	-0.000000	32.931080	-6.363420	4.700080	0.039917	0.736998	0.710447	-1.000000	-1.000000	-1.000000	-1.000000	-1.000000	-1.000000	-1.000000	138.965517	0.000000	-1.000000	-1.000000	565129.000000	1772919160.385896
-2197.395000	24424.155000	-20581.695000	-14813.505000	0.000000	0.000000	0.000000	0.000000	-126.087222	-29.770956	-182.818206	-188.109764	-0.000000	0.000000	0.000000	-0.000000	32.931080	-6.363420	4.700080	0.039917	0.736998	0.710447	-1.000000	-1.000000	-1.000000	-1.000000	-1.000000	-1.000000	-1.000000	138.965517	0.000000	-1.000000	-1.000000	565130.000000	1772919160.385899
-2112.840000	24503.760000	-20439.090000	-14652.900000	0.000000	0.000000	0.000000	0.000000	-47.723403	-46.187088	-90.192470	-128.968892	-0.000000	0.000000	0.000000	-0.000000	32.931080	-6.363420	4.700080	0.039917	0.736998	0.710447	-1.000000	-1.000000	-1.000000	-1.000000	-1.000000	-1.000000	-1.000000	138.965517	0.000000	-1.000000	-1.000000	565131.000000	1772919160.402168
-2068.785000	24655.185000	-20364.840000	-14546.700000	0.000000	0.000000	0.000000	0.000000	66.318537	-28.091931	55.924556	7.267997	-0.000000	0.000000	0.000000	-0.000000	32.931080	-6.363420	4.700080	0.039917	0.736998	0.710447	-1.000000	-1.000000	-1.000000	-1.000000	-1.000000	-1.000000	-1.000000	138.965517	0.000000	-1.000000	-1.000000	565132.000000	1772919160.402171
-2097.000000	24735.465000	-20391.030000	-14538.195000	0.000000	0.000000	0.000000	0.000000	147.463650	23.262631	171.818373	145.017721	-0.000000	0.000000	0.000000	-0.000000	32.931080	-6.363420	4.700080	0.039917	0.736998	0.710447	-1.000000	-1.000000	-1.000000	-1.000000	-1.000000	-1.000000	-1.000000	138.965517	0.000000	-1.000000	-1.000000	565133.000000	1772919160.402175
-2102.400000	24823.575000	-20412.945000	-14544.495000	0.000000	0.000000	0.000000	0.000000	152.244370	78.884026	195.173910	207.407658	-0.000000	0.000000	0.000000	-0.000000	32.931080	-6.363420	4.700080	0.039917	0.736998	0.710447	-1.000000	-1.000000	-1.000000	-1.000000	-1.000000	-1.000000	-1.000000	138.965517	0.000000	-1.000000	-1.000000	565134.000000	1772919160.402178
-2176.065000	24910.830000	-20554.920000	-14691.420000	0.000000	0.000000	0.000000	0.000000	84.979341	103.591329	120.049413	164.159003	-0.000000	0.000000	0.000000	-0.000000	32.931080	-6.363420	4.700080	0.039917	0.736998	0.710447	-1.000000	-1.000000	-1.000000	-1.000000	-1.000000	-1.000000	-1.000000	138.965517	0.000000	-1.000000	-1.000000	565135.000000	1772919160.405129
-2311.200000	25033.275000	-20704.905000	-14882.850000	0.000000	0.000000	0.000000	0.000000	-15.630343	83.762531	-9.898845	40.787792	-0.000000	0.000000	0.000000	-0.000000	32.931080	-6.363420	4.700080	0.039917	0.736998	0.710447	-1.000000	-1.000000	-1.000000	-1.000000	-1.000000	-1.000000	-1.000000	138.965517	0.000000	-1.000000	-1.000000	565136.000000	1772919160.405133
-2348.055000	25115.580000	-20727.630000	-14914.080000	0.000000	0.000000	0.000000	0.000000	-103.801861	32.865053	-130.266412	-100.404676	-0.000000	0.000000	0.000000	-0.000000	9.842700	1.373400	-3.128300	0.051697	0.711180	0.683592	-1.000000	-1.000000	-1.000000	-1.000000	-1.000000	-1.000000	-1.000000	138.965517	0.000000	-1.000000	-1.000000	565137.000000	1772919160.405160
-2324.070000	25124.040000	-20706.345000	-14877.720000	0.000000	0.000000	0.000000	0.000000	-142.469993	-25.653261	-183.448596	-187.194265	-0.000000	0.000000	0.000000	-0.000000	9.842700	1.373400	-3.128300	0.051697	0.711180	0.683592	-1.000000	-1.000000	-1.000000	-1.000000	-1.000000	-1.000000	-1.000000	138.965517	0.000000	-1.000000	-1.000000	565138.000000	1772919160.405163
-2157.120000	25166.835000	-20536.920000	-14712.480000	0.000000	0.000000	0.000000	0.000000	-113.086371	-74.149236	-144.087246	-173.524529	-0.000000	0.000000	0.000000	-0.000000	9.842700	1.373400	-3.128300	0.051697	0.711180	0.683592	-1.000000	-1.000000	-1.000000	-1.000000	-1.000000	-1.000000	-1.000000	138.965517	0.000000	-1.000000	-1.000000	565139.000000	1772919160.408151
-1955.565000	25299.090000	-20305.215000	-14520.015000	0.000000	0.000000	0.000000	0.000000	-24.759125	-99.496204	-30.373123	-66.754514	-0.000000	0.000000	0.000000	-0.000000	9.842700	1.373400	-3.128300	0.051697	0.711180	0.683592	-1.000000	-1.000000	-1.000000	-1.000000	-1.000000	-1.000000	-1.000000	138.965517	0.000000	-1.000000	-1.000000	565140.000000	1772919160.408153
-2096.865000	25351.650000	-20412.585000	-14606.730000	0.000000	0.000000	0.000000	0.000000	79.288183	-91.854960	100.370384	72.530797	-0.000000	0.000000	0.000000	-0.000000	9.842700	1.373400	-3.128300	0.051697	0.711180	0.683592	-1.000000	-1.000000	-1.000000	-1.000000	-1.000000	-1.000000	-1.000000	138.965517	0.000000	-1.000000	-1.000000	565141.000000	1772919160.410069
-2253.915000	25314.435000	-20561.895000	-14739.120000	0.000000	0.000000	0.000000	0.000000	132.829364	-57.468554	170.828594	159.414311	-0.000000	0.000000	0.000000	-0.000000	9.842700	1.373400	-3.128300	0.051697	0.711180	0.683592	-1.000000	-1.000000	-1.000000	-1.000000	-1.000000	-1.000000	-1.000000	138.965517	0.000000	-1.000000	-1.000000	565142.000000	1772919160.410072
-2265.390000	25279.155000	-20547.450000	-14769.720000	0.000000	0.000000	0.000000	0.000000	97.809681	-20.388494	137.037932	143.006844	-0.000000	0.000000	0.000000	-0.000000	9.842700	1.373400	-3.128300	0.051697	0.711180	0.683592	-1.000000	-1.000000	-1.000000	-1.000000	-1.000000	-1.000000	-1.000000	138.965517	0.000000	-1.000000	-1.000000	565143.000000	1772919160.414075
-2280.735000	25171.110000	-20601.450000	-14832.045000	0.000000	0.000000	0.000000	0.000000	5.424094	-1.945268	30.312412	46.752795	-0.000000	0.000000	0.000000	-0.000000	9.842700	1.373400	-3.128300	0.051697	0.711180	0.683592	-1.000000	-1.000000	-1.000000	-1.000000	-1.000000	-1.000000	-1.000000	138.965517	0.000000	-1.000000	-1.000000	565144.000000	1772919160.414078
-2250.720000	25175.160000	-20631.465000	-14833.215000	0.000000	0.000000	0.000000	0.000000	-75.304395	-3.709490	-75.932295	-59.176897	-0.000000	0.000000	0.000000	-0.000000	9.842700	1.373400	-3.128300	0.051697	0.711180	0.683592	-1.000000	-1.000000	-1.000000	-1.000000	-1.000000	-1.000000	-1.000000	138.965517	0.000000	-1.000000	-1.000000	565145.000000	1772919160.417900
-2245.545000	25301.925000	-20628.270000	-14837.805000	0.000000	0.000000	0.000000	0.000000	-97.994134	-6.475902	-127.029975	-115.040157	-0.000000	0.000000	0.000000	-0.000000	9.842700	1.373400	-3.128300	0.051697	0.711180	0.683592	-1.000000	-1.000000	-1.000000	-1.000000	-1.000000	-1.000000	-1.000000	138.965517	0.000000	-1.000000	-1.000000	565146.000000	1772919160.417903
-2285.865000	25344.450000	-20598.435000	-14804.190000	0.000000	0.000000	0.000000	0.000000	-64.190489	12.040064	-110.017321	-102.372496	-0.000000	0.000000	0.000000	-0.000000	8.347220	0.701960	-13.352500	0.029846	0.686522	0.685667	-1.000000	-1.000000	-1.000000	-1.000000	-1.000000	-1.000000	-1.000000	138.965517	0.000000	-1.000000	-1.000000	565147.000000	1772919160.421956
