Channel1	Channel2	Channel3	Channel4	Channel5	Channel6	Channel7	Channel8	FilteredChannel1	FilteredChannel2	FilteredChannel3	FilteredChannel4	FilteredChannel5	FilteredChannel6	FilteredChannel7	FilteredChannel8	GyroX	GyroY	GyroZ	AccX	AccY	AccZ	PPG1	PPG2	rawPPG1	rawPPG2	rawPPG3	Hr	Hrv	Battery	Trigger	PhysicalTrigger	AutoTrigger	NumMeasurements	Timestamp
-3656.205000	20603.565000	-22104.405000	-14967.360000	0.000000	0.000000	0.000000	0.000000	-41.191322	89.989227	-59.850380	-58.165208	0.000000	-0.000000	-0.000000	-0.000000	6.973820	0.534100	-1.587040	-0.013061	0.859068	0.503295	-1.000000	-1.000000	-1.000000	-1.000000	-1.000000	-1.000000	-1.000000	139.103448	0.000000	-1.000000	-1.000000	657007.000000	1772919344.687409
-3626.865000	20614.185000	-22063.815000	-14922.225000	0.000000	0.000000	0.000000	0.000000	-76.797369	45.272744	-116.862838	-117.752651	0.000000	-0.000000	-0.000000	-0.000000	6.973820	0.534100	-1.587040	-0.013061	0.859068	0.503295	-1.000000	-1.000000	-1.000000	-1.000000	-1.000000	-1.000000	-1.000000	139.103448	0.000000	-1.000000	-1.000000	657008.000000	1772919344.687412
-3574.890000	20569.095000	-21992.580000	-14847.480000	0.000000	0.000000	0.000000	0.000000	-73.326896	-3.582174	-113.132130	-115.834883	0.000000	-0.000000	-0.000000	-0.000000	6.973820	0.534100	-1.587040	-0.013061	0.859068	0.503295	-1.000000	-1.000000	-1.000000	-1.000000	-1.000000	-1.000000	-1.000000	139.103448	0.000000	-1.000000	-1.000000	657009.000000	1772919344.691276
-3489.705000	20562.660000	-21865.230000	-14723.820000	0.000000	0.000000	0.000000	0.000000	-30.827864	-39.000287	-49.088608	-51.738995	0.000000	-0.000000	-0.000000	-0.000000	6.973820	0.534100	-1.587040	-0.013061	0.859068	0.503295	-1.000000	-1.000000	-1.000000	-1.000000	-1.000000	-1.000000	-1.000000	139.103448	0.000000	-1.000000	-1.000000	657010.000000	1772919344.691278
-3442.140000	20661.705000	-21783.330000	-14636.565000	0.000000	0.000000	0.000000	0.000000	29.172747	-52.955230	42.328717	41.169013	0.000000	-0.000000	-0.000000	-0.000000	6.973820	0.534100	-1.587040	-0.013061	0.859068	0.503295	-1.000000	-1.000000	-1.000000	-1.000000	-1.000000	-1.000000	-1.000000	139.103448	0.000000	-1.000000	-1.000000	657011.000000	1772919344.695408
-3479.670000	20720.475000	-21835.620000	-14690.925000	0.000000	0.000000	0.000000	0.000000	74.039514	-40.246894	112.086698	112.657651	0.000000	-0.000000	-0.000000	-0.000000	6.973820	0.534100	-1.587040	-0.013061	0.859068	0.503295	-1.000000	-1.000000	-1.000000	-1.000000	-1.000000	-1.000000	-1.000000	139.103448	0.000000	-1.000000	-1.000000	657012.000000	1772919344.695411
-3532.050000	20727.135000	-21912.615000	-14767.740000	0.000000	0.000000	0.000000	0.000000	77.539266	-7.419290	120.123307	121.719446	0.000000	-0.000000	-0.000000	-0.000000	6.897520	0.824040	-1.617560	-0.013733	0.857786	0.503356	-1.000000	-1.000000	-1.000000	-1.000000	-1.000000	-1.000000	-1.000000	139.103448	0.000000	-1.000000	-1.000000	657013.000000	1772919344.699360
-3576.330000	20669.175000	-21996.270000	-14848.290000	0.000000	0.000000	0.000000	0.000000	37.367101	22.995692	60.978582	62.548535	0.000000	-0.000000	-0.000000	-0.000000	6.897520	0.824040	-1.617560	-0.013733	0.857786	0.503356	-1.000000	-1.000000	-1.000000	-1.000000	-1.000000	-1.000000	-1.000000	139.103448	0.000000	-1.000000	-1.000000	657014.000000	1772919344.699363
-3637.035000	20612.610000	-22092.345000	-14948.280000	0.000000	0.000000	0.000000	0.000000	-22.587043	28.769962	-31.235417	-30.426834	0.000000	-0.000000	-0.000000	-0.000000	6.897520	0.824040	-1.617560	-0.013733	0.857786	0.503356	-1.000000	-1.000000	-1.000000	-1.000000	-1.000000	-1.000000	-1.000000	139.103448	0.000000	-1.000000	-1.000000	657015.000000	1772919344.703537
-3617.370000	20619.675000	-22058.595000	-14918.490000	0.000000	0.000000	0.000000	0.000000	-68.793010	8.219442	-105.168493	-105.470374	0.000000	-0.000000	-0.000000	-0.000000	6.897520	0.824040	-1.617560	-0.013733	0.857786	0.503356	-1.000000	-1.000000	-1.000000	-1.000000	-1.000000	-1.000000	-1.000000	139.103448	0.000000	-1.000000	-1.000000	657016.000000	1772919344.703540
-3571.290000	20588.985000	-21991.815000	-14850.270000	0.000000	0.000000	0.000000	0.000000	-76.827646	-19.089456	-120.671668	-122.133471	0.000000	-0.000000	-0.000000	-0.000000	6.897520	0.824040	-1.617560	-0.013733	0.857786	0.503356	-1.000000	-1.000000	-1.000000	-1.000000	-1.000000	-1.000000	-1.000000	139.103448	0.000000	-1.000000	-1.000000	657017.000000	1772919344.707272
-3515.445000	20551.095000	-21909.195000	-14767.065000	0.000000	0.000000	0.000000	0.000000	-43.211395	-32.643284	-70.160770	-72.196893	0.000000	-0.000000	-0.000000	-0.000000	6.897520	0.824040	-1.617560	-0.013733	0.857786	0.503356	-1.000000	-1.000000	-1.000000	-1.000000	-1.000000	-1.000000	-1.000000	139.103448	0.000000	-1.000000	-1.000000	657018.000000	1772919344.707275
-3425.355000	20438.685000	-21781.665000	-14636.790000	0.000000	0.000000	0.000000	0.000000	13.461800	-28.497490	17.700432	16.243761	0.000000	-0.000000	-0.000000	-0.000000	6.897520	0.824040	-1.617560	-0.013733	0.857786	0.503356	-1.000000	-1.000000	-1.000000	-1.000000	-1.000000	-1.000000	-1.000000	139.103448	0.000000	-1.000000	-1.000000	657019.000000	1772919344.712087
-3427.740000	20412.855000	-21785.670000	-14634.045000	0.000000	0.000000	0.000000	0.000000	63.567577	-15.781738	96.102195	96.289193	0.000000	-0.000000	-0.000000	-0.000000	6.897520	0.824040	-1.617560	-0.013733	0.857786	0.503356	-1.000000	-1.000000	-1.000000	-1.000000	-1.000000	-1.000000	-1.000000	139.103448	0.000000	-1.000000	-1.000000	657020.000000	1772919344.712090
-3474.540000	20468.340000	-21851.415000	-14699.295000	0.000000	0.000000	0.000000	0.000000	80.310856	-0.008077	123.322930	125.493299	0.000000	-0.000000	-0.000000	-0.000000	6.897520	0.824040	-1.617560	-0.013733	0.857786	0.503356	-1.000000	-1.000000	-1.000000	-1.000000	-1.000000	-1.000000	-1.000000	139.103448	0.000000	-1.000000	-1.000000	657021.000000	1772919344.726638
-3533.040000	20547.405000	-21935.340000	-14783.985000	0.000000	0.000000	0.000000	0.000000	53.099908	22.619271	83.542564	86.870823	0.000000	-0.000000	-0.000000	-0.000000	6.897520	0.824040	-1.617560	-0.013733	0.857786	0.503356	-1.000000	-1.000000	-1.000000	-1.000000	-1.000000	-1.000000	-1.000000	139.103448	0.000000	-1.000000	-1.000000	657022.000000	1772919344.726641
-3619.980000	20562.570000	-22064.715000	-14914.665000	0.000000	0.000000	0.000000	0.000000	-4.522973	51.251795	-2.496287	0.225638	0.000000	-0.000000	-0.000000	-0.000000	7.797860	-0.015260	-0.442540	-0.017639	0.857237	0.503050	-1.000000	-1.000000	-1.000000	-1.000000	-1.000000	-1.000000	-1.000000	139.103448	0.000000	-1.000000	-1.000000	657023.000000	1772919344.726646
-3619.980000	20538.720000	-22064.940000	-14921.460000	0.000000	0.000000	0.000000	0.000000	-61.774055	70.327546	-88.813601	-88.386000	0.000000	-0.000000	-0.000000	-0.000000	7.797860	-0.015260	-0.442540	-0.017639	0.857237	0.503050	-1.000000	-1.000000	-1.000000	-1.000000	-1.000000	-1.000000	-1.000000	139.103448	0.000000	-1.000000	-1.000000	657024.000000	1772919344.726648
-3601.575000	20587.950000	-22026.015000	-14882.445000	0.000000	0.000000	0.000000	0.000000	-87.298029	63.038866	-128.515196	-130.990751	0.000000	-0.000000	-0.000000	-0.000000	7.797860	-0.015260	-0.442540	-0.017639	0.857237	0.503050	-1.000000	-1.000000	-1.000000	-1.000000	-1.000000	-1.000000	-1.000000	139.103448	0.000000	-1.000000	-1.000000	657025.000000	1772919344.726651
-3553.650000	20599.425000	-21953.970000	-14815.890000	0.000000	0.000000	0.000000	0.000000	-66.884962	30.627568	-99.657941	-104.163736	0.000000	-0.000000	-0.000000	-0.000000	7.797860	-0.015260	-0.442540	-0.017639	0.857237	0.503050	-1.000000	-1.000000	-1.000000	-1.000000	-1.000000	-1.000000	-1.000000	139.103448	0.000000	-1.000000	-1.000000	657026.000000	1772919344.726654
-3462.390000	20641.320000	-21821.670000	-14683.050000	0.000000	0.000000	0.000000	0.000000	-11.451870	-9.472124	-18.161392	-22.808745	0.000000	-0.000000	-0.000000	-0.000000	7.797860	-0.015260	-0.442540	-0.017639	0.857237	0.503050	-1.000000	-1.000000	-1.000000	-1.000000	-1.000000	-1.000000	-1.000000	139.103448	0.000000	-1.000000	-1.000000	657027.000000	1772919344.729411
-3444.570000	20678.220000	-21791.790000	-14644.305000	0.000000	0.000000	0.000000	0.000000	50.579236	-39.092668	73.155307	70.464808	0.000000	-0.000000	-0.000000	-0.000000	7.797860	-0.015260	-0.442540	-0.017639	0.857237	0.503050	-1.000000	-1.000000	-1.000000	-1.000000	-1.000000	-1.000000	-1.000000	139.103448	0.000000	-1.000000	-1.000000	657028.000000	1772919344.729414
-3469.230000	20692.170000	-21833.280000	-14683.905000	0.000000	0.000000	0.000000	0.000000	87.202548	-49.585416	126.505446	127.369089	0.000000	-0.000000	-0.000000	-0.000000	7.797860	-0.015260	-0.442540	-0.017639	0.857237	0.503050	-1.000000	-1.000000	-1.000000	-1.000000	-1.000000	-1.000000	-1.000000	139.103448	0.000000	-1.000000	-1.000000	657029.000000	1772919344.731362
-3502.260000	20660.580000	-21891.600000	-14743.620000	0.000000	0.000000	0.000000	0.000000	78.977236	-44.632356	113.285811	117.726442	0.000000	-0.000000	-0.000000	-0.000000	7.797860	-0.015260	-0.442540	-0.017639	0.857237	0.503050	-1.000000	-1.000000	-1.000000	-1.000000	-1.000000	-1.000000	-1.000000	139.103448	0.000000	-1.000000	-1.000000	657030.000000	1772919344.731365
-3575.790000	20583.045000	-22012.515000	-14864.445000	0.000000	0.000000	0.000000	0.000000	31.066119	-35.830856	41.277746	47.237700	0.000000	-0.000000	-0.000000	-0.000000	7.797860	-0.015260	-0.442540	-0.017639	0.857237	0.503050	-1.000000	-1.000000	-1.000000	-1.000000	-1.000000	-1.000000	-1.000000	139.103448	0.000000	-1.000000	-1.000000	657031.000000	1772919344.738569
-3617.595000	20569.320000	-22070.520000	-14929.740000	0.000000	0.000000	0.000000	0.000000	-30.907096	-31.611820	-51.003272	-46.532187	0.000000	-0.000000	-0.000000	-0.000000	7.797860	-0.015260	-0.442540	-0.017639	0.857237	0.503050	-1.000000	-1.000000	-1.000000	-1.000000	-1.000000	-1.000000	-1.000000	139.103448	0.000000	-1.000000	-1.000000	657032.000000	1772919344.738572
-3596.670000	20619.720000	-22029.255000	-14891.265000	0.000000	0.000000	0.000000	0.000000	-75.356362	-27.606060	-115.290836	-114.540748	0.000000	-0.000000	-0.000000	-0.000000	8.972880	0.091560	-0.930860	-0.018616	0.857053	0.503539	-1.000000	-1.000000	-1.000000	-1.000000	-1.000000	-1.000000	-1.000000	139.103448	0.000000	-1.000000	-1.000000	657033.000000	1772919344.739474
-3548.385000	20622.600000	-21959.145000	-14822.550000	0.000000	0.000000	0.000000	0.000000	-79.621842	-12.670316	-117.257426	-120.482067	0.000000	-0.000000	-0.000000	-0.000000	8.972880	0.091560	-0.930860	-0.018616	0.857053	0.503539	-1.000000	-1.000000	-1.000000	-1.000000	-1.000000	-1.000000	-1.000000	139.103448	0.000000	-1.000000	-1.000000	657034.000000	1772919344.739477
-3469.590000	20624.715000	-21833.190000	-14697.135000	0.000000	0.000000	0.000000	0.000000	-41.898099	13.770557	-55.976500	-61.319699	0.000000	-0.000000	-0.000000	-0.000000	8.972880	0.091560	-0.930860	-0.018616	0.857053	0.503539	-1.000000	-1.000000	-1.000000	-1.000000	-1.000000	-1.000000	-1.000000	139.103448	0.000000	-1.000000	-1.000000	657035.000000	1772919344.743489
-3409.965000	20612.115000	-21756.555000	-14605.200000	0.000000	0.000000	0.000000	0.000000	17.434906	38.335929	35.196769	30.786978	0.000000	-0.000000	-0.000000	-0.000000	8.972880	0.091560	-0.930860	-0.018616	0.857053	0.503539	-1.000000	-1.000000	-1.000000	-1.000000	-1.000000	-1.000000	-1.000000	139.103448	0.000000	-1.000000	-1.000000	657036.000000	1772919344.743492
-3443.535000	20639.880000	-21807.495000	-14652.720000	0.000000	0.000000	0.000000	0.000000	66.152372	47.866879	106.309912	105.676956	0.000000	-0.000000	-0.000000	-0.000000	8.972880	0.091560	-0.930860	-0.018616	0.857053	0.503539	-1.000000	-1.000000	-1.000000	-1.000000	-1.000000	-1.000000	-1.000000	139.103448	0.000000	-1.000000	-1.000000	657037.000000	1772919344.747345
-3477.825000	20660.580000	-21862.395000	-14711.985000	0.000000	0.000000	0.000000	0.000000	76.782219	40.724707	117.072077	120.910842	0.000000	-0.000000	-0.000000	-0.000000	8.972880	0.091560	-0.930860	-0.018616	0.857053	0.503539	-1.000000	-1.000000	-1.000000	-1.000000	-1.000000	-1.000000	-1.000000	139.103448	0.000000	-1.000000	-1.000000	657038.000000	1772919344.747347
-3536.055000	20669.445000	-21961.935000	-14806.170000	0.000000	0.000000	0.000000	0.000000	43.761408	24.157600	61.932896	67.878352	0.000000	-0.000000	-0.000000	-0.000000	8.972880	0.091560	-0.930860	-0.018616	0.857053	0.503539	-1.000000	-1.000000	-1.000000	-1.000000	-1.000000	-1.000000	-1.000000	139.103448	0.000000	-1.000000	-1.000000	657039.000000	1772919344.751407
-3585.240000	20661.030000	-22048.470000	-14893.335000	0.000000	0.000000	0.000000	0.000000	-12.844896	5.459360	-26.782881	-22.259369	0.000000	-0.000000	-0.000000	-0.000000	8.972880	0.091560	-0.930860	-0.018616	0.857053	0.503539	-1.000000	-1.000000	-1.000000	-1.000000	-1.000000	-1.000000	-1.000000	139.103448	0.000000	-1.000000	-1.000000	657040.000000	1772919344.751410
-3572.865000	20627.550000	-22020.570000	-14872.365000	0.000000	0.000000	0.000000	0.000000	-60.950271	-11.935760	-99.848016	-99.056047	0.000000	-0.000000	-0.000000	-0.000000	8.972880	0.091560	-0.930860	-0.018616	0.857053	0.503539	-1.000000	-1.000000	-1.000000	-1.000000	-1.000000	-1.000000	-1.000000	139.103448	0.000000	-1.000000	-1.000000	657041.000000	1772919344.755571
-3590.100000	20684.835000	-22010.580000	-14864.985000	0.000000	0.000000	0.000000	0.000000	-75.466749	-25.001655	-118.234183	-121.617794	0.000000	-0.000000	-0.000000	-0.000000	8.972880	0.091560	-0.930860	-0.018616	0.857053	0.503539	-1.000000	-1.000000	-1.000000	-1.000000	-1.000000	-1.000000	-1.000000	139.103448	0.000000	-1.000000	-1.000000	657042.000000	1772919344.755574
-3546.990000	20781.360000	-21929.490000	-14789.295000	0.000000	0.000000	0.000000	0.000000	-51.804419	-26.537881	-74.502259	-80.828410	0.000000	-0.000000	-0.000000	-0.000000	6.943300	-3.876040	-0.061040	-0.017273	0.860288	0.500975	-1.000000	-1.000000	-1.000000	-1.000000	-1.000000	-1.000000	-1.000000	139.103448	0.000000	-1.000000	-1.000000	657043.000000	1772919344.759521
-3446.055000	20877.030000	-21790.935000	-14639.715000	0.000000	0.000000	0.000000	0.000000	-3.734201	-10.510827	6.739562	0.082375	0.000000	-0.000000	-0.000000	-0.000000	6.943300	-3.876040	-0.061040	-0.017273	0.860288	0.500975	-1.000000	-1.000000	-1.000000	-1.000000	-1.000000	-1.000000	-1.000000	139.103448	0.000000	-1.000000	-1.000000	657044.000000	1772919344.759524
-3459.960000	20995.020000	-21811.815000	-14653.710000	0.000000	0.000000	0.000000	0.000000	46.635160	17.718175	85.164771	81.456083	0.000000	-0.000000	-0.000000	-0.000000	6.943300	-3.876040	-0.061040	-0.017273	0.860288	0.500975	-1.000000	-1.000000	-1.000000	-1.000000	-1.000000	-1.000000	-1.000000	139.103448	0.000000	-1.000000	-1.000000	657045.000000	1772919344.763514
-3488.265000	20969.595000	-21859.470000	-14703.615000	0.000000	0.000000	0.000000	0.000000	74.389931	40.580655	120.276197	121.682476	0.000000	-0.000000	-0.000000	-0.000000	6.943300	-3.876040	-0.061040	-0.017273	0.860288	0.500975	-1.000000	-1.000000	-1.000000	-1.000000	-1.000000	-1.000000	-1.000000	139.103448	0.000000	-1.000000	-1.000000	657046.000000	1772919344.763518
-3540.825000	20959.965000	-21938.490000	-14784.570000	0.000000	0.000000	0.000000	0.000000	63.261657	38.125440	91.749748	97.404272	0.000000	-0.000000	-0.000000	-0.000000	6.943300	-3.876040	-0.061040	-0.017273	0.860288	0.500975	-1.000000	-1.000000	-1.000000	-1.000000	-1.000000	-1.000000	-1.000000	139.103448	0.000000	-1.000000	-1.000000	657047.000000	1772919344.767543
-3628.485000	20894.895000	-22072.365000	-14927.670000	0.000000	0.000000	0.000000	0.000000	18.454947	4.171761	14.460421	20.776230	0.000000	-0.000000	-0.000000	-0.000000	6.943300	-3.876040	-0.061040	-0.017273	0.860288	0.500975	-1.000000	-1.000000	-1.000000	-1.000000	-1.000000	-1.000000	-1.000000	139.103448	0.000000	-1.000000	-1.000000	657048.000000	1772919344.767546
-3609.765000	20755.260000	-22058.640000	-14919.120000	0.000000	0.000000	0.000000	0.000000	-35.330463	-47.399311	-69.957774	-66.840168	0.000000	-0.000000	-0.000000	-0.000000	6.943300	-3.876040	-0.061040	-0.017273	0.860288	0.500975	-1.000000	-1.000000	-1.000000	-1.000000	-1.000000	-1.000000	-1.000000	139.103448	0.000000	-1.000000	-1.000000	657049.000000	1772919344.771610
-3552.885000	20623.275000	-21982.545000	-14840.595000	0.000000	0.000000	0.000000	0.000000	-66.584101	-93.767742	-114.270974	-115.903560	0.000000	-0.000000	-0.000000	-0.000000	6.943300	-3.876040	-0.061040	-0.017273	0.860288	0.500975	-1.000000	-1.000000	-1.000000	-1.000000	-1.000000	-1.000000	-1.000000	139.103448	0.000000	-1.000000	-1.000000	657050.000000	1772919344.771612
-3508.470000	20604.870000	-21913.605000	-14768.415000	0.000000	0.000000	0.000000	0.000000	-56.242128	-112.586517	-92.429059	-97.048328	0.000000	-0.000000	-0.000000	-0.000000	6.943300	-3.876040	-0.061040	-0.017273	0.860288	0.500975	-1.000000	-1.000000	-1.000000	-1.000000	-1.000000	-1.000000	-1.000000	139.103448	0.000000	-1.000000	-1.000000	657051.000000	1772919344.775654
-3408.255000	20549.565000	-21770.865000	-14620.725000	0.000000	0.000000	0.000000	0.000000	-11.659990	-88.392952	-17.863418	-21.826653	0.000000	-0.000000	-0.000000	-0.000000	6.943300	-3.876040	-0.061040	-0.017273	0.860288	0.500975	-1.000000	-1.000000	-1.000000	-1.000000	-1.000000	-1.000000	-1.000000	139.103448	0.000000	-1.000000	-1.000000	657052.000000	1772919344.775657
-3400.965000	20600.595000	-21754.080000	-14595.840000	0.000000	0.000000	0.000000	0.000000	39.812754	-24.085496	66.390987	66.021545	0.000000	-0.000000	-0.000000	-0.000000	4.959500	-0.289940	-0.350980	-0.016296	0.863645	0.499083	-1.000000	-1.000000	-1.000000	-1.000000	-1.000000	-1.000000	-1.000000	139.103448	0.000000	-1.000000	-1.000000	657053.000000	1772919344.779542
-3440.745000	20711.205000	-21809.115000	-14651.325000	0.000000	0.000000	0.000000	0.000000	67.343755	58.723336	112.507221	116.251294	0.000000	-0.000000	-0.000000	-0.000000	4.959500	-0.289940	-0.350980	-0.016296	0.863645	0.499083	-1.000000	-1.000000	-1.000000	-1.000000	-1.000000	-1.000000	-1.000000	139.103448	0.000000	-1.000000	-1.000000	657054.000000	1772919344.779545
-3469.635000	20695.635000	-21861.900000	-14705.280000	0.000000	0.000000	0.000000	0.000000	53.758090	129.665334	93.725112	99.471043	0.000000	-0.000000	-0.000000	-0.000000	4.959500	-0.289940	-0.350980	-0.016296	0.863645	0.499083	-1.000000	-1.000000	-1.000000	-1.000000	-1.000000	-1.000000	-1.000000	139.103448	0.000000	-1.000000	-1.000000	657055.000000	1772919344.783589
-3544.830000	20558.700000	-21984.255000	-14833.215000	0.000000	0.000000	0.000000	0.000000	7.014022	155.288000	21.168975	25.446737	0.000000	-0.000000	-0.000000	-0.000000	4.959500	-0.289940	-0.350980	-0.016296	0.863645	0.499083	-1.000000	-1.000000	-1.000000	-1.000000	-1.000000	-1.000000	-1.000000	139.103448	0.000000	-1.000000	-1.000000	657056.000000	1772919344.783592
-3590.190000	20497.005000	-22044.825000	-14904.450000	0.000000	0.000000	0.000000	0.000000	-46.516361	115.555081	-64.999569	-65.025701	0.000000	-0.000000	-0.000000	-0.000000	4.959500	-0.289940	-0.350980	-0.016296	0.863645	0.499083	-1.000000	-1.000000	-1.000000	-1.000000	-1.000000	-1.000000	-1.000000	139.103448	0.000000	-1.000000	-1.000000	657057.000000	1772919344.787542
-3575.565000	20512.755000	-22012.695000	-14872.680000	0.000000	0.000000	0.000000	0.000000	-78.485053	28.894847	-119.039017	-124.015118	0.000000	-0.000000	-0.000000	-0.000000	4.959500	-0.289940	-0.350980	-0.016296	0.863645	0.499083	-1.000000	-1.000000	-1.000000	-1.000000	-1.000000	-1.000000	-1.000000	139.103448	0.000000	-1.000000	-1.000000	657058.000000	1772919344.787545
-3547.395000	20591.595000	-21961.755000	-14821.245000	0.000000	0.000000	0.000000	0.000000	-71.694206	-53.262728	-111.655334	-119.431910	0.000000	-0.000000	-0.000000	-0.000000	4.959500	-0.289940	-0.350980	-0.016296	0.863645	0.499083	-1.000000	-1.000000	-1.000000	-1.000000	-1.000000	-1.000000	-1.000000	139.103448	0.000000	-1.000000	-1.000000	657059.000000	1772919344.791685
-3449.205000	20582.820000	-21820.590000	-14676.615000	0.000000	0.000000	0.000000	0.000000	-28.086631	-87.465232	-45.424949	-52.040057	0.000000	-0.000000	-0.000000	-0.000000	4.959500	-0.289940	-0.350980	-0.016296	0.863645	0.499083	-1.000000	-1.000000	-1.000000	-1.000000	-1.000000	-1.000000	-1.000000	139.103448	0.000000	-1.000000	-1.000000	657060.000000	1772919344.791688
-3388.455000	20623.050000	-21738.510000	-14580.315000	0.000000	0.000000	0.000000	0.000000	32.474724	-69.798965	46.961801	45.132229	0.000000	-0.000000	-0.000000	-0.000000	4.959500	-0.289940	-0.350980	-0.016296	0.863645	0.499083	-1.000000	-1.000000	-1.000000	-1.000000	-1.000000	-1.000000	-1.000000	139.103448	0.000000	-1.000000	-1.000000	657061.000000	1772919344.795614
-3414.555000	20675.430000	-21776.490000	-14619.555000	0.000000	0.000000	0.000000	0.000000	80.180554	-26.475341	118.138042	122.483476	0.000000	-0.000000	-0.000000	-0.000000	4.959500	-0.289940	-0.350980	-0.016296	0.863645	0.499083	-1.000000	-1.000000	-1.000000	-1.000000	-1.000000	-1.000000	-1.000000	139.103448	0.000000	-1.000000	-1.000000	657062.000000	1772919344.795616
-3459.870000	20710.485000	-21838.815000	-14686.065000	0.000000	0.000000	0.000000	0.000000	88.192701	13.899860	128.377854	136.917976	0.000000	-0.000000	-0.000000	-0.000000	3.677660	0.488320	0.305200	-0.015381	0.863157	0.499327	-1.000000	-1.000000	-1.000000	-1.000000	-1.000000	-1.000000	-1.000000	139.103448	0.000000	-1.000000	-1.000000	657063.000000	1772919344.799604
-3560.760000	20717.910000	-21981.690000	-14825.160000	0.000000	0.000000	0.000000	0.000000	49.489289	33.867038	69.771798	78.008945	0.000000	-0.000000	-0.000000	-0.000000	3.677660	0.488320	0.305200	-0.015381	0.863157	0.499327	-1.000000	-1.000000	-1.000000	-1.000000	-1.000000	-1.000000	-1.000000	139.103448	0.000000	-1.000000	-1.000000	657064.000000	1772919344.799607
-3641.445000	20735.370000	-22093.335000	-14950.080000	0.000000	0.000000	0.000000	0.000000	-17.006809	28.870002	-27.756139	-23.978688	0.000000	-0.000000	-0.000000	-0.000000	3.677660	0.488320	0.305200	-0.015381	0.863157	0.499327	-1.000000	-1.000000	-1.000000	-1.000000	-1.000000	-1.000000	-1.000000	139.103448	0.000000	-1.000000	-1.000000	657065.000000	1772919344.804312
-3593.790000	20645.595000	-22032.450000	-14895.945000	0.000000	0.000000	0.000000	0.000000	-75.445816	4.820414	-111.691057	-114.167488	0.000000	-0.000000	-0.000000	-0.000000	3.677660	0.488320	0.305200	-0.015381	0.863157	0.499327	-1.000000	-1.000000	-1.000000	-1.000000	-1.000000	-1.000000	-1.000000	139.103448	0.000000	-1.000000	-1.000000	657066.000000	1772919344.804315
-3544.290000	20549.025000	-21966.840000	-14824.170000	0.000000	0.000000	0.000000	0.000000	-91.217438	-28.579939	-133.306838	-140.847335	0.000000	-0.000000	-0.000000	-0.000000	3.677660	0.488320	0.305200	-0.015381	0.863157	0.499327	-1.000000	-1.000000	-1.000000	-1.000000	-1.000000	-1.000000	-1.000000	139.103448	0.000000	-1.000000	-1.000000	657067.000000	1772919344.807582
-3474.990000	20563.650000	-21864.420000	-14719.680000	0.000000	0.000000	0.000000	0.000000	-54.066533	-58.191792	-79.117781	-87.744571	0.000000	-0.000000	-0.000000	-0.000000	3.677660	0.488320	0.305200	-0.015381	0.863157	0.499327	-1.000000	-1.000000	-1.000000	-1.000000	-1.000000	-1.000000	-1.000000	139.103448	0.000000	-1.000000	-1.000000	657068.000000	1772919344.807585
-3397.410000	20630.385000	-21744.180000	-14589.810000	0.000000	0.000000	0.000000	0.000000	13.732233	-64.652739	19.117301	14.138789	0.000000	-0.000000	-0.000000	-0.000000	3.677660	0.488320	0.305200	-0.015381	0.863157	0.499327	-1.000000	-1.000000	-1.000000	-1.000000	-1.000000	-1.000000	-1.000000	139.103448	0.000000	-1.000000	-1.000000	657069.000000	1772919344.814401
-3418.920000	20702.385000	-21768.705000	-14615.190000	0.000000	0.000000	0.000000	0.000000	73.155027	-34.953354	106.306391	107.545091	0.000000	-0.000000	-0.000000	-0.000000	3.677660	0.488320	0.305200	-0.015381	0.863157	0.499327	-1.000000	-1.000000	-1.000000	-1.000000	-1.000000	-1.000000	-1.000000	139.103448	0.000000	-1.000000	-1.000000	657070.000000	1772919344.814404
-3451.770000	20696.580000	-21820.950000	-14668.470000	0.000000	0.000000	0.000000	0.000000	91.117719	19.499454	134.531553	140.862405	0.000000	-0.000000	-0.000000	-0.000000	3.677660	0.488320	0.305200	-0.015381	0.863157	0.499327	-1.000000	-1.000000	-1.000000	-1.000000	-1.000000	-1.000000	-1.000000	139.103448	0.000000	-1.000000	-1.000000	657071.000000	1772919344.817507
-3504.465000	20668.140000	-21907.575000	-14755.140000	0.000000	0.000000	0.000000	0.000000	58.785010	66.004600	89.001801	96.547057	0.000000	-0.000000	-0.000000	-0.000000	3.677660	0.488320	0.305200	-0.015381	0.863157	0.499327	-1.000000	-1.000000	-1.000000	-1.000000	-1.000000	-1.000000	-1.000000	139.103448	0.000000	-1.000000	-1.000000	657072.000000	1772919344.817510
-3587.580000	20609.640000	-22041.495000	-14893.920000	0.000000	0.000000	0.000000	0.000000	-4.413883	75.438082	-4.122956	0.639201	0.000000	-0.000000	-0.000000	-0.000000	1.907500	0.122080	0.030520	-0.014954	0.863767	0.498534	-1.000000	-1.000000	-1.000000	-1.000000	-1.000000	-1.000000	-1.000000	139.103448	0.000000	-1.000000	-1.000000	657073.000000	1772919344.820619
-3580.470000	20529.495000	-22038.210000	-14890.500000	0.000000	0.000000	0.000000	0.000000	-64.278828	43.313018	-94.964300	-94.945588	0.000000	-0.000000	-0.000000	-0.000000	1.907500	0.122080	0.030520	-0.014954	0.863767	0.498534	-1.000000	-1.000000	-1.000000	-1.000000	-1.000000	-1.000000	-1.000000	139.103448	0.000000	-1.000000	-1.000000	657074.000000	1772919344.820622
-3550.995000	20581.380000	-21988.395000	-14841.900000	0.000000	0.000000	0.000000	0.000000	-89.541085	-8.328820	-135.282228	-139.333434	0.000000	-0.000000	-0.000000	-0.000000	1.907500	0.122080	0.030520	-0.014954	0.863767	0.498534	-1.000000	-1.000000	-1.000000	-1.000000	-1.000000	-1.000000	-1.000000	139.103448	0.000000	-1.000000	-1.000000	657075.000000	1772919344.823763
-3508.560000	20588.805000	-21914.100000	-14769.045000	0.000000	0.000000	0.000000	0.000000	-67.717529	-45.521831	-103.496422	-109.150436	0.000000	-0.000000	-0.000000	-0.000000	1.907500	0.122080	0.030520	-0.014954	0.863767	0.498534	-1.000000	-1.000000	-1.000000	-1.000000	-1.000000	-1.000000	-1.000000	139.103448	0.000000	-1.000000	-1.000000	657076.000000	1772919344.823766
-3410.415000	20601.360000	-21763.710000	-14615.055000	0.000000	0.000000	0.000000	0.000000	-11.738947	-47.680721	-17.392828	-21.938928	0.000000	-0.000000	-0.000000	-0.000000	1.907500	0.122080	0.030520	-0.014954	0.863767	0.498534	-1.000000	-1.000000	-1.000000	-1.000000	-1.000000	-1.000000	-1.000000	139.103448	0.000000	-1.000000	-1.000000	657077.000000	1772919344.829977
-3379.815000	20588.040000	-21727.665000	-14573.340000	0.000000	0.000000	0.000000	0.000000	49.455193	-21.775531	77.943854	76.376934	0.000000	-0.000000	-0.000000	-0.000000	1.907500	0.122080	0.030520	-0.014954	0.863767	0.498534	-1.000000	-1.000000	-1.000000	-1.000000	-1.000000	-1.000000	-1.000000	139.103448	0.000000	-1.000000	-1.000000	657078.000000	1772919344.829981
-3397.545000	20524.860000	-21767.490000	-14611.590000	0.000000	0.000000	0.000000	0.000000	85.225967	8.332688	132.878405	134.827896	0.000000	-0.000000	-0.000000	-0.000000	1.907500	0.122080	0.030520	-0.014954	0.863767	0.498534	-1.000000	-1.000000	-1.000000	-1.000000	-1.000000	-1.000000	-1.000000	139.103448	0.000000	-1.000000	-1.000000	657079.000000	1772919344.831729
-3432.645000	20491.110000	-21826.170000	-14670.675000	0.000000	0.000000	0.000000	0.000000	77.043071	21.857911	117.716363	122.104051	0.000000	-0.000000	-0.000000	-0.000000	1.907500	0.122080	0.030520	-0.014954	0.863767	0.498534	-1.000000	-1.000000	-1.000000	-1.000000	-1.000000	-1.000000	-1.000000	139.103448	0.000000	-1.000000	-1.000000	657080.000000	1772919344.831731
-3512.745000	20282.445000	-21956.355000	-14806.395000	0.000000	0.000000	0.000000	0.000000	29.189059	11.672320	40.715099	45.168121	0.000000	-0.000000	-0.000000	-0.000000	1.907500	0.122080	0.030520	-0.014954	0.863767	0.498534	-1.000000	-1.000000	-1.000000	-1.000000	-1.000000	-1.000000	-1.000000	139.103448	0.000000	-1.000000	-1.000000	657081.000000	1772919344.835617
-3565.260000	20166.705000	-22014.990000	-14877.675000	0.000000	0.000000	0.000000	0.000000	-33.918464	-17.197802	-57.463577	-55.599380	0.000000	-0.000000	-0.000000	-0.000000	1.907500	0.122080	0.030520	-0.014954	0.863767	0.498534	-1.000000	-1.000000	-1.000000	-1.000000	-1.000000	-1.000000	-1.000000	139.103448	0.000000	-1.000000	-1.000000	657082.000000	1772919344.835620
-3551.760000	20202.930000	-21982.455000	-14841.630000	0.000000	0.000000	0.000000	0.000000	-80.494872	-45.727122	-125.750745	-127.939433	0.000000	-0.000000	-0.000000	-0.000000	0.091560	0.335720	0.045780	-0.015137	0.863828	0.498595	-1.000000	-1.000000	-1.000000	-1.000000	-1.000000	-1.000000	-1.000000	139.103448	0.000000	-1.000000	-1.000000	657083.000000	1772919344.839808
-3512.340000	20188.035000	-21929.895000	-14779.890000	0.000000	0.000000	0.000000	0.000000	-86.256432	-46.089220	-128.204186	-133.185364	0.000000	-0.000000	-0.000000	-0.000000	0.091560	0.335720	0.045780	-0.015137	0.863828	0.498595	-1.000000	-1.000000	-1.000000	-1.000000	-1.000000	-1.000000	-1.000000	139.103448	0.000000	-1.000000	-1.000000	657084.000000	1772919344.839811
-3410.280000	20105.145000	-21785.805000	-14630.535000	0.000000	0.000000	0.000000	0.000000	-47.254625	-10.213443	-63.929832	-68.023529	0.000000	-0.000000	-0.000000	-0.000000	0.091560	0.335720	0.045780	-0.015137	0.863828	0.498595	-1.000000	-1.000000	-1.000000	-1.000000	-1.000000	-1.000000	-1.000000	139.103448	0.000000	-1.000000	-1.000000	657085.000000	1772919344.843729
-3296.115000	19845.360000	-21651.390000	-14483.205000	0.000000	0.000000	0.000000	0.000000	18.329901	33.804685	34.383696	34.572561	0.000000	-0.000000	-0.000000	-0.000000	0.091560	0.335720	0.045780	-0.015137	0.863828	0.498595	-1.000000	-1.000000	-1.000000	-1.000000	-1.000000	-1.000000	-1.000000	139.103448	0.000000	-1.000000	-1.000000	657086.000000	1772919344.843732
-3269.115000	19544.670000	-21638.745000	-14473.845000	0.000000	0.000000	0.000000	0.000000	78.894133	44.824842	117.969375	122.999957	0.000000	-0.000000	-0.000000	-0.000000	0.091560	0.335720	0.045780	-0.015137	0.863828	0.498595	-1.000000	-1.000000	-1.000000	-1.000000	-1.000000	-1.000000	-1.000000	139.103448	0.000000	-1.000000	-1.000000	657087.000000	1772919344.847677
-3323.295000	19532.970000	-21711.465000	-14552.730000	0.000000	0.000000	0.000000	0.000000	101.754498	12.428621	142.380403	149.352434	0.000000	-0.000000	-0.000000	-0.000000	0.091560	0.335720	0.045780	-0.015137	0.863828	0.498595	-1.000000	-1.000000	-1.000000	-1.000000	-1.000000	-1.000000	-1.000000	139.103448	0.000000	-1.000000	-1.000000	657088.000000	1772919344.847680
-3413.160000	19530.270000	-21844.980000	-14687.100000	0.000000	0.000000	0.000000	0.000000	70.066163	-25.209437	90.536650	94.878730	0.000000	-0.000000	-0.000000	-0.000000	0.091560	0.335720	0.045780	-0.015137	0.863828	0.498595	-1.000000	-1.000000	-1.000000	-1.000000	-1.000000	-1.000000	-1.000000	139.103448	0.000000	-1.000000	-1.000000	657089.000000	1772919344.851543
-3488.220000	19531.755000	-21948.480000	-14801.220000	0.000000	0.000000	0.000000	0.000000	-3.082393	-22.175985	-13.341013	-14.683566	0.000000	-0.000000	-0.000000	-0.000000	0.091560	0.335720	0.045780	-0.015137	0.863828	0.498595	-1.000000	-1.000000	-1.000000	-1.000000	-1.000000	-1.000000	-1.000000	139.103448	0.000000	-1.000000	-1.000000	657090.000000	1772919344.851545
-3481.290000	19520.145000	-21927.195000	-14781.330000	0.000000	0.000000	0.000000	0.000000	-78.340863	25.075725	-113.369973	-120.157704	0.000000	-0.000000	-0.000000	-0.000000	0.091560	0.335720	0.045780	-0.015137	0.863828	0.498595	-1.000000	-1.000000	-1.000000	-1.000000	-1.000000	-1.000000	-1.000000	139.103448	0.000000	-1.000000	-1.000000	657091.000000	1772919344.855873
-3469.725000	19484.955000	-21895.020000	-14744.025000	0.000000	0.000000	0.000000	0.000000	-113.337822	79.991288	-153.372112	-162.388179	0.000000	-0.000000	-0.000000	-0.000000	0.091560	0.335720	0.045780	-0.015137	0.863828	0.498595	-1.000000	-1.000000	-1.000000	-1.000000	-1.000000	-1.000000	-1.000000	139.103448	0.000000	-1.000000	-1.000000	657092.000000	1772919344.855876
-3401.955000	19512.585000	-21789.360000	-14636.385000	0.000000	0.000000	0.000000	0.000000	-89.716985	103.677694	-112.133891	-118.817746	0.000000	-0.000000	-0.000000	-0.000000	-0.427280	0.564620	0.091560	-0.013489	0.863645	0.499327	-1.000000	-1.000000	-1.000000	-1.000000	-1.000000	-1.000000	-1.000000	139.103448	0.000000	-1.000000	-1.000000	657093.000000	1772919344.859857
-3316.590000	19583.055000	-21664.170000	-14509.440000	0.000000	0.000000	0.000000	0.000000	-21.939449	84.963717	-14.004849	-15.066032	0.000000	-0.000000	-0.000000	-0.000000	-0.427280	0.564620	0.091560	-0.013489	0.863645	0.499327	-1.000000	-1.000000	-1.000000	-1.000000	-1.000000	-1.000000	-1.000000	139.103448	0.000000	-1.000000	-1.000000	657094.000000	1772919344.859859
-3324.375000	19564.920000	-21681.630000	-14527.350000	0.000000	0.000000	0.000000	0.000000	53.780329	39.433972	88.185716	92.850255	0.000000	-0.000000	-0.000000	-0.000000	-0.427280	0.564620	0.091560	-0.013489	0.863645	0.499327	-1.000000	-1.000000	-1.000000	-1.000000	-1.000000	-1.000000	-1.000000	139.103448	0.000000	-1.000000	-1.000000	657095.000000	1772919344.863763
-3346.245000	19543.455000	-21725.235000	-14571.585000	0.000000	0.000000	0.000000	0.000000	97.991272	-12.896143	140.047263	147.669212	0.000000	-0.000000	-0.000000	-0.000000	-0.427280	0.564620	0.091560	-0.013489	0.863645	0.499327	-1.000000	-1.000000	-1.000000	-1.000000	-1.000000	-1.000000	-1.000000	139.103448	0.000000	-1.000000	-1.000000	657096.000000	1772919344.863765
-3415.230000	19524.195000	-21826.080000	-14669.865000	0.000000	0.000000	0.000000	0.000000	89.161928	-58.818528	115.276863	122.220208	0.000000	-0.000000	-0.000000	-0.000000	-0.427280	0.564620	0.091560	-0.013489	0.863645	0.499327	-1.000000	-1.000000	-1.000000	-1.000000	-1.000000	-1.000000	-1.000000	139.103448	0.000000	-1.000000	-1.000000	657097.000000	1772919344.867835
-3531.915000	19497.645000	-21983.985000	-14832.495000	0.000000	0.000000	0.000000	0.000000	34.791062	-88.368595	30.101249	33.833022	0.000000	-0.000000	-0.000000	-0.000000	-0.427280	0.564620	0.091560	-0.013489	0.863645	0.499327	-1.000000	-1.000000	-1.000000	-1.000000	-1.000000	-1.000000	-1.000000	139.103448	0.000000	-1.000000	-1.000000	657098.000000	1772919344.867838
-3541.455000	19508.130000	-21989.340000	-14842.575000	0.000000	0.000000	0.000000	0.000000	-34.816840	-94.096175	-68.352857	-68.648048	0.000000	-0.000000	-0.000000	-0.000000	-0.427280	0.564620	0.091560	-0.013489	0.863645	0.499327	-1.000000	-1.000000	-1.000000	-1.000000	-1.000000	-1.000000	-1.000000	139.103448	0.000000	-1.000000	-1.000000	657099.000000	1772919344.871860
-3498.570000	19507.725000	-21921.705000	-14779.215000	0.000000	0.000000	0.000000	0.000000	-80.759287	-74.627733	-125.193331	-128.939999	0.000000	-0.000000	-0.000000	-0.000000	-0.427280	0.564620	0.091560	-0.013489	0.863645	0.499327	-1.000000	-1.000000	-1.000000	-1.000000	-1.000000	-1.000000	-1.000000	139.103448	0.000000	-1.000000	-1.000000	657100.000000	1772919344.871863
-3446.550000	19513.845000	-21839.445000	-14694.525000	0.000000	0.000000	0.000000	0.000000	-76.631431	-37.315003	-107.611538	-113.103670	0.000000	-0.000000	-0.000000	-0.000000	-0.427280	0.564620	0.091560	-0.013489	0.863645	0.499327	-1.000000	-1.000000	-1.000000	-1.000000	-1.000000	-1.000000	-1.000000	139.103448	0.000000	-1.000000	-1.000000	657101.000000	1772919344.875899
-3348.990000	19597.050000	-21700.530000	-14550.930000	0.000000	0.000000	0.000000	0.000000	-26.306119	5.050981	-26.914110	-31.635165	0.000000	-0.000000	-0.000000	-0.000000	-0.427280	0.564620	0.091560	-0.013489	0.863645	0.499327	-1.000000	-1.000000	-1.000000	-1.000000	-1.000000	-1.000000	-1.000000	139.103448	0.000000	-1.000000	-1.000000	657102.000000	1772919344.875901
-3340.215000	19675.485000	-21693.915000	-14537.610000	0.000000	0.000000	0.000000	0.000000	39.453142	41.930957	69.352365	67.798587	0.000000	-0.000000	-0.000000	-0.000000	-1.678600	1.297100	-1.205540	-0.012024	0.861936	0.501525	-1.000000	-1.000000	-1.000000	-1.000000	-1.000000	-1.000000	-1.000000	139.103448	0.000000	-1.000000	-1.000000	657103.000000	1772919344.879824
-3387.195000	19799.280000	-21761.595000	-14602.545000	0.000000	0.000000	0.000000	0.000000	81.481020	66.977403	125.167198	127.741084	0.000000	-0.000000	-0.000000	-0.000000	-1.678600	1.297100	-1.205540	-0.012024	0.861936	0.501525	-1.000000	-1.000000	-1.000000	-1.000000	-1.000000	-1.000000	-1.000000	139.103448	0.000000	-1.000000	-1.000000	657104.000000	1772919344.879828
-3433.320000	19865.835000	-21830.310000	-14670.855000	0.000000	0.000000	0.000000	0.000000	74.864634	75.127642	108.169625	113.638254	0.000000	-0.000000	-0.000000	-0.000000	-1.678600	1.297100	-1.205540	-0.012024	0.861936	0.501525	-1.000000	-1.000000	-1.000000	-1.000000	-1.000000	-1.000000	-1.000000	139.103448	0.000000	-1.000000	-1.000000	657105.000000	1772919344.883878
-3545.055000	19819.755000	-21988.980000	-14834.205000	0.000000	0.000000	0.000000	0.000000	24.218691	60.169247	29.315482	34.757229	0.000000	-0.000000	-0.000000	-0.000000	-1.678600	1.297100	-1.205540	-0.012024	0.861936	0.501525	-1.000000	-1.000000	-1.000000	-1.000000	-1.000000	-1.000000	-1.000000	139.103448	0.000000	-1.000000	-1.000000	657106.000000	1772919344.883880
-3611.025000	19777.230000	-22063.995000	-14915.205000	0.000000	0.000000	0.000000	0.000000	-41.893432	18.164618	-67.372635	-65.036487	0.000000	-0.000000	-0.000000	-0.000000	-1.678600	1.297100	-1.205540	-0.012024	0.861936	0.501525	-1.000000	-1.000000	-1.000000	-1.000000	-1.000000	-1.000000	-1.000000	139.103448	0.000000	-1.000000	-1.000000	657107.000000	1772919344.887891
-3569.220000	19773.495000	-21999.285000	-14851.710000	0.000000	0.000000	0.000000	0.000000	-87.346795	-40.424350	-129.395344	-131.659794	0.000000	-0.000000	-0.000000	-0.000000	-1.678600	1.297100	-1.205540	-0.012024	0.861936	0.501525	-1.000000	-1.000000	-1.000000	-1.000000	-1.000000	-1.000000	-1.000000	139.103448	0.000000	-1.000000	-1.000000	657108.000000	1772919344.887894
-3488.310000	19777.455000	-21885.840000	-14746.680000	0.000000	0.000000	0.000000	0.000000	-84.654676	-88.415229	-119.870727	-125.814687	0.000000	-0.000000	-0.000000	-0.000000	-1.678600	1.297100	-1.205540	-0.012024	0.861936	0.501525	-1.000000	-1.000000	-1.000000	-1.000000	-1.000000	-1.000000	-1.000000	139.103448	0.000000	-1.000000	-1.000000	657109.000000	1772919344.891913
-3374.145000	19795.230000	-21732.885000	-14594.535000	0.000000	0.000000	0.000000	0.000000	-31.421646	-100.414661	-39.942018	-46.967549	0.000000	-0.000000	-0.000000	-0.000000	-1.678600	1.297100	-1.205540	-0.012024	0.861936	0.501525	-1.000000	-1.000000	-1.000000	-1.000000	-1.000000	-1.000000	-1.000000	139.103448	0.000000	-1.000000	-1.000000	657110.000000	1772919344.891916
-3333.555000	19703.070000	-21685.140000	-14524.470000	0.000000	0.000000	0.000000	0.000000	44.357189	-73.404724	67.333860	62.516620	0.000000	-0.000000	-0.000000	-0.000000	-1.678600	1.297100	-1.205540	-0.012024	0.861936	0.501525	-1.000000	-1.000000	-1.000000	-1.000000	-1.000000	-1.000000	-1.000000	139.103448	0.000000	-1.000000	-1.000000	657111.000000	1772919344.899613
-3352.590000	19601.460000	-21720.960000	-14559.660000	0.000000	0.000000	0.000000	0.000000	98.904051	-29.064577	140.254987	140.749930	0.000000	-0.000000	-0.000000	-0.000000	-1.678600	1.297100	-1.205540	-0.012024	0.861936	0.501525	-1.000000	-1.000000	-1.000000	-1.000000	-1.000000	-1.000000	-1.000000	139.103448	0.000000	-1.000000	-1.000000	657112.000000	1772919344.899617
-3383.370000	19631.070000	-21769.740000	-14614.245000	0.000000	0.000000	0.000000	0.000000	99.865952	8.002765	136.331010	142.691146	0.000000	-0.000000	-0.000000	-0.000000	1.800680	1.587040	-1.892240	-0.013061	0.853574	0.505004	-1.000000	-1.000000	-1.000000	-1.000000	-1.000000	-1.000000	-1.000000	139.103448	0.000000	-1.000000	-1.000000	657113.000000	1772919344.899622
-3487.095000	19693.035000	-21912.795000	-14760.765000	0.000000	0.000000	0.000000	0.000000	46.628570	33.350673	58.505379	67.190318	0.000000	-0.000000	-0.000000	-0.000000	1.800680	1.587040	-1.892240	-0.013061	0.853574	0.505004	-1.000000	-1.000000	-1.000000	-1.000000	-1.000000	-1.000000	-1.000000	139.103448	0.000000	-1.000000	-1.000000	657114.000000	1772919344.899625
-3563.595000	19654.875000	-22014.765000	-14875.965000	0.000000	0.000000	0.000000	0.000000	-32.500215	54.235787	-51.166100	-45.521758	0.000000	-0.000000	-0.000000	-0.000000	1.800680	1.587040	-1.892240	-0.013061	0.853574	0.505004	-1.000000	-1.000000	-1.000000	-1.000000	-1.000000	-1.000000	-1.000000	139.103448	0.000000	-1.000000	-1.000000	657115.000000	1772919344.904038
-3562.290000	19662.885000	-21994.020000	-14858.505000	0.000000	0.000000	0.000000	0.000000	-97.166535	67.869994	-136.303469	-137.163456	0.000000	-0.000000	-0.000000	-0.000000	1.800680	1.587040	-1.892240	-0.013061	0.853574	0.505004	-1.000000	-1.000000	-1.000000	-1.000000	-1.000000	-1.000000	-1.000000	139.103448	0.000000	-1.000000	-1.000000	657116.000000	1772919344.904041
-3515.940000	19700.370000	-21934.800000	-14793.660000	0.000000	0.000000	0.000000	0.000000	-113.572141	65.430764	-152.235641	-158.917326	0.000000	-0.000000	-0.000000	-0.000000	1.800680	1.587040	-1.892240	-0.013061	0.853574	0.505004	-1.000000	-1.000000	-1.000000	-1.000000	-1.000000	-1.000000	-1.000000	139.103448	0.000000	-1.000000	-1.000000	657117.000000	1772919344.907942
-3433.725000	19731.285000	-21818.610000	-14672.790000	0.000000	0.000000	0.000000	0.000000	-72.328688	47.375910	-90.074538	-98.116822	0.000000	-0.000000	-0.000000	-0.000000	1.800680	1.587040	-1.892240	-0.013061	0.853574	0.505004	-1.000000	-1.000000	-1.000000	-1.000000	-1.000000	-1.000000	-1.000000	139.103448	0.000000	-1.000000	-1.000000	657118.000000	1772919344.907946
-3346.380000	19770.165000	-21696.930000	-14541.435000	0.000000	0.000000	0.000000	0.000000	5.478786	22.357132	17.686749	13.509111	0.000000	-0.000000	-0.000000	-0.000000	1.800680	1.587040	-1.892240	-0.013061	0.853574	0.505004	-1.000000	-1.000000	-1.000000	-1.000000	-1.000000	-1.000000	-1.000000	139.103448	0.000000	-1.000000	-1.000000	657119.000000	1772919344.911964
-3358.980000	19898.145000	-21718.530000	-14558.940000	0.000000	0.000000	0.000000	0.000000	79.442689	0.408576	115.247316	117.562792	0.000000	-0.000000	-0.000000	-0.000000	1.800680	1.587040	-1.892240	-0.013061	0.853574	0.505004	-1.000000	-1.000000	-1.000000	-1.000000	-1.000000	-1.000000	-1.000000	139.103448	0.000000	-1.000000	-1.000000	657120.000000	1772919344.911971
-3403.305000	19952.910000	-21784.230000	-14623.965000	0.000000	0.000000	0.000000	0.000000	110.371967	-10.789720	151.099013	158.558649	0.000000	-0.000000	-0.000000	-0.000000	1.800680	1.587040	-1.892240	-0.013061	0.853574	0.505004	-1.000000	-1.000000	-1.000000	-1.000000	-1.000000	-1.000000	-1.000000	139.103448	0.000000	-1.000000	-1.000000	657121.000000	1772919344.919816
-3490.155000	19936.620000	-21906.225000	-14745.195000	0.000000	0.000000	0.000000	0.000000	82.173306	-13.582154	106.176729	114.555871	0.000000	-0.000000	-0.000000	-0.000000	1.800680	1.587040	-1.892240	-0.013061	0.853574	0.505004	-1.000000	-1.000000	-1.000000	-1.000000	-1.000000	-1.000000	-1.000000	139.103448	0.000000	-1.000000	-1.000000	657122.000000	1772919344.919823
-3587.670000	19815.210000	-22039.425000	-14887.935000	0.000000	0.000000	0.000000	0.000000	11.302114	-21.982863	5.657192	10.421707	0.000000	-0.000000	-0.000000	-0.000000	5.981920	1.327620	-1.373400	-0.014709	0.850095	0.507445	-1.000000	-1.000000	-1.000000	-1.000000	-1.000000	-1.000000	-1.000000	139.103448	0.000000	-1.000000	-1.000000	657123.000000	1772919344.919829
-3549.915000	19589.580000	-21995.055000	-14852.835000	0.000000	0.000000	0.000000	0.000000	-62.539519	-48.977578	-94.924619	-96.468737	0.000000	-0.000000	-0.000000	-0.000000	5.981920	1.327620	-1.373400	-0.014709	0.850095	0.507445	-1.000000	-1.000000	-1.000000	-1.000000	-1.000000	-1.000000	-1.000000	139.103448	0.000000	-1.000000	-1.000000	657124.000000	1772919344.919832
-3511.035000	19546.560000	-21948.750000	-14795.415000	0.000000	0.000000	0.000000	0.000000	-97.305915	-88.775287	-139.006471	-146.374141	0.000000	-0.000000	-0.000000	-0.000000	5.981920	1.327620	-1.373400	-0.014709	0.850095	0.507445	-1.000000	-1.000000	-1.000000	-1.000000	-1.000000	-1.000000	-1.000000	139.103448	0.000000	-1.000000	-1.000000	657125.000000	1772919344.929613
-3440.565000	19545.885000	-21855.555000	-14698.710000	0.000000	0.000000	0.000000	0.000000	-74.396518	-110.582553	-103.300700	-112.520890	0.000000	-0.000000	-0.000000	-0.000000	5.981920	1.327620	-1.373400	-0.014709	0.850095	0.507445	-1.000000	-1.000000	-1.000000	-1.000000	-1.000000	-1.000000	-1.000000	139.103448	0.000000	-1.000000	-1.000000	657126.000000	1772919344.929621
-3347.415000	19602.180000	-21716.370000	-14559.570000	0.000000	0.000000	0.000000	0.000000	-10.132403	-82.096133	-11.472072	-17.462321	0.000000	-0.000000	-0.000000	-0.000000	5.981920	1.327620	-1.373400	-0.014709	0.850095	0.507445	-1.000000	-1.000000	-1.000000	-1.000000	-1.000000	-1.000000	-1.000000	139.103448	0.000000	-1.000000	-1.000000	657127.000000	1772919344.929628
-3313.080000	19649.385000	-21680.280000	-14515.740000	0.000000	0.000000	0.000000	0.000000	58.048926	-3.227109	84.960811	84.875835	0.000000	-0.000000	-0.000000	-0.000000	5.981920	1.327620	-1.373400	-0.014709	0.850095	0.507445	-1.000000	-1.000000	-1.000000	-1.000000	-1.000000	-1.000000	-1.000000	139.103448	0.000000	-1.000000	-1.000000	657128.000000	1772919344.929630
-3282.345000	19670.850000	-21669.705000	-14497.245000	0.000000	0.000000	0.000000	0.000000	94.309207	89.533631	135.612618	140.765326	0.000000	-0.000000	-0.000000	-0.000000	5.981920	1.327620	-1.373400	-0.014709	0.850095	0.507445	-1.000000	-1.000000	-1.000000	-1.000000	-1.000000	-1.000000	-1.000000	139.103448	0.000000	-1.000000	-1.000000	657129.000000	1772919344.933529
-3328.605000	19698.885000	-21749.625000	-14573.295000	0.000000	0.000000	0.000000	0.000000	81.779491	149.266049	115.375512	123.108369	0.000000	-0.000000	-0.000000	-0.000000	5.981920	1.327620	-1.373400	-0.014709	0.850095	0.507445	-1.000000	-1.000000	-1.000000	-1.000000	-1.000000	-1.000000	-1.000000	139.103448	0.000000	-1.000000	-1.000000	657130.000000	1772919344.933534
-3522.780000	19653.930000	-21999.690000	-14832.720000	0.000000	0.000000	0.000000	0.000000	25.684820	148.341890	32.956896	39.813581	0.000000	-0.000000	-0.000000	-0.000000	5.981920	1.327620	-1.373400	-0.014709	0.850095	0.507445	-1.000000	-1.000000	-1.000000	-1.000000	-1.000000	-1.000000	-1.000000	139.103448	0.000000	-1.000000	-1.000000	657131.000000	1772919344.937951
-3601.440000	19606.005000	-22067.145000	-14902.605000	0.000000	0.000000	0.000000	0.000000	-52.160988	90.032066	-75.672212	-73.008417	0.000000	-0.000000	-0.000000	-0.000000	5.981920	1.327620	-1.373400	-0.014709	0.850095	0.507445	-1.000000	-1.000000	-1.000000	-1.000000	-1.000000	-1.000000	-1.000000	139.103448	0.000000	-1.000000	-1.000000	657132.000000	1772919344.937954
-3523.770000	19658.475000	-21957.660000	-14794.920000	0.000000	0.000000	0.000000	0.000000	-113.445760	4.347024	-153.940121	-156.996448	0.000000	-0.000000	-0.000000	-0.000000	8.301440	0.824040	-1.617560	-0.015808	0.851682	0.507323	-1.000000	-1.000000	-1.000000	-1.000000	-1.000000	-1.000000	-1.000000	139.103448	0.000000	-1.000000	-1.000000	657133.000000	1772919344.940010
-3477.420000	19692.900000	-21875.265000	-14718.825000	0.000000	0.000000	0.000000	0.000000	-117.648500	-66.270663	-150.174810	-157.584230	0.000000	-0.000000	-0.000000	-0.000000	8.301440	0.824040	-1.617560	-0.015808	0.851682	0.507323	-1.000000	-1.000000	-1.000000	-1.000000	-1.000000	-1.000000	-1.000000	139.103448	0.000000	-1.000000	-1.000000	657134.000000	1772919344.940027
-3423.960000	19686.105000	-21780.675000	-14607.045000	0.000000	0.000000	0.000000	0.000000	-56.895486	-93.196022	-61.289283	-69.425317	0.000000	-0.000000	-0.000000	-0.000000	8.301440	0.824040	-1.617560	-0.015808	0.851682	0.507323	-1.000000	-1.000000	-1.000000	-1.000000	-1.000000	-1.000000	-1.000000	139.103448	0.000000	-1.000000	-1.000000	657135.000000	1772919344.944098
-3380.760000	19721.745000	-21732.300000	-14550.750000	0.000000	0.000000	0.000000	0.000000	33.482025	-77.937225	59.991740	55.510593	0.000000	-0.000000	-0.000000	-0.000000	8.301440	0.824040	-1.617560	-0.015808	0.851682	0.507323	-1.000000	-1.000000	-1.000000	-1.000000	-1.000000	-1.000000	-1.000000	139.103448	0.000000	-1.000000	-1.000000	657136.000000	1772919344.944105
-3387.375000	19792.305000	-21757.455000	-14576.895000	0.000000	0.000000	0.000000	0.000000	103.018174	-40.073278	144.619769	146.482843	0.000000	-0.000000	-0.000000	-0.000000	8.301440	0.824040	-1.617560	-0.015808	0.851682	0.507323	-1.000000	-1.000000	-1.000000	-1.000000	-1.000000	-1.000000	-1.000000	139.103448	0.000000	-1.000000	-1.000000	657137.000000	1772919344.948111
-3372.075000	19832.220000	-21797.100000	-14653.215000	0.000000	0.000000	0.000000	0.000000	119.040865	0.858964	150.621139	156.916860	0.000000	-0.000000	-0.000000	-0.000000	8.301440	0.824040	-1.617560	-0.015808	0.851682	0.507323	-1.000000	-1.000000	-1.000000	-1.000000	-1.000000	-1.000000	-1.000000	139.103448	0.000000	-1.000000	-1.000000	657138.000000	1772919344.948141
-3433.545000	19806.345000	-21973.770000	-14786.820000	0.000000	0.000000	0.000000	0.000000	80.779977	29.044785	80.859987	86.343375	0.000000	-0.000000	-0.000000	-0.000000	8.301440	0.824040	-1.617560	-0.015808	0.851682	0.507323	-1.000000	-1.000000	-1.000000	-1.000000	-1.000000	-1.000000	-1.000000	139.103448	0.000000	-1.000000	-1.000000	657139.000000	1772919344.952033
-3482.820000	19709.280000	-22051.665000	-14858.730000	0.000000	0.000000	0.000000	0.000000	11.978195	31.856447	-26.328007	-24.069712	0.000000	-0.000000	-0.000000	-0.000000	8.301440	0.824040	-1.617560	-0.015808	0.851682	0.507323	-1.000000	-1.000000	-1.000000	-1.000000	-1.000000	-1.000000	-1.000000	139.103448	0.000000	-1.000000	-1.000000	657140.000000	1772919344.952039
-3574.305000	19716.435000	-22067.820000	-14915.340000	0.000000	0.000000	0.000000	0.000000	-55.945990	8.243202	-116.492838	-116.027418	0.000000	-0.000000	-0.000000	-0.000000	8.301440	0.824040	-1.617560	-0.015808	0.851682	0.507323	-1.000000	-1.000000	-1.000000	-1.000000	-1.000000	-1.000000	-1.000000	139.103448	0.000000	-1.000000	-1.000000	657141.000000	1772919344.956048
-3570.840000	19738.485000	-21983.130000	-14857.740000	0.000000	0.000000	0.000000	0.000000	-96.447630	-23.310910	-142.675204	-144.549264	0.000000	-0.000000	-0.000000	-0.000000	8.301440	0.824040	-1.617560	-0.015808	0.851682	0.507323	-1.000000	-1.000000	-1.000000	-1.000000	-1.000000	-1.000000	-1.000000	139.103448	0.000000	-1.000000	-1.000000	657142.000000	1772919344.956052
-3470.040000	19735.605000	-21803.220000	-14656.950000	0.000000	0.000000	0.000000	0.000000	-92.896029	-37.712852	-89.849608	-96.428519	0.000000	-0.000000	-0.000000	-0.000000	4.684820	3.158820	-2.990960	-0.010864	0.860532	0.502318	-1.000000	-1.000000	-1.000000	-1.000000	-1.000000	-1.000000	-1.000000	139.103448	0.000000	-1.000000	-1.000000	657143.000000	1772919344.963957
-3360.510000	19864.440000	-21652.515000	-14509.485000	0.000000	0.000000	0.000000	0.000000	-43.497643	-23.968429	16.242457	6.962830	0.000000	-0.000000	-0.000000	-0.000000	4.684820	3.158820	-2.990960	-0.010864	0.860532	0.502318	-1.000000	-1.000000	-1.000000	-1.000000	-1.000000	-1.000000	-1.000000	139.103448	0.000000	-1.000000	-1.000000	657144.000000	1772919344.963965
-3377.340000	19942.785000	-21674.520000	-14550.660000	0.000000	0.000000	0.000000	0.000000	29.411673	11.798388	118.723396	112.634888	0.000000	-0.000000	-0.000000	-0.000000	4.684820	3.158820	-2.990960	-0.010864	0.860532	0.502318	-1.000000	-1.000000	-1.000000	-1.000000	-1.000000	-1.000000	-1.000000	139.103448	0.000000	-1.000000	-1.000000	657145.000000	1772919344.963975
-3471.615000	19916.325000	-21800.970000	-14684.400000	0.000000	0.000000	0.000000	0.000000	82.767874	49.671493	155.800620	156.231060	0.000000	-0.000000	-0.000000	-0.000000	4.684820	3.158820	-2.990960	-0.010864	0.860532	0.502318	-1.000000	-1.000000	-1.000000	-1.000000	-1.000000	-1.000000	-1.000000	139.103448	0.000000	-1.000000	-1.000000	657146.000000	1772919344.963977
-3610.440000	19890.135000	-22009.050000	-14854.815000	0.000000	0.000000	0.000000	0.000000	80.753898	62.727008	98.798276	105.136161	0.000000	-0.000000	-0.000000	-0.000000	4.684820	3.158820	-2.990960	-0.010864	0.860532	0.502318	-1.000000	-1.000000	-1.000000	-1.000000	-1.000000	-1.000000	-1.000000	139.103448	0.000000	-1.000000	-1.000000	657147.000000	1772919344.974428
-3617.550000	19926.090000	-22088.295000	-14904.945000	0.000000	0.000000	0.000000	0.000000	25.690242	39.189179	-23.473060	-11.874161	0.000000	-0.000000	-0.000000	-0.000000	4.684820	3.158820	-2.990960	-0.010864	0.860532	0.502318	-1.000000	-1.000000	-1.000000	-1.000000	-1.000000	-1.000000	-1.000000	139.103448	0.000000	-1.000000	-1.000000	657148.000000	1772919344.974434
-3617.550000	19926.090000	-22088.295000	-14904.945000	0.000000	0.000000	0.000000	0.000000	-40.840764	-4.766188	-137.862704	-121.528397	0.000000	-0.000000	-0.000000	-0.000000	4.684820	3.158820	-2.990960	-0.010864	0.860532	0.502318	-1.000000	-1.000000	-1.000000	-1.000000	-1.000000	-1.000000	-1.000000	139.103448	0.000000	-1.000000	-1.000000	657149.000000	1772919344.974488
-3617.550000	19926.090000	-22088.295000	-14904.945000	0.000000	0.000000	0.000000	0.000000	-72.953619	-42.062844	-175.655612	-158.869311	0.000000	-0.000000	-0.000000	-0.000000	4.684820	3.158820	-2.990960	-0.010864	0.860532	0.502318	-1.000000	-1.000000	-1.000000	-1.000000	-1.000000	-1.000000	-1.000000	139.103448	0.000000	-1.000000	-1.000000	657150.000000	1772919344.974491
-3617.550000	19926.090000	-22088.295000	-14904.945000	0.000000	0.000000	0.000000	0.000000	-56.154236	-56.601858	-120.462325	-110.928205	0.000000	-0.000000	-0.000000	-0.000000	4.684820	3.158820	-2.990960	-0.010864	0.860532	0.502318	-1.000000	-1.000000	-1.000000	-1.000000	-1.000000	-1.000000	-1.000000	139.103448	0.000000	-1.000000	-1.000000	657151.000000	1772919344.974492
-3467.835000	20109.420000	-21846.960000	-14635.170000	0.000000	0.000000	0.000000	0.000000	-6.888722	-44.610774	-7.984593	-10.802805	0.000000	-0.000000	-0.000000	-0.000000	0.396760	5.722500	-4.211760	-0.007446	0.870847	0.495116	-1.000000	-1.000000	-1.000000	-1.000000	-1.000000	-1.000000	-1.000000	139.103448	0.000000	-1.000000	-1.000000	657153.000000	1772919344.980079
-3495.465000	20081.070000	-21888.945000	-14678.595000	0.000000	0.000000	0.000000	0.000000	47.718353	-10.595593	107.268002	93.976258	0.000000	-0.000000	-0.000000	-0.000000	0.396760	5.722500	-4.211760	-0.007446	0.870847	0.495116	-1.000000	-1.000000	-1.000000	-1.000000	-1.000000	-1.000000	-1.000000	139.103448	0.000000	-1.000000	-1.000000	657154.000000	1772919344.980086
-3539.700000	20065.410000	-21871.170000	-14769.405000	0.000000	0.000000	0.000000	0.000000	78.725847	26.019916	172.519260	153.214348	0.000000	-0.000000	-0.000000	-0.000000	0.396760	5.722500	-4.211760	-0.007446	0.870847	0.495116	-1.000000	-1.000000	-1.000000	-1.000000	-1.000000	-1.000000	-1.000000	139.103448	0.000000	-1.000000	-1.000000	657155.000000	1772919344.984280
-3598.155000	20115.135000	-21854.655000	-14890.365000	0.000000	0.000000	0.000000	0.000000	66.087745	40.764583	158.116151	131.084407	0.000000	-0.000000	-0.000000	-0.000000	0.396760	5.722500	-4.211760	-0.007446	0.870847	0.495116	-1.000000	-1.000000	-1.000000	-1.000000	-1.000000	-1.000000	-1.000000	139.103448	0.000000	-1.000000	-1.000000	657156.000000	1772919344.984283
-3551.580000	20113.695000	-21790.440000	-14861.655000	0.000000	0.000000	0.000000	0.000000	17.556115	28.801023	79.961718	40.279877	0.000000	-0.000000	-0.000000	-0.000000	0.396760	5.722500	-4.211760	-0.007446	0.870847	0.495116	-1.000000	-1.000000	-1.000000	-1.000000	-1.000000	-1.000000	-1.000000	139.103448	0.000000	-1.000000	-1.000000	657157.000000	1772919344.988497
-3517.920000	20160.675000	-21806.055000	-14807.880000	0.000000	0.000000	0.000000	0.000000	-33.525012	4.673284	-15.197601	-59.212646	0.000000	-0.000000	-0.000000	-0.000000	0.396760	5.722500	-4.211760	-0.007446	0.870847	0.495116	-1.000000	-1.000000	-1.000000	-1.000000	-1.000000	-1.000000	-1.000000	139.103448	0.000000	-1.000000	-1.000000	657158.000000	1772919344.988501
-3485.925000	20127.105000	-21890.475000	-14769.405000	0.000000	0.000000	0.000000	0.000000	-56.353486	-15.834564	-87.827621	-107.784388	0.000000	-0.000000	-0.000000	-0.000000	0.396760	5.722500	-4.211760	-0.007446	0.870847	0.495116	-1.000000	-1.000000	-1.000000	-1.000000	-1.000000	-1.000000	-1.000000	139.103448	0.000000	-1.000000	-1.000000	657159.000000	1772919344.992139
-3392.550000	20154.240000	-21725.055000	-14627.295000	0.000000	0.000000	0.000000	0.000000	-44.020430	-25.690502	-119.677370	-87.600136	0.000000	-0.000000	-0.000000	-0.000000	0.396760	5.722500	-4.211760	-0.007446	0.870847	0.495116	-1.000000	-1.000000	-1.000000	-1.000000	-1.000000	-1.000000	-1.000000	139.103448	0.000000	-1.000000	-1.000000	657160.000000	1772919344.992142
-3381.345000	20284.515000	-21558.015000	-14571.045000	0.000000	0.000000	0.000000	0.000000	-10.838236	-22.569710	-101.907300	-22.587487	0.000000	-0.000000	-0.000000	-0.000000	0.396760	5.722500	-4.211760	-0.007446	0.870847	0.495116	-1.000000	-1.000000	-1.000000	-1.000000	-1.000000	-1.000000	-1.000000	139.103448	0.000000	-1.000000	-1.000000	657161.000000	1772919344.999580
-3446.280000	20369.655000	-21471.165000	-14613.930000	0.000000	0.000000	0.000000	0.000000	18.378409	-4.125754	-39.720454	42.394924	0.000000	-0.000000	-0.000000	-0.000000	0.396760	5.722500	-4.211760	-0.007446	0.870847	0.495116	-1.000000	-1.000000	-1.000000	-1.000000	-1.000000	-1.000000	-1.000000	139.103448	0.000000	-1.000000	-1.000000	657162.000000	1772919344.999586
-3457.530000	20423.880000	-21298.905000	-14603.760000	0.000000	0.000000	0.000000	0.000000	22.664692	23.427000	35.789676	67.180066	0.000000	-0.000000	-0.000000	-0.000000	-16.435020	12.848920	-0.595140	-0.009827	0.873167	0.478270	-1.000000	-1.000000	-1.000000	-1.000000	-1.000000	-1.000000	-1.000000	139.103448	0.000000	-1.000000	-1.000000	657163.000000	1772919345.000217
-3571.920000	20364.660000	-21594.960000	-14813.595000	0.000000	0.000000	0.000000	0.000000	0.283052	40.619984	79.363018	39.318718	0.000000	-0.000000	-0.000000	-0.000000	-16.435020	12.848920	-0.595140	-0.009827	0.873167	0.478270	-1.000000	-1.000000	-1.000000	-1.000000	-1.000000	-1.000000	-1.000000	139.103448	0.000000	-1.000000	-1.000000	657164.000000	1772919345.000220
-3625.110000	20332.530000	-21898.440000	-14939.775000	0.000000	0.000000	0.000000	0.000000	-32.894751	29.140163	52.275243	-24.987450	0.000000	-0.000000	-0.000000	-0.000000	-16.435020	12.848920	-0.595140	-0.009827	0.873167	0.478270	-1.000000	-1.000000	-1.000000	-1.000000	-1.000000	-1.000000	-1.000000	139.103448	0.000000	-1.000000	-1.000000	657165.000000	1772919345.004733
-3587.085000	20467.305000	-21825.090000	-14834.970000	0.000000	0.000000	0.000000	0.000000	-54.244151	-6.094296	-39.532464	-87.346084	0.000000	-0.000000	-0.000000	-0.000000	-16.435020	12.848920	-0.595140	-0.009827	0.873167	0.478270	-1.000000	-1.000000	-1.000000	-1.000000	-1.000000	-1.000000	-1.000000	139.103448	0.000000	-1.000000	-1.000000	657166.000000	1772919345.004736
-3620.025000	20499.705000	-22115.925000	-14896.845000	0.000000	0.000000	0.000000	0.000000	-45.965537	-36.245663	-130.411494	-102.770078	0.000000	-0.000000	-0.000000	-0.000000	-16.435020	12.848920	-0.595140	-0.009827	0.873167	0.478270	-1.000000	-1.000000	-1.000000	-1.000000	-1.000000	-1.000000	-1.000000	139.103448	0.000000	-1.000000	-1.000000	657167.000000	1772919345.008282
-3538.350000	20480.985000	-22070.430000	-14791.860000	0.000000	0.000000	0.000000	0.000000	-8.557245	-40.387678	-154.766865	-56.396081	0.000000	-0.000000	-0.000000	-0.000000	-16.435020	12.848920	-0.595140	-0.009827	0.873167	0.478270	-1.000000	-1.000000	-1.000000	-1.000000	-1.000000	-1.000000	-1.000000	139.103448	0.000000	-1.000000	-1.000000	657168.000000	1772919345.008300
-3434.580000	20535.120000	-21774.915000	-14636.970000	0.000000	0.000000	0.000000	0.000000	41.446539	-24.648841	-90.780357	27.305833	0.000000	-0.000000	-0.000000	-0.000000	-16.435020	12.848920	-0.595140	-0.009827	0.873167	0.478270	-1.000000	-1.000000	-1.000000	-1.000000	-1.000000	-1.000000	-1.000000	139.103448	0.000000	-1.000000	-1.000000	657169.000000	1772919345.012269
-3430.620000	20624.625000	-21769.695000	-14640.030000	0.000000	0.000000	0.000000	0.000000	82.695629	-3.523327	42.042179	107.474180	0.000000	-0.000000	-0.000000	-0.000000	-16.435020	12.848920	-0.595140	-0.009827	0.873167	0.478270	-1.000000	-1.000000	-1.000000	-1.000000	-1.000000	-1.000000	-1.000000	139.103448	0.000000	-1.000000	-1.000000	657170.000000	1772919345.012276
-3538.305000	20752.695000	-21794.040000	-14736.915000	0.000000	0.000000	0.000000	0.000000	92.012858	17.394123	177.270884	141.483240	0.000000	-0.000000	-0.000000	-0.000000	-16.435020	12.848920	-0.595140	-0.009827	0.873167	0.478270	-1.000000	-1.000000	-1.000000	-1.000000	-1.000000	-1.000000	-1.000000	139.103448	0.000000	-1.000000	-1.000000	657171.000000	1772919345.016244
-3618.180000	20789.280000	-21751.425000	-14852.880000	0.000000	0.000000	0.000000	0.000000	55.224633	35.360624	234.926764	104.034009	0.000000	-0.000000	-0.000000	-0.000000	-16.435020	12.848920	-0.595140	-0.009827	0.873167	0.478270	-1.000000	-1.000000	-1.000000	-1.000000	-1.000000	-1.000000	-1.000000	139.103448	0.000000	-1.000000	-1.000000	657172.000000	1772919345.016248
-3641.535000	20645.100000	-21732.030000	-14949.990000	0.000000	0.000000	0.000000	0.000000	-13.705699	38.494845	187.825545	10.535039	0.000000	-0.000000	-0.000000	-0.000000	-37.737980	1.907500	3.097780	-0.032410	0.900205	0.502135	-1.000000	-1.000000	-1.000000	-1.000000	-1.000000	-1.000000	-1.000000	139.103448	0.000000	-1.000000	-1.000000	657173.000000	1772919345.030337
-3670.965000	20609.415000	-21552.480000	-14962.905000	0.000000	0.000000	0.000000	0.000000	-76.058539	12.559008	75.887714	-87.679284	0.000000	-0.000000	-0.000000	-0.000000	-37.737980	1.907500	3.097780	-0.032410	0.900205	0.502135	-1.000000	-1.000000	-1.000000	-1.000000	-1.000000	-1.000000	-1.000000	139.103448	0.000000	-1.000000	-1.000000	657174.000000	1772919345.030341
-3598.875000	20674.125000	-21363.570000	-14846.220000	0.000000	0.000000	0.000000	0.000000	-96.516608	-33.060017	-32.136584	-134.546172	0.000000	-0.000000	-0.000000	-0.000000	-37.737980	1.907500	3.097780	-0.032410	0.900205	0.502135	-1.000000	-1.000000	-1.000000	-1.000000	-1.000000	-1.000000	-1.000000	139.103448	0.000000	-1.000000	-1.000000	657175.000000	1772919345.030761
-3312.855000	20663.280000	-21105.765000	-14549.940000	0.000000	0.000000	0.000000	0.000000	-61.236119	-64.498467	-85.282202	-99.746655	0.000000	-0.000000	-0.000000	-0.000000	-37.737980	1.907500	3.097780	-0.032410	0.900205	0.502135	-1.000000	-1.000000	-1.000000	-1.000000	-1.000000	-1.000000	-1.000000	139.103448	0.000000	-1.000000	-1.000000	657176.000000	1772919345.030763
-3223.890000	20649.330000	-21307.365000	-14436.495000	0.000000	0.000000	0.000000	0.000000	17.739875	-59.257066	-83.676757	2.284839	0.000000	-0.000000	-0.000000	-0.000000	-37.737980	1.907500	3.097780	-0.032410	0.900205	0.502135	-1.000000	-1.000000	-1.000000	-1.000000	-1.000000	-1.000000	-1.000000	139.103448	0.000000	-1.000000	-1.000000	657177.000000	1772919345.030768
-3517.110000	20709.450000	-22143.825000	-14749.740000	0.000000	0.000000	0.000000	0.000000	91.617419	-24.277391	-87.055221	104.593079	0.000000	-0.000000	-0.000000	-0.000000	-37.737980	1.907500	3.097780	-0.032410	0.900205	0.502135	-1.000000	-1.000000	-1.000000	-1.000000	-1.000000	-1.000000	-1.000000	139.103448	0.000000	-1.000000	-1.000000	657178.000000	1772919345.030770
-3672.405000	20820.420000	-22530.465000	-14921.505000	0.000000	0.000000	0.000000	0.000000	95.292101	21.535708	-158.716568	123.472530	0.000000	-0.000000	-0.000000	-0.000000	-37.737980	1.907500	3.097780	-0.032410	0.900205	0.502135	-1.000000	-1.000000	-1.000000	-1.000000	-1.000000	-1.000000	-1.000000	139.103448	0.000000	-1.000000	-1.000000	657179.000000	1772919345.033920
-3575.835000	20912.355000	-22325.805000	-14892.525000	0.000000	0.000000	0.000000	0.000000	18.103879	62.515642	-260.616533	40.311965	0.000000	-0.000000	-0.000000	-0.000000	-37.737980	1.907500	3.097780	-0.032410	0.900205	0.502135	-1.000000	-1.000000	-1.000000	-1.000000	-1.000000	-1.000000	-1.000000	139.103448	0.000000	-1.000000	-1.000000	657180.000000	1772919345.033924
-3567.465000	20865.465000	-22017.105000	-14897.340000	0.000000	0.000000	0.000000	0.000000	-73.384239	83.351504	-258.058465	-72.942697	0.000000	-0.000000	-0.000000	-0.000000	-37.737980	1.907500	3.097780	-0.032410	0.900205	0.502135	-1.000000	-1.000000	-1.000000	-1.000000	-1.000000	-1.000000	-1.000000	139.103448	0.000000	-1.000000	-1.000000	657181.000000	1772919345.037673
-3718.845000	20820.105000	-22028.355000	-14992.380000	0.000000	0.000000	0.000000	0.000000	-110.715952	68.790317	-77.965950	-131.544425	0.000000	-0.000000	-0.000000	-0.000000	-37.737980	1.907500	3.097780	-0.032410	0.900205	0.502135	-1.000000	-1.000000	-1.000000	-1.000000	-1.000000	-1.000000	-1.000000	139.103448	0.000000	-1.000000	-1.000000	657182.000000	1772919345.037676
-3817.530000	20830.770000	-22118.850000	-15005.700000	0.000000	0.000000	0.000000	0.000000	-87.758251	19.536154	188.050785	-110.957593	0.000000	-0.000000	-0.000000	-0.000000	-12.665800	-22.477980	24.095540	-0.067810	0.914365	0.563963	-1.000000	-1.000000	-1.000000	-1.000000	-1.000000	-1.000000	-1.000000	139.103448	0.000000	-1.000000	-1.000000	657183.000000	1772919345.040233
-3650.895000	20870.145000	-22207.815000	-14898.240000	0.000000	0.000000	0.000000	0.000000	-34.426518	-38.221980	370.127866	-37.853971	0.000000	-0.000000	-0.000000	-0.000000	-12.665800	-22.477980	24.095540	-0.067810	0.914365	0.563963	-1.000000	-1.000000	-1.000000	-1.000000	-1.000000	-1.000000	-1.000000	139.103448	0.000000	-1.000000	-1.000000	657184.000000	1772919345.040237
-3363.480000	20888.235000	-21971.115000	-14605.920000	0.000000	0.000000	0.000000	0.000000	33.676460	-71.519015	375.887080	53.617922	0.000000	-0.000000	-0.000000	-0.000000	-12.665800	-22.477980	24.095540	-0.067810	0.914365	0.563963	-1.000000	-1.000000	-1.000000	-1.000000	-1.000000	-1.000000	-1.000000	139.103448	0.000000	-1.000000	-1.000000	657185.000000	1772919345.044275
-3288.240000	20881.710000	-21779.190000	-14554.305000	0.000000	0.000000	0.000000	0.000000	108.911536	-67.327765	245.827333	135.298279	0.000000	-0.000000	-0.000000	-0.000000	-12.665800	-22.477980	24.095540	-0.067810	0.914365	0.563963	-1.000000	-1.000000	-1.000000	-1.000000	-1.000000	-1.000000	-1.000000	139.103448	0.000000	-1.000000	-1.000000	657186.000000	1772919345.044278
-3361.410000	20829.555000	-21947.130000	-14715.000000	0.000000	0.000000	0.000000	0.000000	157.803073	-38.465178	75.695003	169.558769	0.000000	-0.000000	-0.000000	-0.000000	-12.665800	-22.477980	24.095540	-0.067810	0.914365	0.563963	-1.000000	-1.000000	-1.000000	-1.000000	-1.000000	-1.000000	-1.000000	139.103448	0.000000	-1.000000	-1.000000	657187.000000	1772919345.048457
-3628.665000	20820.690000	-22114.980000	-14904.630000	0.000000	0.000000	0.000000	0.000000	132.568418	-7.689904	-77.937999	119.808821	0.000000	-0.000000	-0.000000	-0.000000	-12.665800	-22.477980	24.095540	-0.067810	0.914365	0.563963	-1.000000	-1.000000	-1.000000	-1.000000	-1.000000	-1.000000	-1.000000	139.103448	0.000000	-1.000000	-1.000000	657188.000000	1772919345.048463
-3785.850000	20855.070000	-22085.190000	-14995.710000	0.000000	0.000000	0.000000	0.000000	21.992320	12.329505	-195.517599	-4.782221	0.000000	-0.000000	-0.000000	-0.000000	-12.665800	-22.477980	24.095540	-0.067810	0.914365	0.563963	-1.000000	-1.000000	-1.000000	-1.000000	-1.000000	-1.000000	-1.000000	139.103448	0.000000	-1.000000	-1.000000	657189.000000	1772919345.052356
-3719.295000	20768.535000	-21974.670000	-14924.565000	0.000000	0.000000	0.000000	0.000000	-118.450021	21.752681	-249.111626	-135.308537	0.000000	-0.000000	-0.000000	-0.000000	-12.665800	-22.477980	24.095540	-0.067810	0.914365	0.563963	-1.000000	-1.000000	-1.000000	-1.000000	-1.000000	-1.000000	-1.000000	139.103448	0.000000	-1.000000	-1.000000	657190.000000	1772919345.052360
-3624.390000	20686.905000	-21974.085000	-14837.670000	0.000000	0.000000	0.000000	0.000000	-197.714643	20.895294	-214.561121	-190.385388	0.000000	-0.000000	-0.000000	-0.000000	-12.665800	-22.477980	24.095540	-0.067810	0.914365	0.563963	-1.000000	-1.000000	-1.000000	-1.000000	-1.000000	-1.000000	-1.000000	139.103448	0.000000	-1.000000	-1.000000	657191.000000	1772919345.056405
-3462.840000	20593.665000	-21895.605000	-14742.945000	0.000000	0.000000	0.000000	0.000000	-161.952059	8.399879	-109.876933	-139.088709	0.000000	-0.000000	-0.000000	-0.000000	-12.665800	-22.477980	24.095540	-0.067810	0.914365	0.563963	-1.000000	-1.000000	-1.000000	-1.000000	-1.000000	-1.000000	-1.000000	139.103448	0.000000	-1.000000	-1.000000	657192.000000	1772919345.056408
-3411.315000	20549.430000	-21849.030000	-14733.090000	0.000000	0.000000	0.000000	0.000000	-36.435990	-9.487758	12.213068	-20.702674	0.000000	-0.000000	-0.000000	-0.000000	31.069360	-42.331240	29.299200	-0.069702	0.861326	0.552367	-1.000000	-1.000000	-1.000000	-1.000000	-1.000000	-1.000000	-1.000000	139.103448	0.000000	-1.000000	-1.000000	657193.000000	1772919345.060315
-3403.215000	20600.055000	-21820.455000	-14677.380000	0.000000	0.000000	0.000000	0.000000	98.048612	-17.914095	100.815672	90.908889	0.000000	-0.000000	-0.000000	-0.000000	31.069360	-42.331240	29.299200	-0.069702	0.861326	0.552367	-1.000000	-1.000000	-1.000000	-1.000000	-1.000000	-1.000000	-1.000000	139.103448	0.000000	-1.000000	-1.000000	657194.000000	1772919345.060322
-3329.415000	20622.510000	-21769.605000	-14611.185000	0.000000	0.000000	0.000000	0.000000	166.176189	-4.344574	130.194061	141.549203	0.000000	-0.000000	-0.000000	-0.000000	31.069360	-42.331240	29.299200	-0.069702	0.861326	0.552367	-1.000000	-1.000000	-1.000000	-1.000000	-1.000000	-1.000000	-1.000000	139.103448	0.000000	-1.000000	-1.000000	657195.000000	1772919345.064666
-3335.985000	20604.645000	-21773.070000	-14616.945000	0.000000	0.000000	0.000000	0.000000	145.302767	26.649719	104.326665	122.290569	0.000000	-0.000000	-0.000000	-0.000000	31.069360	-42.331240	29.299200	-0.069702	0.861326	0.552367	-1.000000	-1.000000	-1.000000	-1.000000	-1.000000	-1.000000	-1.000000	139.103448	0.000000	-1.000000	-1.000000	657196.000000	1772919345.064670
-3543.930000	20610.945000	-22031.775000	-14871.555000	0.000000	0.000000	0.000000	0.000000	59.679625	53.707327	41.957796	52.125266	0.000000	-0.000000	-0.000000	-0.000000	31.069360	-42.331240	29.299200	-0.069702	0.861326	0.552367	-1.000000	-1.000000	-1.000000	-1.000000	-1.000000	-1.000000	-1.000000	139.103448	0.000000	-1.000000	-1.000000	657197.000000	1772919345.068522
-3706.965000	20528.010000	-22151.430000	-14967.585000	0.000000	0.000000	0.000000	0.000000	-51.748002	56.727693	-38.245481	-43.053088	0.000000	-0.000000	-0.000000	-0.000000	31.069360	-42.331240	29.299200	-0.069702	0.861326	0.552367	-1.000000	-1.000000	-1.000000	-1.000000	-1.000000	-1.000000	-1.000000	139.103448	0.000000	-1.000000	-1.000000	657198.000000	1772919345.068526
-3429.585000	20510.010000	-21848.175000	-14685.570000	0.000000	0.000000	0.000000	0.000000	-139.588324	31.247855	-102.049561	-120.026747	0.000000	-0.000000	-0.000000	-0.000000	31.069360	-42.331240	29.299200	-0.069702	0.861326	0.552367	-1.000000	-1.000000	-1.000000	-1.000000	-1.000000	-1.000000	-1.000000	139.103448	0.000000	-1.000000	-1.000000	657199.000000	1772919345.073994
-3383.190000	20560.635000	-21818.520000	-14743.215000	0.000000	0.000000	0.000000	0.000000	-149.886906	-7.694951	-101.228133	-127.364891	0.000000	-0.000000	-0.000000	-0.000000	31.069360	-42.331240	29.299200	-0.069702	0.861326	0.552367	-1.000000	-1.000000	-1.000000	-1.000000	-1.000000	-1.000000	-1.000000	139.103448	0.000000	-1.000000	-1.000000	657200.000000	1772919345.073997
-3515.580000	20676.555000	-21934.215000	-14870.475000	0.000000	0.000000	0.000000	0.000000	-76.532819	-33.245230	-31.922876	-63.595829	0.000000	-0.000000	-0.000000	-0.000000	31.069360	-42.331240	29.299200	-0.069702	0.861326	0.552367	-1.000000	-1.000000	-1.000000	-1.000000	-1.000000	-1.000000	-1.000000	139.103448	0.000000	-1.000000	-1.000000	657201.000000	1772919345.076490
-3359.880000	20789.505000	-21686.400000	-14608.800000	0.000000	0.000000	0.000000	0.000000	22.935315	-27.256218	51.862757	19.376179	0.000000	-0.000000	-0.000000	-0.000000	31.069360	-42.331240	29.299200	-0.069702	0.861326	0.552367	-1.000000	-1.000000	-1.000000	-1.000000	-1.000000	-1.000000	-1.000000	139.103448	0.000000	-1.000000	-1.000000	657202.000000	1772919345.076493
-3586.590000	20805.345000	-21815.550000	-14704.290000	0.000000	0.000000	0.000000	0.000000	86.838856	2.623674	100.208763	79.127540	0.000000	-0.000000	-0.000000	-0.000000	24.416000	-42.773780	33.068420	-0.013855	0.846311	0.533141	-1.000000	-1.000000	-1.000000	-1.000000	-1.000000	-1.000000	-1.000000	139.103448	0.000000	-1.000000	-1.000000	657203.000000	1772919345.080556
-3588.255000	20853.900000	-21771.945000	-14708.925000	0.000000	0.000000	0.000000	0.000000	89.150391	28.628759	95.761499	98.299543	0.000000	-0.000000	-0.000000	-0.000000	24.416000	-42.773780	33.068420	-0.013855	0.846311	0.533141	-1.000000	-1.000000	-1.000000	-1.000000	-1.000000	-1.000000	-1.000000	139.103448	0.000000	-1.000000	-1.000000	657204.000000	1772919345.080560
-3559.635000	20794.770000	-21888.090000	-14832.180000	0.000000	0.000000	0.000000	0.000000	43.945130	27.083039	45.054360	70.633597	0.000000	-0.000000	-0.000000	-0.000000	24.416000	-42.773780	33.068420	-0.013855	0.846311	0.533141	-1.000000	-1.000000	-1.000000	-1.000000	-1.000000	-1.000000	-1.000000	139.103448	0.000000	-1.000000	-1.000000	657205.000000	1772919345.084528
-3626.460000	20626.335000	-22121.775000	-15031.530000	0.000000	0.000000	0.000000	0.000000	-7.610989	-7.240124	-29.210452	6.504496	0.000000	-0.000000	-0.000000	-0.000000	24.416000	-42.773780	33.068420	-0.013855	0.846311	0.533141	-1.000000	-1.000000	-1.000000	-1.000000	-1.000000	-1.000000	-1.000000	139.103448	0.000000	-1.000000	-1.000000	657206.000000	1772919345.084531
-3576.330000	20506.635000	-22062.870000	-14926.275000	0.000000	0.000000	0.000000	0.000000	-33.625421	-62.076722	-97.008016	-63.522397	0.000000	-0.000000	-0.000000	-0.000000	24.416000	-42.773780	33.068420	-0.013855	0.846311	0.533141	-1.000000	-1.000000	-1.000000	-1.000000	-1.000000	-1.000000	-1.000000	139.103448	0.000000	-1.000000	-1.000000	657207.000000	1772919345.088438
-3501.090000	20430.810000	-21919.095000	-14814.045000	0.000000	0.000000	0.000000	0.000000	-26.952078	-109.421653	-120.307575	-94.806982	0.000000	-0.000000	-0.000000	-0.000000	24.416000	-42.773780	33.068420	-0.013855	0.846311	0.533141	-1.000000	-1.000000	-1.000000	-1.000000	-1.000000	-1.000000	-1.000000	139.103448	0.000000	-1.000000	-1.000000	657208.000000	1772919345.088440
-3509.775000	20391.930000	-21972.195000	-14820.705000	0.000000	0.000000	0.000000	0.000000	2.219596	-117.340634	-75.783178	-61.595058	0.000000	-0.000000	-0.000000	-0.000000	24.416000	-42.773780	33.068420	-0.013855	0.846311	0.533141	-1.000000	-1.000000	-1.000000	-1.000000	-1.000000	-1.000000	-1.000000	139.103448	0.000000	-1.000000	-1.000000	657209.000000	1772919345.092416
-3368.340000	20425.905000	-21805.920000	-14716.215000	0.000000	0.000000	0.000000	0.000000	33.712988	-72.037323	13.091438	12.801429	0.000000	-0.000000	-0.000000	-0.000000	24.416000	-42.773780	33.068420	-0.013855	0.846311	0.533141	-1.000000	-1.000000	-1.000000	-1.000000	-1.000000	-1.000000	-1.000000	139.103448	0.000000	-1.000000	-1.000000	657210.000000	1772919345.092419
-3119.670000	20514.060000	-21457.215000	-14506.290000	0.000000	0.000000	0.000000	0.000000	54.883610	12.823742	101.696427	82.754700	0.000000	-0.000000	-0.000000	-0.000000	24.416000	-42.773780	33.068420	-0.013855	0.846311	0.533141	-1.000000	-1.000000	-1.000000	-1.000000	-1.000000	-1.000000	-1.000000	139.103448	0.000000	-1.000000	-1.000000	657211.000000	1772919345.096515
-3267.810000	20482.605000	-21704.310000	-14636.610000	0.000000	0.000000	0.000000	0.000000	61.572378	102.170002	154.529165	115.401303	0.000000	-0.000000	-0.000000	-0.000000	24.416000	-42.773780	33.068420	-0.013855	0.846311	0.533141	-1.000000	-1.000000	-1.000000	-1.000000	-1.000000	-1.000000	-1.000000	139.103448	0.000000	-1.000000	-1.000000	657212.000000	1772919345.096519
-3513.465000	20490.930000	-21930.660000	-14870.430000	0.000000	0.000000	0.000000	0.000000	35.946920	154.210580	133.897559	88.189938	0.000000	-0.000000	-0.000000	-0.000000	38.668840	-38.027920	28.429380	0.035767	0.880796	0.547972	-1.000000	-1.000000	-1.000000	-1.000000	-1.000000	-1.000000	-1.000000	139.103448	0.000000	-1.000000	-1.000000	657213.000000	1772919345.101972
-3554.595000	20629.575000	-22136.535000	-15021.495000	0.000000	0.000000	0.000000	0.000000	-34.971175	147.688649	24.712516	-1.725010	0.000000	-0.000000	-0.000000	-0.000000	38.668840	-38.027920	28.429380	0.035767	0.880796	0.547972	-1.000000	-1.000000	-1.000000	-1.000000	-1.000000	-1.000000	-1.000000	139.103448	0.000000	-1.000000	-1.000000	657214.000000	1772919345.101976
-3492.630000	20766.195000	-22226.310000	-15037.515000	0.000000	0.000000	0.000000	0.000000	-116.164019	98.752590	-121.911996	-111.391789	0.000000	-0.000000	-0.000000	-0.000000	38.668840	-38.027920	28.429380	0.035767	0.880796	0.547972	-1.000000	-1.000000	-1.000000	-1.000000	-1.000000	-1.000000	-1.000000	139.103448	0.000000	-1.000000	-1.000000	657215.000000	1772919345.104584
-3432.600000	20831.670000	-22119.615000	-14957.685000	0.000000	0.000000	0.000000	0.000000	-144.910904	39.636713	-214.057906	-169.609432	0.000000	-0.000000	-0.000000	-0.000000	38.668840	-38.027920	28.429380	0.035767	0.880796	0.547972	-1.000000	-1.000000	-1.000000	-1.000000	-1.000000	-1.000000	-1.000000	139.103448	0.000000	-1.000000	-1.000000	657216.000000	1772919345.104587
-3399.975000	20883.735000	-22098.735000	-14908.545000	0.000000	0.000000	0.000000	0.000000	-94.749525	-11.685842	-189.659962	-133.835274	0.000000	-0.000000	-0.000000	-0.000000	38.668840	-38.027920	28.429380	0.035767	0.880796	0.547972	-1.000000	-1.000000	-1.000000	-1.000000	-1.000000	-1.000000	-1.000000	139.103448	0.000000	-1.000000	-1.000000	657217.000000	1772919345.108516
-3338.955000	20914.830000	-22064.220000	-14794.515000	0.000000	0.000000	0.000000	0.000000	3.120142	-53.140865	-63.881603	-23.717841	0.000000	-0.000000	-0.000000	-0.000000	38.668840	-38.027920	28.429380	0.035767	0.880796	0.547972	-1.000000	-1.000000	-1.000000	-1.000000	-1.000000	-1.000000	-1.000000	139.103448	0.000000	-1.000000	-1.000000	657218.000000	1772919345.108520
-3402.855000	21019.275000	-22057.650000	-14732.145000	0.000000	0.000000	0.000000	0.000000	91.003665	-82.856759	86.337290	98.488144	0.000000	-0.000000	-0.000000	-0.000000	38.668840	-38.027920	28.429380	0.035767	0.880796	0.547972	-1.000000	-1.000000	-1.000000	-1.000000	-1.000000	-1.000000	-1.000000	139.103448	0.000000	-1.000000	-1.000000	657219.000000	1772919345.112661
-3501.450000	21060.540000	-22026.825000	-14740.920000	0.000000	0.000000	0.000000	0.000000	122.720279	-93.533738	182.633821	170.425768	0.000000	-0.000000	-0.000000	-0.000000	38.668840	-38.027920	28.429380	0.035767	0.880796	0.547972	-1.000000	-1.000000	-1.000000	-1.000000	-1.000000	-1.000000	-1.000000	139.103448	0.000000	-1.000000	-1.000000	657220.000000	1772919345.112664
-3517.650000	21056.580000	-22005.630000	-14797.350000	0.000000	0.000000	0.000000	0.000000	88.317919	-82.779875	191.174150	159.983402	0.000000	-0.000000	-0.000000	-0.000000	38.668840	-38.027920	28.429380	0.035767	0.880796	0.547972	-1.000000	-1.000000	-1.000000	-1.000000	-1.000000	-1.000000	-1.000000	139.103448	0.000000	-1.000000	-1.000000	657221.000000	1772919345.116562
-3520.530000	21110.715000	-22049.145000	-14875.245000	0.000000	0.000000	0.000000	0.000000	18.865322	-58.724296	126.154577	77.025276	0.000000	-0.000000	-0.000000	-0.000000	38.668840	-38.027920	28.429380	0.035767	0.880796	0.547972	-1.000000	-1.000000	-1.000000	-1.000000	-1.000000	-1.000000	-1.000000	139.103448	0.000000	-1.000000	-1.000000	657222.000000	1772919345.116565
-3719.070000	21080.745000	-22214.745000	-15061.365000	0.000000	0.000000	0.000000	0.000000	-42.742611	-31.613307	24.324900	-36.924891	0.000000	-0.000000	-0.000000	-0.000000	123.270280	-53.028500	60.246480	-0.020203	0.914671	0.576964	-1.000000	-1.000000	-1.000000	-1.000000	-1.000000	-1.000000	-1.000000	139.103448	0.000000	-1.000000	-1.000000	657223.000000	1772919345.121734
-3536.730000	20987.055000	-21989.070000	-14945.940000	0.000000	0.000000	0.000000	0.000000	-71.397630	-10.285010	-71.649531	-129.546372	0.000000	-0.000000	-0.000000	-0.000000	123.270280	-53.028500	60.246480	-0.020203	0.914671	0.576964	-1.000000	-1.000000	-1.000000	-1.000000	-1.000000	-1.000000	-1.000000	139.103448	0.000000	-1.000000	-1.000000	657224.000000	1772919345.121737
-3274.605000	21038.580000	-21815.325000	-14775.120000	0.000000	0.000000	0.000000	0.000000	-52.592887	0.211659	-115.312314	-153.051338	0.000000	-0.000000	-0.000000	-0.000000	123.270280	-53.028500	60.246480	-0.020203	0.914671	0.576964	-1.000000	-1.000000	-1.000000	-1.000000	-1.000000	-1.000000	-1.000000	139.103448	0.000000	-1.000000	-1.000000	657225.000000	1772919345.124550
-3170.610000	21125.295000	-21973.095000	-14729.895000	0.000000	0.000000	0.000000	0.000000	14.243798	7.912165	-89.306680	-91.737833	0.000000	-0.000000	-0.000000	-0.000000	123.270280	-53.028500	60.246480	-0.020203	0.914671	0.576964	-1.000000	-1.000000	-1.000000	-1.000000	-1.000000	-1.000000	-1.000000	139.103448	0.000000	-1.000000	-1.000000	657226.000000	1772919345.124554
-3369.870000	21334.545000	-22276.170000	-14873.445000	0.000000	0.000000	0.000000	0.000000	86.838094	28.803051	-38.617174	11.175293	0.000000	-0.000000	-0.000000	-0.000000	123.270280	-53.028500	60.246480	-0.020203	0.914671	0.576964	-1.000000	-1.000000	-1.000000	-1.000000	-1.000000	-1.000000	-1.000000	139.103448	0.000000	-1.000000	-1.000000	657227.000000	1772919345.131298
-3423.645000	21457.260000	-22127.265000	-14765.445000	0.000000	0.000000	0.000000	0.000000	100.302371	66.443262	-19.873525	84.841332	0.000000	-0.000000	-0.000000	-0.000000	123.270280	-53.028500	60.246480	-0.020203	0.914671	0.576964	-1.000000	-1.000000	-1.000000	-1.000000	-1.000000	-1.000000	-1.000000	139.103448	0.000000	-1.000000	-1.000000	657228.000000	1772919345.131304
-3606.660000	21452.535000	-21881.070000	-14736.330000	0.000000	0.000000	0.000000	0.000000	33.263784	99.387740	-24.692888	96.539885	0.000000	-0.000000	-0.000000	-0.000000	123.270280	-53.028500	60.246480	-0.020203	0.914671	0.576964	-1.000000	-1.000000	-1.000000	-1.000000	-1.000000	-1.000000	-1.000000	139.103448	0.000000	-1.000000	-1.000000	657229.000000	1772919345.134140
-3703.995000	21485.115000	-22210.470000	-14954.805000	0.000000	0.000000	0.000000	0.000000	-72.151802	95.124418	-11.511254	59.577717	0.000000	-0.000000	-0.000000	-0.000000	123.270280	-53.028500	60.246480	-0.020203	0.914671	0.576964	-1.000000	-1.000000	-1.000000	-1.000000	-1.000000	-1.000000	-1.000000	139.103448	0.000000	-1.000000	-1.000000	657230.000000	1772919345.134144
-3763.800000	21515.040000	-22425.030000	-15143.355000	0.000000	0.000000	0.000000	0.000000	-149.932539	43.761741	11.148236	-5.595998	0.000000	-0.000000	-0.000000	-0.000000	123.270280	-53.028500	60.246480	-0.020203	0.914671	0.576964	-1.000000	-1.000000	-1.000000	-1.000000	-1.000000	-1.000000	-1.000000	139.103448	0.000000	-1.000000	-1.000000	657231.000000	1772919345.138146
-3768.885000	21539.610000	-22332.105000	-15068.925000	0.000000	0.000000	0.000000	0.000000	-154.445190	-29.812932	9.666234	-73.689128	0.000000	-0.000000	-0.000000	-0.000000	123.270280	-53.028500	60.246480	-0.020203	0.914671	0.576964	-1.000000	-1.000000	-1.000000	-1.000000	-1.000000	-1.000000	-1.000000	139.103448	0.000000	-1.000000	-1.000000	657232.000000	1772919345.138150
-3648.645000	21595.545000	-22190.805000	-14856.300000	0.000000	0.000000	0.000000	0.000000	-81.639275	-87.832392	-2.362006	-100.014808	0.000000	-0.000000	-0.000000	-0.000000	30.016420	-48.236860	97.648740	-0.039368	1.006406	0.525389	-1.000000	-1.000000	-1.000000	-1.000000	-1.000000	-1.000000	-1.000000	139.103448	0.000000	-1.000000	-1.000000	657233.000000	1772919345.140302
-3493.620000	21645.630000	-22037.535000	-14730.030000	0.000000	0.000000	0.000000	0.000000	36.366642	-105.144147	14.805714	-52.394595	0.000000	-0.000000	-0.000000	-0.000000	30.016420	-48.236860	97.648740	-0.039368	1.006406	0.525389	-1.000000	-1.000000	-1.000000	-1.000000	-1.000000	-1.000000	-1.000000	139.103448	0.000000	-1.000000	-1.000000	657234.000000	1772919345.140305
-3433.320000	21758.580000	-21957.345000	-14795.280000	0.000000	0.000000	0.000000	0.000000	148.242313	-79.172093	65.107084	42.931082	0.000000	-0.000000	-0.000000	-0.000000	30.016420	-48.236860	97.648740	-0.039368	1.006406	0.525389	-1.000000	-1.000000	-1.000000	-1.000000	-1.000000	-1.000000	-1.000000	139.103448	0.000000	-1.000000	-1.000000	657235.000000	1772919345.144353
-3451.860000	21900.690000	-21978.720000	-14889.915000	0.000000	0.000000	0.000000	0.000000	201.391282	-24.873405	109.026963	113.553997	0.000000	-0.000000	-0.000000	-0.000000	30.016420	-48.236860	97.648740	-0.039368	1.006406	0.525389	-1.000000	-1.000000	-1.000000	-1.000000	-1.000000	-1.000000	-1.000000	139.103448	0.000000	-1.000000	-1.000000	657236.000000	1772919345.144364
-3593.340000	21976.155000	-22107.555000	-14928.525000	0.000000	0.000000	0.000000	0.000000	165.643152	34.095188	101.001519	106.884985	0.000000	-0.000000	-0.000000	-0.000000	30.016420	-48.236860	97.648740	-0.039368	1.006406	0.525389	-1.000000	-1.000000	-1.000000	-1.000000	-1.000000	-1.000000	-1.000000	139.103448	0.000000	-1.000000	-1.000000	657237.000000	1772919345.148693
-3720.555000	22057.560000	-22222.350000	-14991.705000	0.000000	0.000000	0.000000	0.000000	52.611342	72.312027	28.349031	33.501203	0.000000	-0.000000	-0.000000	-0.000000	30.016420	-48.236860	97.648740	-0.039368	1.006406	0.525389	-1.000000	-1.000000	-1.000000	-1.000000	-1.000000	-1.000000	-1.000000	139.103448	0.000000	-1.000000	-1.000000	657238.000000	1772919345.148698
-3686.535000	22097.295000	-22250.700000	-14969.475000	0.000000	0.000000	0.000000	0.000000	-83.241665	73.786693	-74.768797	-52.376786	0.000000	-0.000000	-0.000000	-0.000000	30.016420	-48.236860	97.648740	-0.039368	1.006406	0.525389	-1.000000	-1.000000	-1.000000	-1.000000	-1.000000	-1.000000	-1.000000	139.103448	0.000000	-1.000000	-1.000000	657239.000000	1772919345.152850
-3678.480000	22082.760000	-22422.375000	-15005.340000	0.000000	0.000000	0.000000	0.000000	-170.883591	40.125180	-151.756261	-99.570553	0.000000	-0.000000	-0.000000	-0.000000	30.016420	-48.236860	97.648740	-0.039368	1.006406	0.525389	-1.000000	-1.000000	-1.000000	-1.000000	-1.000000	-1.000000	-1.000000	139.103448	0.000000	-1.000000	-1.000000	657240.000000	1772919345.152853
-3657.240000	22051.170000	-22221.135000	-14978.835000	0.000000	0.000000	0.000000	0.000000	-169.563327	-12.968376	-161.904216	-90.377373	0.000000	-0.000000	-0.000000	-0.000000	30.016420	-48.236860	97.648740	-0.039368	1.006406	0.525389	-1.000000	-1.000000	-1.000000	-1.000000	-1.000000	-1.000000	-1.000000	139.103448	0.000000	-1.000000	-1.000000	657241.000000	1772919345.158461
-3584.565000	21995.595000	-21967.830000	-15038.100000	0.000000	0.000000	0.000000	0.000000	-92.824655	-63.736350	-92.426401	-41.858314	0.000000	-0.000000	-0.000000	-0.000000	30.016420	-48.236860	97.648740	-0.039368	1.006406	0.525389	-1.000000	-1.000000	-1.000000	-1.000000	-1.000000	-1.000000	-1.000000	139.103448	0.000000	-1.000000	-1.000000	657242.000000	1772919345.158463
-3619.800000	21857.625000	-21938.040000	-14823.900000	0.000000	0.000000	0.000000	0.000000	10.009563	-94.109491	33.209054	16.812884	0.000000	-0.000000	-0.000000	-0.000000	-117.746160	-34.243440	49.884940	0.047302	1.036924	0.445494	-1.000000	-1.000000	-1.000000	-1.000000	-1.000000	-1.000000	-1.000000	139.103448	0.000000	-1.000000	-1.000000	657243.000000	1772919345.160722
-3536.280000	21823.785000	-22331.250000	-14795.730000	0.000000	0.000000	0.000000	0.000000	87.565941	-96.092045	140.736702	66.391437	0.000000	-0.000000	-0.000000	-0.000000	-117.746160	-34.243440	49.884940	0.047302	1.036924	0.445494	-1.000000	-1.000000	-1.000000	-1.000000	-1.000000	-1.000000	-1.000000	139.103448	0.000000	-1.000000	-1.000000	657244.000000	1772919345.160726
-3422.700000	21833.730000	-22244.715000	-14774.580000	0.000000	0.000000	0.000000	0.000000	115.385426	-67.676942	151.741657	93.338182	0.000000	-0.000000	-0.000000	-0.000000	-117.746160	-34.243440	49.884940	0.047302	1.036924	0.445494	-1.000000	-1.000000	-1.000000	-1.000000	-1.000000	-1.000000	-1.000000	139.103448	0.000000	-1.000000	-1.000000	657245.000000	1772919345.164681
-3620.700000	21838.860000	-22177.890000	-14761.305000	0.000000	0.000000	0.000000	0.000000	96.255071	-12.306240	70.021127	84.004256	0.000000	-0.000000	-0.000000	-0.000000	-117.746160	-34.243440	49.884940	0.047302	1.036924	0.445494	-1.000000	-1.000000	-1.000000	-1.000000	-1.000000	-1.000000	-1.000000	139.103448	0.000000	-1.000000	-1.000000	657246.000000	1772919345.164686
-3834.720000	21890.115000	-22364.370000	-14918.625000	0.000000	0.000000	0.000000	0.000000	36.407424	54.364639	-29.231263	36.395933	0.000000	-0.000000	-0.000000	-0.000000	-117.746160	-34.243440	49.884940	0.047302	1.036924	0.445494	-1.000000	-1.000000	-1.000000	-1.000000	-1.000000	-1.000000	-1.000000	139.103448	0.000000	-1.000000	-1.000000	657247.000000	1772919345.169597
-3821.355000	21971.070000	-22370.625000	-15041.700000	0.000000	0.000000	0.000000	0.000000	-48.112441	109.073367	-88.831659	-35.634689	0.000000	-0.000000	-0.000000	-0.000000	-117.746160	-34.243440	49.884940	0.047302	1.036924	0.445494	-1.000000	-1.000000	-1.000000	-1.000000	-1.000000	-1.000000	-1.000000	139.103448	0.000000	-1.000000	-1.000000	657248.000000	1772919345.169601
-3813.525000	21913.470000	-22284.225000	-15091.965000	0.000000	0.000000	0.000000	0.000000	-112.774204	131.495921	-94.673832	-104.201745	0.000000	-0.000000	-0.000000	-0.000000	-117.746160	-34.243440	49.884940	0.047302	1.036924	0.445494	-1.000000	-1.000000	-1.000000	-1.000000	-1.000000	-1.000000	-1.000000	139.103448	0.000000	-1.000000	-1.000000	657249.000000	1772919345.173765
-3684.465000	21871.260000	-22021.155000	-14915.385000	0.000000	0.000000	0.000000	0.000000	-112.448084	109.333411	-48.312429	-130.572709	0.000000	-0.000000	-0.000000	-0.000000	-117.746160	-34.243440	49.884940	0.047302	1.036924	0.445494	-1.000000	-1.000000	-1.000000	-1.000000	-1.000000	-1.000000	-1.000000	139.103448	0.000000	-1.000000	-1.000000	657250.000000	1772919345.173769
-3669.975000	21924.630000	-21936.645000	-14807.970000	0.000000	0.000000	0.000000	0.000000	-44.115481	49.124554	33.868629	-87.536652	0.000000	-0.000000	-0.000000	-0.000000	-117.746160	-34.243440	49.884940	0.047302	1.036924	0.445494	-1.000000	-1.000000	-1.000000	-1.000000	-1.000000	-1.000000	-1.000000	139.103448	0.000000	-1.000000	-1.000000	657251.000000	1772919345.176757
-3642.930000	21989.565000	-22015.710000	-14654.790000	0.000000	0.000000	0.000000	0.000000	48.993706	-18.287037	107.101261	10.976479	0.000000	-0.000000	-0.000000	-0.000000	-117.746160	-34.243440	49.884940	0.047302	1.036924	0.445494	-1.000000	-1.000000	-1.000000	-1.000000	-1.000000	-1.000000	-1.000000	139.103448	0.000000	-1.000000	-1.000000	657252.000000	1772919345.176763
-3576.015000	21978.315000	-22227.390000	-14641.110000	0.000000	0.000000	0.000000	0.000000	112.420386	-60.235464	115.498257	110.989192	0.000000	-0.000000	-0.000000	-0.000000	-195.160140	-17.808420	-32.396980	0.124695	0.854673	0.419677	-1.000000	-1.000000	-1.000000	-1.000000	-1.000000	-1.000000	-1.000000	139.103448	0.000000	-1.000000	-1.000000	657253.000000	1772919345.180718
-3616.335000	22037.760000	-22307.940000	-14782.905000	0.000000	0.000000	0.000000	0.000000	118.043644	-67.333959	40.668526	151.925020	0.000000	-0.000000	-0.000000	-0.000000	-195.160140	-17.808420	-32.396980	0.124695	0.854673	0.419677	-1.000000	-1.000000	-1.000000	-1.000000	-1.000000	-1.000000	-1.000000	139.103448	0.000000	-1.000000	-1.000000	657254.000000	1772919345.180722
-3635.190000	22066.605000	-22443.480000	-15045.975000	0.000000	0.000000	0.000000	0.000000	70.837628	-50.052182	-73.902332	102.087122	0.000000	-0.000000	-0.000000	-0.000000	-195.160140	-17.808420	-32.396980	0.124695	0.854673	0.419677	-1.000000	-1.000000	-1.000000	-1.000000	-1.000000	-1.000000	-1.000000	139.103448	0.000000	-1.000000	-1.000000	657255.000000	1772919345.185065
-3661.020000	22054.590000	-22475.970000	-15149.655000	0.000000	0.000000	0.000000	0.000000	-2.629788	-24.684362	-156.770348	-17.606795	0.000000	-0.000000	-0.000000	-0.000000	-195.160140	-17.808420	-32.396980	0.124695	0.854673	0.419677	-1.000000	-1.000000	-1.000000	-1.000000	-1.000000	-1.000000	-1.000000	139.103448	0.000000	-1.000000	-1.000000	657256.000000	1772919345.185070
-3549.465000	21991.545000	-22099.905000	-14913.225000	0.000000	0.000000	0.000000	0.000000	-65.511463	-7.162531	-153.769503	-132.045625	0.000000	-0.000000	-0.000000	-0.000000	-195.160140	-17.808420	-32.396980	0.124695	0.854673	0.419677	-1.000000	-1.000000	-1.000000	-1.000000	-1.000000	-1.000000	-1.000000	139.103448	0.000000	-1.000000	-1.000000	657257.000000	1772919345.188803
-3667.680000	21824.685000	-21984.120000	-14835.105000	0.000000	0.000000	0.000000	0.000000	-90.142568	-8.552267	-53.129541	-157.958950	0.000000	-0.000000	-0.000000	-0.000000	-195.160140	-17.808420	-32.396980	0.124695	0.854673	0.419677	-1.000000	-1.000000	-1.000000	-1.000000	-1.000000	-1.000000	-1.000000	139.103448	0.000000	-1.000000	-1.000000	657258.000000	1772919345.188806
-3788.820000	21716.145000	-22054.770000	-14860.260000	0.000000	0.000000	0.000000	0.000000	-79.561890	-28.782160	91.364884	-79.365340	0.000000	-0.000000	-0.000000	-0.000000	-195.160140	-17.808420	-32.396980	0.124695	0.854673	0.419677	-1.000000	-1.000000	-1.000000	-1.000000	-1.000000	-1.000000	-1.000000	139.103448	0.000000	-1.000000	-1.000000	657259.000000	1772919345.192984
-3765.105000	21670.470000	-22009.320000	-14820.300000	0.000000	0.000000	0.000000	0.000000	-56.005997	-51.468628	184.628599	38.587113	0.000000	-0.000000	-0.000000	-0.000000	-195.160140	-17.808420	-32.396980	0.124695	0.854673	0.419677	-1.000000	-1.000000	-1.000000	-1.000000	-1.000000	-1.000000	-1.000000	139.103448	0.000000	-1.000000	-1.000000	657260.000000	1772919345.192987
-3695.940000	21622.005000	-21866.355000	-14765.715000	0.000000	0.000000	0.000000	0.000000	-27.795271	-52.258645	174.522159	118.743767	0.000000	-0.000000	-0.000000	-0.000000	-195.160140	-17.808420	-32.396980	0.124695	0.854673	0.419677	-1.000000	-1.000000	-1.000000	-1.000000	-1.000000	-1.000000	-1.000000	139.103448	0.000000	-1.000000	-1.000000	657261.000000	1772919345.196853
-3660.615000	21540.825000	-21921.120000	-14797.350000	0.000000	0.000000	0.000000	0.000000	10.283253	-21.523800	86.507771	128.551713	0.000000	-0.000000	-0.000000	-0.000000	-195.160140	-17.808420	-32.396980	0.124695	0.854673	0.419677	-1.000000	-1.000000	-1.000000	-1.000000	-1.000000	-1.000000	-1.000000	139.103448	0.000000	-1.000000	-1.000000	657262.000000	1772919345.196856
-3784.815000	21591.630000	-22055.130000	-14860.485000	0.000000	0.000000	0.000000	0.000000	49.928939	27.781965	-25.618979	77.841041	0.000000	-0.000000	-0.000000	-0.000000	-67.006660	-4.211760	-40.286400	0.107727	0.677366	0.450194	-1.000000	-1.000000	-1.000000	-1.000000	-1.000000	-1.000000	-1.000000	139.103448	0.000000	-1.000000	-1.000000	657263.000000	1772919345.200840
-4056.120000	21754.485000	-22223.655000	-15008.940000	0.000000	0.000000	0.000000	0.000000	62.881940	78.022226	-123.372627	-3.882343	0.000000	-0.000000	-0.000000	-0.000000	-67.006660	-4.211760	-40.286400	0.107727	0.677366	0.450194	-1.000000	-1.000000	-1.000000	-1.000000	-1.000000	-1.000000	-1.000000	139.103448	0.000000	-1.000000	-1.000000	657264.000000	1772919345.200843
-4009.770000	21841.785000	-22167.630000	-15019.695000	0.000000	0.000000	0.000000	0.000000	32.412456	117.917211	-179.327036	-81.075900	0.000000	-0.000000	-0.000000	-0.000000	-67.006660	-4.211760	-40.286400	0.107727	0.677366	0.450194	-1.000000	-1.000000	-1.000000	-1.000000	-1.000000	-1.000000	-1.000000	139.103448	0.000000	-1.000000	-1.000000	657265.000000	1772919345.204887
-3793.005000	21769.785000	-22214.070000	-14998.905000	0.000000	0.000000	0.000000	0.000000	-11.292938	131.212070	-170.159068	-119.057915	0.000000	-0.000000	-0.000000	-0.000000	-67.006660	-4.211760	-40.286400	0.107727	0.677366	0.450194	-1.000000	-1.000000	-1.000000	-1.000000	-1.000000	-1.000000	-1.000000	139.103448	0.000000	-1.000000	-1.000000	657266.000000	1772919345.204890
-3696.165000	21758.085000	-21889.440000	-14930.730000	0.000000	0.000000	0.000000	0.000000	-16.195434	97.965426	-90.652342	-98.083244	0.000000	-0.000000	-0.000000	-0.000000	-67.006660	-4.211760	-40.286400	0.107727	0.677366	0.450194	-1.000000	-1.000000	-1.000000	-1.000000	-1.000000	-1.000000	-1.000000	139.103448	0.000000	-1.000000	-1.000000	657267.000000	1772919345.208817
-3566.745000	21754.395000	-21624.570000	-14740.920000	0.000000	0.000000	0.000000	0.000000	28.386528	21.149778	38.768918	-26.333975	0.000000	-0.000000	-0.000000	-0.000000	-67.006660	-4.211760	-40.286400	0.107727	0.677366	0.450194	-1.000000	-1.000000	-1.000000	-1.000000	-1.000000	-1.000000	-1.000000	139.103448	0.000000	-1.000000	-1.000000	657268.000000	1772919345.208820
-3662.055000	21594.645000	-22155.480000	-14757.480000	0.000000	0.000000	0.000000	0.000000	79.359487	-67.637938	159.049108	62.179551	0.000000	-0.000000	-0.000000	-0.000000	-67.006660	-4.211760	-40.286400	0.107727	0.677366	0.450194	-1.000000	-1.000000	-1.000000	-1.000000	-1.000000	-1.000000	-1.000000	139.103448	0.000000	-1.000000	-1.000000	657269.000000	1772919345.214196
-3653.370000	21510.810000	-22431.105000	-14881.185000	0.000000	0.000000	0.000000	0.000000	84.749773	-134.508383	179.954166	117.936846	0.000000	-0.000000	-0.000000	-0.000000	-67.006660	-4.211760	-40.286400	0.107727	0.677366	0.450194	-1.000000	-1.000000	-1.000000	-1.000000	-1.000000	-1.000000	-1.000000	139.103448	0.000000	-1.000000	-1.000000	657270.000000	1772919345.214204
-3657.015000	21507.120000	-22177.665000	-14842.530000	0.000000	0.000000	0.000000	0.000000	31.728519	-157.233761	76.842917	105.474059	0.000000	-0.000000	-0.000000	-0.000000	-67.006660	-4.211760	-40.286400	0.107727	0.677366	0.450194	-1.000000	-1.000000	-1.000000	-1.000000	-1.000000	-1.000000	-1.000000	139.103448	0.000000	-1.000000	-1.000000	657271.000000	1772919345.217971
-3719.745000	21539.070000	-22108.950000	-14846.265000	0.000000	0.000000	0.000000	0.000000	-47.150783	-124.832552	-53.974563	37.792792	0.000000	-0.000000	-0.000000	-0.000000	-67.006660	-4.211760	-40.286400	0.107727	0.677366	0.450194	-1.000000	-1.000000	-1.000000	-1.000000	-1.000000	-1.000000	-1.000000	139.103448	0.000000	-1.000000	-1.000000	657272.000000	1772919345.217974
-3864.915000	21499.245000	-22233.375000	-14933.070000	0.000000	0.000000	0.000000	0.000000	-110.490323	-47.458072	-107.176329	-38.504381	0.000000	-0.000000	-0.000000	-0.000000	22.859480	3.189340	21.348740	0.044983	0.671751	0.498290	-1.000000	-1.000000	-1.000000	-1.000000	-1.000000	-1.000000	-1.000000	139.103448	0.000000	-1.000000	-1.000000	657273.000000	1772919345.220835
-3822.390000	21492.585000	-22127.670000	-14813.280000	0.000000	0.000000	0.000000	0.000000	-134.294557	40.243414	-72.946034	-84.337174	0.000000	-0.000000	-0.000000	-0.000000	22.859480	3.189340	21.348740	0.044983	0.671751	0.498290	-1.000000	-1.000000	-1.000000	-1.000000	-1.000000	-1.000000	-1.000000	139.103448	0.000000	-1.000000	-1.000000	657274.000000	1772919345.220838
-3779.505000	21399.210000	-22098.420000	-14785.695000	0.000000	0.000000	0.000000	0.000000	-108.709946	98.715635	-1.758520	-82.332337	0.000000	-0.000000	-0.000000	-0.000000	22.859480	3.189340	21.348740	0.044983	0.671751	0.498290	-1.000000	-1.000000	-1.000000	-1.000000	-1.000000	-1.000000	-1.000000	139.103448	0.000000	-1.000000	-1.000000	657275.000000	1772919345.226935
-3697.200000	21291.480000	-21985.920000	-14713.740000	0.000000	0.000000	0.000000	0.000000	-38.812898	105.845674	60.241962	-39.192491	0.000000	-0.000000	-0.000000	-0.000000	22.859480	3.189340	21.348740	0.044983	0.671751	0.498290	-1.000000	-1.000000	-1.000000	-1.000000	-1.000000	-1.000000	-1.000000	139.103448	0.000000	-1.000000	-1.000000	657276.000000	1772919345.226938
-3651.975000	21286.260000	-21898.845000	-14681.160000	0.000000	0.000000	0.000000	0.000000	48.443396	67.653659	89.582088	16.997132	0.000000	-0.000000	-0.000000	-0.000000	22.859480	3.189340	21.348740	0.044983	0.671751	0.498290	-1.000000	-1.000000	-1.000000	-1.000000	-1.000000	-1.000000	-1.000000	139.103448	0.000000	-1.000000	-1.000000	657277.000000	1772919345.245333
-3791.610000	21268.665000	-22033.035000	-14801.220000	0.000000	0.000000	0.000000	0.000000	111.288943	14.740632	78.938548	52.734570	0.000000	-0.000000	-0.000000	-0.000000	22.859480	3.189340	21.348740	0.044983	0.671751	0.498290	-1.000000	-1.000000	-1.000000	-1.000000	-1.000000	-1.000000	-1.000000	139.103448	0.000000	-1.000000	-1.000000	657278.000000	1772919345.245337
-3896.055000	21234.060000	-22107.510000	-14836.815000	0.000000	0.000000	0.000000	0.000000	114.631094	-21.007386	28.463699	47.012897	0.000000	-0.000000	-0.000000	-0.000000	22.859480	3.189340	21.348740	0.044983	0.671751	0.498290	-1.000000	-1.000000	-1.000000	-1.000000	-1.000000	-1.000000	-1.000000	139.103448	0.000000	-1.000000	-1.000000	657279.000000	1772919345.245344
-3955.995000	21231.135000	-22168.755000	-14845.905000	0.000000	0.000000	0.000000	0.000000	57.710609	-28.552256	-45.718536	7.267036	0.000000	-0.000000	-0.000000	-0.000000	22.859480	3.189340	21.348740	0.044983	0.671751	0.498290	-1.000000	-1.000000	-1.000000	-1.000000	-1.000000	-1.000000	-1.000000	139.103448	0.000000	-1.000000	-1.000000	657280.000000	1772919345.245347
-3992.040000	21183.390000	-22197.105000	-15002.010000	0.000000	0.000000	0.000000	0.000000	-20.350202	-16.610244	-107.346903	-37.157743	0.000000	-0.000000	-0.000000	-0.000000	22.859480	3.189340	21.348740	0.044983	0.671751	0.498290	-1.000000	-1.000000	-1.000000	-1.000000	-1.000000	-1.000000	-1.000000	139.103448	0.000000	-1.000000	-1.000000	657281.000000	1772919345.245351
-3849.255000	21068.955000	-22021.200000	-14986.530000	0.000000	0.000000	0.000000	0.000000	-68.711093	-2.503249	-119.684939	-61.779190	0.000000	-0.000000	-0.000000	-0.000000	22.859480	3.189340	21.348740	0.044983	0.671751	0.498290	-1.000000	-1.000000	-1.000000	-1.000000	-1.000000	-1.000000	-1.000000	139.103448	0.000000	-1.000000	-1.000000	657282.000000	1772919345.245353
-3881.385000	21015.630000	-22161.690000	-14966.145000	0.000000	0.000000	0.000000	0.000000	-60.158662	-0.547063	-72.820588	-55.119636	0.000000	-0.000000	-0.000000	-0.000000	21.653940	5.844580	52.540180	0.040466	0.820860	0.506407	-1.000000	-1.000000	-1.000000	-1.000000	-1.000000	-1.000000	-1.000000	139.103448	0.000000	-1.000000	-1.000000	657283.000000	1772919345.245357
-3795.435000	20888.460000	-22036.770000	-14758.155000	0.000000	0.000000	0.000000	0.000000	-9.018969	-11.788626	3.948797	-14.035094	0.000000	-0.000000	-0.000000	-0.000000	21.653940	5.844580	52.540180	0.040466	0.820860	0.506407	-1.000000	-1.000000	-1.000000	-1.000000	-1.000000	-1.000000	-1.000000	139.103448	0.000000	-1.000000	-1.000000	657284.000000	1772919345.245359
-3714.210000	20746.080000	-21919.500000	-14584.230000	0.000000	0.000000	0.000000	0.000000	46.609638	-27.383951	70.404142	52.550082	0.000000	-0.000000	-0.000000	-0.000000	21.653940	5.844580	52.540180	0.040466	0.820860	0.506407	-1.000000	-1.000000	-1.000000	-1.000000	-1.000000	-1.000000	-1.000000	139.103448	0.000000	-1.000000	-1.000000	657285.000000	1772919345.246887
-3701.430000	20683.485000	-21855.690000	-14717.565000	0.000000	0.000000	0.000000	0.000000	76.281490	-37.299037	106.485470	113.373967	0.000000	-0.000000	-0.000000	-0.000000	21.653940	5.844580	52.540180	0.040466	0.820860	0.506407	-1.000000	-1.000000	-1.000000	-1.000000	-1.000000	-1.000000	-1.000000	139.103448	0.000000	-1.000000	-1.000000	657286.000000	1772919345.246895
-3694.230000	20652.390000	-21820.680000	-14738.400000	0.000000	0.000000	0.000000	0.000000	67.400251	-31.475609	105.928467	122.430697	0.000000	-0.000000	-0.000000	-0.000000	21.653940	5.844580	52.540180	0.040466	0.820860	0.506407	-1.000000	-1.000000	-1.000000	-1.000000	-1.000000	-1.000000	-1.000000	139.103448	0.000000	-1.000000	-1.000000	657287.000000	1772919345.249043
-3689.145000	20584.665000	-21905.190000	-14719.770000	0.000000	0.000000	0.000000	0.000000	25.465395	-5.811829	67.381674	63.011501	0.000000	-0.000000	-0.000000	-0.000000	21.653940	5.844580	52.540180	0.040466	0.820860	0.506407	-1.000000	-1.000000	-1.000000	-1.000000	-1.000000	-1.000000	-1.000000	139.103448	0.000000	-1.000000	-1.000000	657288.000000	1772919345.249047
-3783.915000	20495.295000	-22192.380000	-14912.595000	0.000000	0.000000	0.000000	0.000000	-30.016439	28.655699	-4.432702	-32.075819	0.000000	-0.000000	-0.000000	-0.000000	21.653940	5.844580	52.540180	0.040466	0.820860	0.506407	-1.000000	-1.000000	-1.000000	-1.000000	-1.000000	-1.000000	-1.000000	139.103448	0.000000	-1.000000	-1.000000	657289.000000	1772919345.252982
-3838.185000	20371.320000	-22238.685000	-14961.240000	0.000000	0.000000	0.000000	0.000000	-77.905767	51.280732	-92.018514	-115.507097	0.000000	-0.000000	-0.000000	-0.000000	21.653940	5.844580	52.540180	0.040466	0.820860	0.506407	-1.000000	-1.000000	-1.000000	-1.000000	-1.000000	-1.000000	-1.000000	139.103448	0.000000	-1.000000	-1.000000	657290.000000	1772919345.252985
-3816.495000	20259.180000	-22098.555000	-14844.465000	0.000000	0.000000	0.000000	0.000000	-100.760855	48.362499	-151.991863	-150.019311	0.000000	-0.000000	-0.000000	-0.000000	21.653940	5.844580	52.540180	0.040466	0.820860	0.506407	-1.000000	-1.000000	-1.000000	-1.000000	-1.000000	-1.000000	-1.000000	139.103448	0.000000	-1.000000	-1.000000	657291.000000	1772919345.256954
-3798.405000	20247.390000	-22020.885000	-14778.135000	0.000000	0.000000	0.000000	0.000000	-86.380944	25.056835	-135.796793	-114.619483	0.000000	-0.000000	-0.000000	-0.000000	21.653940	5.844580	52.540180	0.040466	0.820860	0.506407	-1.000000	-1.000000	-1.000000	-1.000000	-1.000000	-1.000000	-1.000000	139.103448	0.000000	-1.000000	-1.000000	657292.000000	1772919345.256958
-3585.600000	20408.535000	-21818.745000	-14644.620000	0.000000	0.000000	0.000000	0.000000	-34.315891	5.084116	-39.447092	-22.196979	0.000000	-0.000000	-0.000000	-0.000000	-33.938240	9.583280	21.913360	0.081848	0.910825	0.509642	-1.000000	-1.000000	-1.000000	-1.000000	-1.000000	-1.000000	-1.000000	139.103448	0.000000	-1.000000	-1.000000	657293.000000	1772919345.260977
-3641.445000	20570.085000	-21883.275000	-14767.020000	0.000000	0.000000	0.000000	0.000000	37.869283	13.393756	84.071783	77.622054	0.000000	-0.000000	-0.000000	-0.000000	-33.938240	9.583280	21.913360	0.081848	0.910825	0.509642	-1.000000	-1.000000	-1.000000	-1.000000	-1.000000	-1.000000	-1.000000	139.103448	0.000000	-1.000000	-1.000000	657294.000000	1772919345.260982
-3772.260000	20704.320000	-22001.940000	-14860.170000	0.000000	0.000000	0.000000	0.000000	91.330665	49.922929	158.881458	126.051301	0.000000	-0.000000	-0.000000	-0.000000	-33.938240	9.583280	21.913360	0.081848	0.910825	0.509642	-1.000000	-1.000000	-1.000000	-1.000000	-1.000000	-1.000000	-1.000000	139.103448	0.000000	-1.000000	-1.000000	657295.000000	1772919345.264882
-3765.510000	20764.935000	-22109.895000	-14884.605000	0.000000	0.000000	0.000000	0.000000	89.802251	83.782744	138.117704	97.939732	0.000000	-0.000000	-0.000000	-0.000000	-33.938240	9.583280	21.913360	0.081848	0.910825	0.509642	-1.000000	-1.000000	-1.000000	-1.000000	-1.000000	-1.000000	-1.000000	139.103448	0.000000	-1.000000	-1.000000	657296.000000	1772919345.264886
-3794.220000	20805.390000	-22191.255000	-14927.445000	0.000000	0.000000	0.000000	0.000000	38.511476	78.960789	39.604694	22.009122	0.000000	-0.000000	-0.000000	-0.000000	-33.938240	9.583280	21.913360	0.081848	0.910825	0.509642	-1.000000	-1.000000	-1.000000	-1.000000	-1.000000	-1.000000	-1.000000	139.103448	0.000000	-1.000000	-1.000000	657297.000000	1772919345.269000
-3771.855000	20821.140000	-22170.105000	-14926.050000	0.000000	0.000000	0.000000	0.000000	-21.698444	24.941307	-69.983305	-48.216115	0.000000	-0.000000	-0.000000	-0.000000	-33.938240	9.583280	21.913360	0.081848	0.910825	0.509642	-1.000000	-1.000000	-1.000000	-1.000000	-1.000000	-1.000000	-1.000000	139.103448	0.000000	-1.000000	-1.000000	657298.000000	1772919345.269005
-3712.320000	20825.730000	-22072.365000	-14841.765000	0.000000	0.000000	0.000000	0.000000	-52.942016	-55.958496	-123.844275	-74.365922	0.000000	-0.000000	-0.000000	-0.000000	-33.938240	9.583280	21.913360	0.081848	0.910825	0.509642	-1.000000	-1.000000	-1.000000	-1.000000	-1.000000	-1.000000	-1.000000	139.103448	0.000000	-1.000000	-1.000000	657299.000000	1772919345.272972
-3716.595000	20892.735000	-22002.570000	-14729.805000	0.000000	0.000000	0.000000	0.000000	-43.805682	-124.679767	-96.011881	-48.009324	0.000000	-0.000000	-0.000000	-0.000000	-33.938240	9.583280	21.913360	0.081848	0.910825	0.509642	-1.000000	-1.000000	-1.000000	-1.000000	-1.000000	-1.000000	-1.000000	139.103448	0.000000	-1.000000	-1.000000	657300.000000	1772919345.272975
-3660.480000	20832.120000	-21922.830000	-14723.865000	0.000000	0.000000	0.000000	0.000000	-9.772256	-150.401529	-12.761324	9.700553	0.000000	-0.000000	-0.000000	-0.000000	-33.938240	9.583280	21.913360	0.081848	0.910825	0.509642	-1.000000	-1.000000	-1.000000	-1.000000	-1.000000	-1.000000	-1.000000	139.103448	0.000000	-1.000000	-1.000000	657301.000000	1772919345.277181
-3545.280000	20736.495000	-21750.480000	-14722.155000	0.000000	0.000000	0.000000	0.000000	25.652168	-130.447339	73.531897	59.077998	0.000000	-0.000000	-0.000000	-0.000000	-33.938240	9.583280	21.913360	0.081848	0.910825	0.509642	-1.000000	-1.000000	-1.000000	-1.000000	-1.000000	-1.000000	-1.000000	139.103448	0.000000	-1.000000	-1.000000	657302.000000	1772919345.277184
-3600.720000	20661.615000	-21926.340000	-14767.335000	0.000000	0.000000	0.000000	0.000000	46.324710	-85.784554	117.252756	67.817641	0.000000	-0.000000	-0.000000	-0.000000	-54.539240	9.461200	6.226080	0.073242	0.878782	0.512084	-1.000000	-1.000000	-1.000000	-1.000000	-1.000000	-1.000000	-1.000000	139.103448	0.000000	-1.000000	-1.000000	657303.000000	1772919345.281004
-3689.865000	20662.470000	-22063.905000	-14851.530000	0.000000	0.000000	0.000000	0.000000	40.324785	-35.997459	91.540750	31.637030	0.000000	-0.000000	-0.000000	-0.000000	-54.539240	9.461200	6.226080	0.073242	0.878782	0.512084	-1.000000	-1.000000	-1.000000	-1.000000	-1.000000	-1.000000	-1.000000	139.103448	0.000000	-1.000000	-1.000000	657304.000000	1772919345.281007
-3762.360000	20723.445000	-22064.850000	-14916.555000	0.000000	0.000000	0.000000	0.000000	3.980257	14.092472	5.385579	-27.767963	0.000000	-0.000000	-0.000000	-0.000000	-54.539240	9.461200	6.226080	0.073242	0.878782	0.512084	-1.000000	-1.000000	-1.000000	-1.000000	-1.000000	-1.000000	-1.000000	139.103448	0.000000	-1.000000	-1.000000	657305.000000	1772919345.285062
-3791.070000	20747.475000	-22092.435000	-14945.490000	0.000000	0.000000	0.000000	0.000000	-45.412974	64.242134	-88.037438	-77.492357	0.000000	-0.000000	-0.000000	-0.000000	-54.539240	9.461200	6.226080	0.073242	0.878782	0.512084	-1.000000	-1.000000	-1.000000	-1.000000	-1.000000	-1.000000	-1.000000	139.103448	0.000000	-1.000000	-1.000000	657306.000000	1772919345.285065
-3735.675000	20681.820000	-22122.990000	-14936.715000	0.000000	0.000000	0.000000	0.000000	-75.828279	102.996512	-131.523304	-90.480987	0.000000	-0.000000	-0.000000	-0.000000	-54.539240	9.461200	6.226080	0.073242	0.878782	0.512084	-1.000000	-1.000000	-1.000000	-1.000000	-1.000000	-1.000000	-1.000000	139.103448	0.000000	-1.000000	-1.000000	657307.000000	1772919345.289054
-3664.170000	20733.705000	-22061.925000	-14833.260000	0.000000	0.000000	0.000000	0.000000	-63.575001	112.059579	-106.658959	-58.196747	0.000000	-0.000000	-0.000000	-0.000000	-54.539240	9.461200	6.226080	0.073242	0.878782	0.512084	-1.000000	-1.000000	-1.000000	-1.000000	-1.000000	-1.000000	-1.000000	139.103448	0.000000	-1.000000	-1.000000	657308.000000	1772919345.289057
-3621.105000	20742.030000	-21983.580000	-14779.620000	0.000000	0.000000	0.000000	0.000000	-12.194264	87.593986	-32.764361	6.123723	0.000000	-0.000000	-0.000000	-0.000000	-54.539240	9.461200	6.226080	0.073242	0.878782	0.512084	-1.000000	-1.000000	-1.000000	-1.000000	-1.000000	-1.000000	-1.000000	139.103448	0.000000	-1.000000	-1.000000	657309.000000	1772919345.293099
-3726.630000	20784.870000	-21984.075000	-14762.070000	0.000000	0.000000	0.000000	0.000000	46.103623	44.777605	52.009939	71.406855	0.000000	-0.000000	-0.000000	-0.000000	-54.539240	9.461200	6.226080	0.073242	0.878782	0.512084	-1.000000	-1.000000	-1.000000	-1.000000	-1.000000	-1.000000	-1.000000	139.103448	0.000000	-1.000000	-1.000000	657310.000000	1772919345.293102
-3669.795000	20793.735000	-22023.765000	-14762.745000	0.000000	0.000000	0.000000	0.000000	73.834900	2.539585	106.336427	103.446694	0.000000	-0.000000	-0.000000	-0.000000	-54.539240	9.461200	6.226080	0.073242	0.878782	0.512084	-1.000000	-1.000000	-1.000000	-1.000000	-1.000000	-1.000000	-1.000000	139.103448	0.000000	-1.000000	-1.000000	657311.000000	1772919345.297166
-3615.390000	20741.265000	-21986.685000	-14766.615000	0.000000	0.000000	0.000000	0.000000	61.522261	-29.012246	106.775868	86.798748	0.000000	-0.000000	-0.000000	-0.000000	-54.539240	9.461200	6.226080	0.073242	0.878782	0.512084	-1.000000	-1.000000	-1.000000	-1.000000	-1.000000	-1.000000	-1.000000	139.103448	0.000000	-1.000000	-1.000000	657312.000000	1772919345.297183
-3710.160000	20775.060000	-22086.450000	-14884.380000	0.000000	0.000000	0.000000	0.000000	27.601085	-48.604027	61.104489	31.769703	0.000000	-0.000000	-0.000000	-0.000000	-34.685980	10.620960	16.038260	0.079956	0.822447	0.516905	-1.000000	-1.000000	-1.000000	-1.000000	-1.000000	-1.000000	-1.000000	139.103448	0.000000	-1.000000	-1.000000	657313.000000	1772919345.303053
-3730.725000	20765.655000	-22150.440000	-14972.445000	0.000000	0.000000	0.000000	0.000000	-9.922976	-55.298051	-4.340317	-37.336730	0.000000	-0.000000	-0.000000	-0.000000	-34.685980	10.620960	16.038260	0.079956	0.822447	0.516905	-1.000000	-1.000000	-1.000000	-1.000000	-1.000000	-1.000000	-1.000000	139.103448	0.000000	-1.000000	-1.000000	657314.000000	1772919345.303059
-3761.190000	20689.830000	-22207.185000	-14978.970000	0.000000	0.000000	0.000000	0.000000	-40.570161	-49.021913	-61.854365	-91.856651	0.000000	-0.000000	-0.000000	-0.000000	-34.685980	10.620960	16.038260	0.079956	0.822447	0.516905	-1.000000	-1.000000	-1.000000	-1.000000	-1.000000	-1.000000	-1.000000	139.103448	0.000000	-1.000000	-1.000000	657315.000000	1772919345.305194
-3764.070000	20705.175000	-22095.495000	-14922.810000	0.000000	0.000000	0.000000	0.000000	-54.241741	-35.266406	-86.922696	-104.932925	0.000000	-0.000000	-0.000000	-0.000000	-34.685980	10.620960	16.038260	0.079956	0.822447	0.516905	-1.000000	-1.000000	-1.000000	-1.000000	-1.000000	-1.000000	-1.000000	139.103448	0.000000	-1.000000	-1.000000	657316.000000	1772919345.305198
-3616.020000	20713.770000	-21892.005000	-14796.855000	0.000000	0.000000	0.000000	0.000000	-42.885976	-18.077885	-62.689881	-65.283104	0.000000	-0.000000	-0.000000	-0.000000	-34.685980	10.620960	16.038260	0.079956	0.822447	0.516905	-1.000000	-1.000000	-1.000000	-1.000000	-1.000000	-1.000000	-1.000000	139.103448	0.000000	-1.000000	-1.000000	657317.000000	1772919345.309152
-3541.410000	20730.420000	-21861.990000	-14673.510000	0.000000	0.000000	0.000000	0.000000	-5.826464	2.685056	4.193220	11.940745	0.000000	-0.000000	-0.000000	-0.000000	-34.685980	10.620960	16.038260	0.079956	0.822447	0.516905	-1.000000	-1.000000	-1.000000	-1.000000	-1.000000	-1.000000	-1.000000	139.103448	0.000000	-1.000000	-1.000000	657318.000000	1772919345.309158
-3515.355000	20852.055000	-21933.180000	-14725.485000	0.000000	0.000000	0.000000	0.000000	41.307844	26.012915	72.034949	87.509530	0.000000	-0.000000	-0.000000	-0.000000	-34.685980	10.620960	16.038260	0.079956	0.822447	0.516905	-1.000000	-1.000000	-1.000000	-1.000000	-1.000000	-1.000000	-1.000000	139.103448	0.000000	-1.000000	-1.000000	657319.000000	1772919345.313178
-3550.950000	20896.155000	-21924.315000	-14716.305000	0.000000	0.000000	0.000000	0.000000	68.703732	48.303426	91.473346	117.244841	0.000000	-0.000000	-0.000000	-0.000000	-34.685980	10.620960	16.038260	0.079956	0.822447	0.516905	-1.000000	-1.000000	-1.000000	-1.000000	-1.000000	-1.000000	-1.000000	139.103448	0.000000	-1.000000	-1.000000	657320.000000	1772919345.313184
-3652.515000	20956.365000	-21982.590000	-14807.340000	0.000000	0.000000	0.000000	0.000000	54.030627	61.427057	50.673307	83.045128	0.000000	-0.000000	-0.000000	-0.000000	-34.685980	10.620960	16.038260	0.079956	0.822447	0.516905	-1.000000	-1.000000	-1.000000	-1.000000	-1.000000	-1.000000	-1.000000	139.103448	0.000000	-1.000000	-1.000000	657321.000000	1772919345.317176
-3791.835000	21012.570000	-22000.455000	-14986.530000	0.000000	0.000000	0.000000	0.000000	-0.289098	55.890826	-19.884602	3.101929	0.000000	-0.000000	-0.000000	-0.000000	-34.685980	10.620960	16.038260	0.079956	0.822447	0.516905	-1.000000	-1.000000	-1.000000	-1.000000	-1.000000	-1.000000	-1.000000	139.103448	0.000000	-1.000000	-1.000000	657322.000000	1772919345.317180
-3773.070000	20929.590000	-21947.895000	-15005.430000	0.000000	0.000000	0.000000	0.000000	-65.713545	28.466752	-76.404820	-83.388352	0.000000	-0.000000	-0.000000	-0.000000	-10.926160	4.013380	19.364940	0.061584	0.795530	0.558043	-1.000000	-1.000000	-1.000000	-1.000000	-1.000000	-1.000000	-1.000000	139.103448	0.000000	-1.000000	-1.000000	657323.000000	1772919345.321144
-3708.720000	20888.685000	-21995.550000	-14953.005000	0.000000	0.000000	0.000000	0.000000	-100.029681	-16.536522	-89.861667	-131.005380	0.000000	-0.000000	-0.000000	-0.000000	-10.926160	4.013380	19.364940	0.061584	0.795530	0.558043	-1.000000	-1.000000	-1.000000	-1.000000	-1.000000	-1.000000	-1.000000	139.103448	0.000000	-1.000000	-1.000000	657324.000000	1772919345.321147
-3643.515000	20902.095000	-22119.615000	-14910.120000	0.000000	0.000000	0.000000	0.000000	-76.168400	-63.943928	-63.921000	-110.201912	0.000000	-0.000000	-0.000000	-0.000000	-10.926160	4.013380	19.364940	0.061584	0.795530	0.558043	-1.000000	-1.000000	-1.000000	-1.000000	-1.000000	-1.000000	-1.000000	139.103448	0.000000	-1.000000	-1.000000	657325.000000	1772919345.326386
-3548.475000	20982.105000	-22051.170000	-14808.195000	0.000000	0.000000	0.000000	0.000000	-5.325217	-88.156023	-24.166990	-30.796430	0.000000	-0.000000	-0.000000	-0.000000	-10.926160	4.013380	19.364940	0.061584	0.795530	0.558043	-1.000000	-1.000000	-1.000000	-1.000000	-1.000000	-1.000000	-1.000000	139.103448	0.000000	-1.000000	-1.000000	657326.000000	1772919345.326389
-3523.005000	21078.855000	-21956.355000	-14761.080000	0.000000	0.000000	0.000000	0.000000	71.770547	-70.440095	14.128176	64.294402	0.000000	-0.000000	-0.000000	-0.000000	-10.926160	4.013380	19.364940	0.061584	0.795530	0.558043	-1.000000	-1.000000	-1.000000	-1.000000	-1.000000	-1.000000	-1.000000	139.103448	0.000000	-1.000000	-1.000000	657327.000000	1772919345.329345
-3522.015000	21152.475000	-21943.710000	-14778.045000	0.000000	0.000000	0.000000	0.000000	112.584491	-16.833130	49.782761	126.246627	0.000000	-0.000000	-0.000000	-0.000000	-10.926160	4.013380	19.364940	0.061584	0.795530	0.558043	-1.000000	-1.000000	-1.000000	-1.000000	-1.000000	-1.000000	-1.000000	139.103448	0.000000	-1.000000	-1.000000	657328.000000	1772919345.329348
-3479.895000	21136.230000	-21957.165000	-14784.570000	0.000000	0.000000	0.000000	0.000000	98.114070	42.237888	74.198107	125.862599	0.000000	-0.000000	-0.000000	-0.000000	-10.926160	4.013380	19.364940	0.061584	0.795530	0.558043	-1.000000	-1.000000	-1.000000	-1.000000	-1.000000	-1.000000	-1.000000	139.103448	0.000000	-1.000000	-1.000000	657329.000000	1772919345.338889
