Channel1	Channel2	Channel3	Channel4	Channel5	Channel6	Channel7	Channel8	FilteredChannel1	FilteredChannel2	FilteredChannel3	FilteredChannel4	FilteredChannel5	FilteredChannel6	FilteredChannel7	FilteredChannel8	GyroX	GyroY	GyroZ	AccX	AccY	AccZ	PPG1	PPG2	rawPPG1	rawPPG2	rawPPG3	Hr	Hrv	Battery	Trigger	PhysicalTrigger	AutoTrigger	NumMeasurements	Timestamp
-23873.985000	-31537.890000	-29052.720000	-15414.705000	0.000000	0.000000	0.000000	0.000000	-20.332925	12.140677	-19.792746	-17.968882	0.000000	0.000000	-0.000000	0.000000	2.914660	0.564620	0.106820	0.006653	0.984067	-0.014343	-1.000000	-1.000000	-1.000000	-1.000000	-1.000000	-1.000000	-1.000000	146.827586	0.000000	-1.000000	-1.000000	554582.000000	1772311769.011217
-23864.040000	-31534.200000	-29048.760000	-15408.405000	0.000000	0.000000	0.000000	0.000000	-16.135203	2.241724	-15.769133	-12.793298	0.000000	0.000000	-0.000000	0.000000	2.914660	0.564620	0.106820	0.006653	0.984067	-0.014343	-1.000000	-1.000000	-1.000000	-1.000000	-1.000000	-1.000000	-1.000000	146.827586	0.000000	-1.000000	-1.000000	554583.000000	1772311769.013901
-23848.920000	-31553.820000	-29038.320000	-15395.445000	0.000000	0.000000	0.000000	0.000000	-0.660905	-13.669043	-0.862970	1.490375	0.000000	0.000000	-0.000000	0.000000	2.914660	0.564620	0.106820	0.006653	0.984067	-0.014343	-1.000000	-1.000000	-1.000000	-1.000000	-1.000000	-1.000000	-1.000000	146.827586	0.000000	-1.000000	-1.000000	554584.000000	1772311769.013904
-23837.940000	-31606.785000	-29026.395000	-15378.705000	0.000000	0.000000	0.000000	0.000000	16.975946	-30.810021	15.853771	16.617242	0.000000	0.000000	-0.000000	0.000000	2.914660	0.564620	0.106820	0.006653	0.984067	-0.014343	-1.000000	-1.000000	-1.000000	-1.000000	-1.000000	-1.000000	-1.000000	146.827586	0.000000	-1.000000	-1.000000	554585.000000	1772311769.017864
-23837.895000	-31646.295000	-29032.965000	-15401.250000	0.000000	0.000000	0.000000	0.000000	27.201504	-43.591982	25.438621	24.425187	0.000000	0.000000	-0.000000	0.000000	2.914660	0.564620	0.106820	0.006653	0.984067	-0.014343	-1.000000	-1.000000	-1.000000	-1.000000	-1.000000	-1.000000	-1.000000	146.827586	0.000000	-1.000000	-1.000000	554586.000000	1772311769.017867
-23835.555000	-31690.440000	-29031.660000	-15397.875000	0.000000	0.000000	0.000000	0.000000	25.183341	-46.200760	23.501331	20.603610	0.000000	0.000000	-0.000000	0.000000	2.914660	0.564620	0.106820	0.006653	0.984067	-0.014343	-1.000000	-1.000000	-1.000000	-1.000000	-1.000000	-1.000000	-1.000000	146.827586	0.000000	-1.000000	-1.000000	554587.000000	1772311769.021985
-23837.220000	-31710.915000	-29028.780000	-15387.570000	0.000000	0.000000	0.000000	0.000000	12.770157	-34.803689	11.926426	7.710705	0.000000	0.000000	-0.000000	0.000000	2.914660	0.564620	0.106820	0.006653	0.984067	-0.014343	-1.000000	-1.000000	-1.000000	-1.000000	-1.000000	-1.000000	-1.000000	146.827586	0.000000	-1.000000	-1.000000	554588.000000	1772311769.021989
-23843.430000	-31682.925000	-29035.485000	-15392.790000	0.000000	0.000000	0.000000	0.000000	-3.511012	-9.803912	-2.832184	-6.286058	0.000000	0.000000	-0.000000	0.000000	1.480220	0.778260	0.030520	0.006897	0.985227	-0.016235	-1.000000	-1.000000	-1.000000	-1.000000	-1.000000	-1.000000	-1.000000	146.827586	0.000000	-1.000000	-1.000000	554589.000000	1772311769.025962
-23826.600000	-31729.680000	-29021.040000	-15378.930000	0.000000	0.000000	0.000000	0.000000	-16.332157	22.388122	-14.065441	-14.600698	0.000000	0.000000	-0.000000	0.000000	1.480220	0.778260	0.030520	0.006897	0.985227	-0.016235	-1.000000	-1.000000	-1.000000	-1.000000	-1.000000	-1.000000	-1.000000	146.827586	0.000000	-1.000000	-1.000000	554590.000000	1772311769.025964
-23822.010000	-31780.035000	-29014.740000	-15369.480000	0.000000	0.000000	0.000000	0.000000	-20.622216	48.114285	-17.723875	-15.044851	0.000000	0.000000	-0.000000	0.000000	1.480220	0.778260	0.030520	0.006897	0.985227	-0.016235	-1.000000	-1.000000	-1.000000	-1.000000	-1.000000	-1.000000	-1.000000	146.827586	0.000000	-1.000000	-1.000000	554591.000000	1772311769.031225
-23812.335000	-31750.650000	-29007.990000	-15365.070000	0.000000	0.000000	0.000000	0.000000	-15.928737	55.344366	-13.750656	-9.405908	0.000000	0.000000	-0.000000	0.000000	1.480220	0.778260	0.030520	0.006897	0.985227	-0.016235	-1.000000	-1.000000	-1.000000	-1.000000	-1.000000	-1.000000	-1.000000	146.827586	0.000000	-1.000000	-1.000000	554592.000000	1772311769.031228
-23812.740000	-31712.895000	-29014.875000	-15374.700000	0.000000	0.000000	0.000000	0.000000	-6.458457	46.304827	-6.019452	-2.229274	0.000000	0.000000	-0.000000	0.000000	1.480220	0.778260	0.030520	0.006897	0.985227	-0.016235	-1.000000	-1.000000	-1.000000	-1.000000	-1.000000	-1.000000	-1.000000	146.827586	0.000000	-1.000000	-1.000000	554593.000000	1772311769.033950
-23837.310000	-31714.785000	-29038.635000	-15394.725000	0.000000	0.000000	0.000000	0.000000	1.673467	32.136614	0.018207	1.615808	0.000000	0.000000	-0.000000	0.000000	1.480220	0.778260	0.030520	0.006897	0.985227	-0.016235	-1.000000	-1.000000	-1.000000	-1.000000	-1.000000	-1.000000	-1.000000	146.827586	0.000000	-1.000000	-1.000000	554594.000000	1772311769.033953
-23839.740000	-31740.480000	-29037.150000	-15390.405000	0.000000	0.000000	0.000000	0.000000	4.108665	17.861767	1.111627	0.428988	0.000000	0.000000	-0.000000	0.000000	1.480220	0.778260	0.030520	0.006897	0.985227	-0.016235	-1.000000	-1.000000	-1.000000	-1.000000	-1.000000	-1.000000	-1.000000	146.827586	0.000000	-1.000000	-1.000000	554595.000000	1772311769.037983
-23837.130000	-31774.185000	-29031.615000	-15385.590000	0.000000	0.000000	0.000000	0.000000	1.579437	1.010017	-0.975246	-2.707118	0.000000	0.000000	-0.000000	0.000000	1.480220	0.778260	0.030520	0.006897	0.985227	-0.016235	-1.000000	-1.000000	-1.000000	-1.000000	-1.000000	-1.000000	-1.000000	146.827586	0.000000	-1.000000	-1.000000	554596.000000	1772311769.037986
-23830.605000	-31790.475000	-29024.820000	-15383.745000	0.000000	0.000000	0.000000	0.000000	-1.104187	-18.717993	-1.635159	-3.254723	0.000000	0.000000	-0.000000	0.000000	1.480220	0.778260	0.030520	0.006897	0.985227	-0.016235	-1.000000	-1.000000	-1.000000	-1.000000	-1.000000	-1.000000	-1.000000	146.827586	0.000000	-1.000000	-1.000000	554597.000000	1772311769.042026
-23840.190000	-31772.475000	-29034.630000	-15391.935000	0.000000	0.000000	0.000000	0.000000	-0.529048	-34.361824	1.093173	-0.165135	0.000000	0.000000	-0.000000	0.000000	1.480220	0.778260	0.030520	0.006897	0.985227	-0.016235	-1.000000	-1.000000	-1.000000	-1.000000	-1.000000	-1.000000	-1.000000	146.827586	0.000000	-1.000000	-1.000000	554598.000000	1772311769.042029
-23844.555000	-31765.095000	-29037.465000	-15386.130000	0.000000	0.000000	0.000000	0.000000	2.324474	-36.805091	4.843310	3.961377	0.000000	0.000000	-0.000000	0.000000	0.595140	0.610400	0.122080	0.006836	0.984189	-0.016235	-1.000000	-1.000000	-1.000000	-1.000000	-1.000000	-1.000000	-1.000000	146.827586	0.000000	-1.000000	-1.000000	554599.000000	1772311769.046050
-23839.650000	-31772.115000	-29030.085000	-15374.295000	0.000000	0.000000	0.000000	0.000000	4.679499	-24.313065	6.606333	6.708992	0.000000	0.000000	-0.000000	0.000000	0.595140	0.610400	0.122080	0.006836	0.984189	-0.016235	-1.000000	-1.000000	-1.000000	-1.000000	-1.000000	-1.000000	-1.000000	146.827586	0.000000	-1.000000	-1.000000	554600.000000	1772311769.046053
-23836.815000	-31780.485000	-29032.695000	-15377.265000	0.000000	0.000000	0.000000	0.000000	5.422392	-5.131930	5.898786	7.538458	0.000000	0.000000	-0.000000	0.000000	0.595140	0.610400	0.122080	0.006836	0.984189	-0.016235	-1.000000	-1.000000	-1.000000	-1.000000	-1.000000	-1.000000	-1.000000	146.827586	0.000000	-1.000000	-1.000000	554601.000000	1772311769.050047
-23835.330000	-31778.865000	-29029.860000	-15374.520000	0.000000	0.000000	0.000000	0.000000	4.982740	10.057539	3.801758	6.337239	0.000000	0.000000	-0.000000	0.000000	0.595140	0.610400	0.122080	0.006836	0.984189	-0.016235	-1.000000	-1.000000	-1.000000	-1.000000	-1.000000	-1.000000	-1.000000	146.827586	0.000000	-1.000000	-1.000000	554602.000000	1772311769.050049
-23839.785000	-31790.340000	-29039.130000	-15380.595000	0.000000	0.000000	0.000000	0.000000	3.639705	15.899636	1.144571	3.035733	0.000000	0.000000	-0.000000	0.000000	0.595140	0.610400	0.122080	0.006836	0.984189	-0.016235	-1.000000	-1.000000	-1.000000	-1.000000	-1.000000	-1.000000	-1.000000	146.827586	0.000000	-1.000000	-1.000000	554603.000000	1772311769.054057
-23852.655000	-31763.070000	-29052.270000	-15390.450000	0.000000	0.000000	0.000000	0.000000	1.118034	13.724478	-1.881917	-1.685587	0.000000	0.000000	-0.000000	0.000000	0.595140	0.610400	0.122080	0.006836	0.984189	-0.016235	-1.000000	-1.000000	-1.000000	-1.000000	-1.000000	-1.000000	-1.000000	146.827586	0.000000	-1.000000	-1.000000	554604.000000	1772311769.054060
-23848.020000	-31747.140000	-29042.730000	-15383.115000	0.000000	0.000000	0.000000	0.000000	-2.364922	8.883473	-4.762029	-6.175704	-0.000000	0.000000	-0.000000	0.000000	0.595140	0.610400	0.122080	0.006836	0.984189	-0.016235	-1.000000	-1.000000	-1.000000	-1.000000	-1.000000	-1.000000	-1.000000	146.827586	0.000000	-1.000000	-1.000000	554605.000000	1772311769.058332
-23839.380000	-31750.065000	-29035.890000	-15377.670000	0.000000	0.000000	0.000000	0.000000	-4.949885	5.498233	-5.630274	-8.010456	-0.000000	0.000000	-0.000000	0.000000	0.595140	0.610400	0.122080	0.006836	0.984189	-0.016235	-1.000000	-1.000000	-1.000000	-1.000000	-1.000000	-1.000000	-1.000000	146.827586	0.000000	-1.000000	-1.000000	554606.000000	1772311769.058334
-23838.075000	-31739.625000	-29032.065000	-15374.340000	0.000000	0.000000	0.000000	0.000000	-4.531965	3.141988	-3.078902	-5.806207	-0.000000	0.000000	-0.000000	0.000000	0.595140	0.610400	0.122080	0.006836	0.984189	-0.016235	-1.000000	-1.000000	-1.000000	-1.000000	-1.000000	-1.000000	-1.000000	146.827586	0.000000	-1.000000	-1.000000	554607.000000	1772311769.062077
-23853.465000	-31725.990000	-29045.160000	-15380.865000	0.000000	0.000000	0.000000	0.000000	-1.730785	0.091050	1.232514	-1.106442	-0.000000	0.000000	-0.000000	0.000000	0.595140	0.610400	0.122080	0.006836	0.984189	-0.016235	-1.000000	-1.000000	-1.000000	-1.000000	-1.000000	-1.000000	-1.000000	146.827586	0.000000	-1.000000	-1.000000	554608.000000	1772311769.062080
-23845.815000	-31737.825000	-29041.965000	-15376.455000	0.000000	0.000000	0.000000	0.000000	0.649278	-3.658174	3.856207	2.887019	-0.000000	0.000000	-0.000000	0.000000	0.930860	-0.061040	0.183120	0.006226	0.982847	-0.013123	-1.000000	-1.000000	-1.000000	-1.000000	-1.000000	-1.000000	-1.000000	146.827586	0.000000	-1.000000	-1.000000	554609.000000	1772311769.066135
-23841.225000	-31769.010000	-29038.050000	-15369.930000	0.000000	0.000000	0.000000	0.000000	1.380283	-8.133082	3.410725	4.422642	-0.000000	0.000000	-0.000000	0.000000	0.930860	-0.061040	0.183120	0.006226	0.982847	-0.013123	-1.000000	-1.000000	-1.000000	-1.000000	-1.000000	-1.000000	-1.000000	146.827586	0.000000	-1.000000	-1.000000	554610.000000	1772311769.066138
-23843.880000	-31794.480000	-29038.320000	-15372.045000	0.000000	0.000000	0.000000	0.000000	1.421518	-13.743218	1.429626	3.955386	-0.000000	0.000000	-0.000000	0.000000	0.930860	-0.061040	0.183120	0.006226	0.982847	-0.013123	-1.000000	-1.000000	-1.000000	-1.000000	-1.000000	-1.000000	-1.000000	146.827586	0.000000	-1.000000	-1.000000	554611.000000	1772311769.070135
-23838.255000	-31837.455000	-29033.550000	-15371.865000	0.000000	0.000000	0.000000	0.000000	1.463577	-19.064153	-0.195337	2.376549	-0.000000	0.000000	-0.000000	0.000000	0.930860	-0.061040	0.183120	0.006226	0.982847	-0.013123	-1.000000	-1.000000	-1.000000	-1.000000	-1.000000	-1.000000	-1.000000	146.827586	0.000000	-1.000000	-1.000000	554612.000000	1772311769.070138
-23834.250000	-31866.930000	-29027.565000	-15363.045000	0.000000	0.000000	0.000000	0.000000	1.472060	-21.014750	-0.674206	0.411109	-0.000000	0.000000	-0.000000	0.000000	0.930860	-0.061040	0.183120	0.006226	0.982847	-0.013123	-1.000000	-1.000000	-1.000000	-1.000000	-1.000000	-1.000000	-1.000000	146.827586	0.000000	-1.000000	-1.000000	554613.000000	1772311769.074160
-23834.295000	-31902.345000	-29026.710000	-15363.855000	0.000000	0.000000	0.000000	0.000000	1.334921	-17.136381	-0.172756	-1.008994	-0.000000	0.000000	-0.000000	0.000000	0.930860	-0.061040	0.183120	0.006226	0.982847	-0.013123	-1.000000	-1.000000	-1.000000	-1.000000	-1.000000	-1.000000	-1.000000	146.827586	0.000000	-1.000000	-1.000000	554614.000000	1772311769.074170
-23843.835000	-31906.620000	-29036.655000	-15374.295000	0.000000	0.000000	0.000000	0.000000	0.580618	-6.977361	0.221483	-1.710758	-0.000000	0.000000	-0.000000	0.000000	0.930860	-0.061040	0.183120	0.006226	0.982847	-0.013123	-1.000000	-1.000000	-1.000000	-1.000000	-1.000000	-1.000000	-1.000000	146.827586	0.000000	-1.000000	-1.000000	554615.000000	1772311769.079481
-23842.080000	-31899.375000	-29031.840000	-15369.300000	0.000000	0.000000	0.000000	0.000000	-1.202923	7.957059	-0.596705	-2.402355	-0.000000	0.000000	-0.000000	0.000000	0.930860	-0.061040	0.183120	0.006226	0.982847	-0.013123	-1.000000	-1.000000	-1.000000	-1.000000	-1.000000	-1.000000	-1.000000	146.827586	0.000000	-1.000000	-1.000000	554616.000000	1772311769.079485
-23855.220000	-31910.490000	-29045.475000	-15376.590000	0.000000	0.000000	0.000000	0.000000	-3.447607	23.811925	-2.406731	-3.099342	-0.000000	0.000000	-0.000000	0.000000	0.930860	-0.061040	0.183120	0.006226	0.982847	-0.013123	-1.000000	-1.000000	-1.000000	-1.000000	-1.000000	-1.000000	-1.000000	146.827586	0.000000	-1.000000	-1.000000	554617.000000	1772311769.082179
-23859.585000	-31939.335000	-29054.025000	-15384.690000	0.000000	0.000000	0.000000	0.000000	-5.064692	33.783345	-4.224908	-3.258714	-0.000000	0.000000	-0.000000	0.000000	0.930860	-0.061040	0.183120	0.006226	0.982847	-0.013123	-1.000000	-1.000000	-1.000000	-1.000000	-1.000000	-1.000000	-1.000000	146.827586	0.000000	-1.000000	-1.000000	554618.000000	1772311769.082181
-23855.040000	-31966.470000	-29053.215000	-15384.870000	0.000000	0.000000	0.000000	0.000000	-5.034730	31.581351	-5.103050	-2.750903	-0.000000	0.000000	-0.000000	0.000000	-0.259420	-0.503580	1.632820	0.003540	0.985227	-0.013550	-1.000000	-1.000000	-1.000000	-1.000000	-1.000000	-1.000000	-1.000000	146.827586	0.000000	-1.000000	-1.000000	554619.000000	1772311769.086025
-23849.955000	-31989.285000	-29045.835000	-15375.105000	0.000000	0.000000	0.000000	0.000000	-2.520754	17.285989	-3.821367	-1.246328	-0.000000	0.000000	-0.000000	0.000000	-0.259420	-0.503580	1.632820	0.003540	0.985227	-0.013550	-1.000000	-1.000000	-1.000000	-1.000000	-1.000000	-1.000000	-1.000000	146.827586	0.000000	-1.000000	-1.000000	554620.000000	1772311769.086028
-23849.505000	-31987.530000	-29037.870000	-15362.640000	0.000000	0.000000	0.000000	0.000000	2.010885	-1.442314	0.239372	1.863058	-0.000000	0.000000	-0.000000	0.000000	-0.259420	-0.503580	1.632820	0.003540	0.985227	-0.013550	-1.000000	-1.000000	-1.000000	-1.000000	-1.000000	-1.000000	-1.000000	146.827586	0.000000	-1.000000	-1.000000	554621.000000	1772311769.090267
-23849.640000	-31992.705000	-29038.545000	-15364.215000	0.000000	0.000000	0.000000	0.000000	6.278912	-14.592393	5.593743	5.888213	-0.000000	0.000000	-0.000000	0.000000	-0.259420	-0.503580	1.632820	0.003540	0.985227	-0.013550	-1.000000	-1.000000	-1.000000	-1.000000	-1.000000	-1.000000	-1.000000	146.827586	0.000000	-1.000000	-1.000000	554622.000000	1772311769.090270
-23847.525000	-31987.755000	-29035.215000	-15360.030000	0.000000	0.000000	0.000000	0.000000	7.902168	-16.831426	9.182269	8.356942	-0.000000	0.000000	-0.000000	0.000000	-0.259420	-0.503580	1.632820	0.003540	0.985227	-0.013550	-1.000000	-1.000000	-1.000000	-1.000000	-1.000000	-1.000000	-1.000000	146.827586	0.000000	-1.000000	-1.000000	554623.000000	1772311769.094240
-23840.640000	-31951.755000	-29034.630000	-15360.840000	0.000000	0.000000	0.000000	0.000000	6.386064	-9.420993	8.844767	7.209682	-0.000000	0.000000	-0.000000	0.000000	-0.259420	-0.503580	1.632820	0.003540	0.985227	-0.013550	-1.000000	-1.000000	-1.000000	-1.000000	-1.000000	-1.000000	-1.000000	146.827586	0.000000	-1.000000	-1.000000	554624.000000	1772311769.094243
-23844.465000	-31914.585000	-29039.355000	-15366.555000	0.000000	0.000000	0.000000	0.000000	3.012135	3.121143	4.798326	2.664589	-0.000000	0.000000	-0.000000	0.000000	-0.259420	-0.503580	1.632820	0.003540	0.985227	-0.013550	-1.000000	-1.000000	-1.000000	-1.000000	-1.000000	-1.000000	-1.000000	146.827586	0.000000	-1.000000	-1.000000	554625.000000	1772311769.098160
-23866.335000	-31901.040000	-29062.170000	-15384.240000	0.000000	0.000000	0.000000	0.000000	-1.154951	14.834601	-1.402692	-3.539146	-0.000000	0.000000	-0.000000	0.000000	-0.259420	-0.503580	1.632820	0.003540	0.985227	-0.013550	-1.000000	-1.000000	-1.000000	-1.000000	-1.000000	-1.000000	-1.000000	146.827586	0.000000	-1.000000	-1.000000	554626.000000	1772311769.098163
-23861.565000	-31889.070000	-29061.405000	-15381.675000	0.000000	0.000000	0.000000	0.000000	-5.623591	19.028919	-7.790073	-9.117566	-0.000000	0.000000	-0.000000	0.000000	-0.259420	-0.503580	1.632820	0.003540	0.985227	-0.013550	-1.000000	-1.000000	-1.000000	-1.000000	-1.000000	-1.000000	-1.000000	146.827586	0.000000	-1.000000	-1.000000	554627.000000	1772311769.102162
-23860.035000	-31884.795000	-29059.605000	-15380.145000	0.000000	0.000000	0.000000	0.000000	-8.576842	12.194309	-11.444613	-11.310777	-0.000000	0.000000	-0.000000	0.000000	-0.259420	-0.503580	1.632820	0.003540	0.985227	-0.013550	-1.000000	-1.000000	-1.000000	-1.000000	-1.000000	-1.000000	-1.000000	146.827586	0.000000	-1.000000	-1.000000	554628.000000	1772311769.102165
-23840.325000	-31886.910000	-29040.300000	-15363.540000	0.000000	0.000000	0.000000	0.000000	-7.356123	-2.907372	-9.483107	-8.137315	-0.000000	0.000000	-0.000000	0.000000	-1.205540	-0.335720	2.990960	0.003479	0.984861	-0.012756	-1.000000	-1.000000	-1.000000	-1.000000	-1.000000	-1.000000	-1.000000	146.827586	0.000000	-1.000000	-1.000000	554629.000000	1772311769.106247
-23833.215000	-31886.100000	-29035.350000	-15355.215000	0.000000	0.000000	0.000000	0.000000	-1.483970	-19.115433	-1.907840	-0.360666	-0.000000	0.000000	-0.000000	0.000000	-1.205540	-0.335720	2.990960	0.003479	0.984861	-0.012756	-1.000000	-1.000000	-1.000000	-1.000000	-1.000000	-1.000000	-1.000000	146.827586	0.000000	-1.000000	-1.000000	554630.000000	1772311769.106251
-23882.850000	-31882.455000	-29087.055000	-15399.900000	0.000000	0.000000	0.000000	0.000000	4.999339	-29.041249	6.285277	7.346317	-0.000000	0.000000	-0.000000	0.000000	-1.205540	-0.335720	2.990960	0.003479	0.984861	-0.012756	-1.000000	-1.000000	-1.000000	-1.000000	-1.000000	-1.000000	-1.000000	146.827586	0.000000	-1.000000	-1.000000	554631.000000	1772311769.112004
-23879.250000	-31875.030000	-29083.590000	-15394.770000	0.000000	0.000000	0.000000	0.000000	5.966397	-28.565041	8.157566	8.957944	-0.000000	0.000000	-0.000000	0.000000	-1.205540	-0.335720	2.990960	0.003479	0.984861	-0.012756	-1.000000	-1.000000	-1.000000	-1.000000	-1.000000	-1.000000	-1.000000	146.827586	0.000000	-1.000000	-1.000000	554632.000000	1772311769.112006
-23872.950000	-31859.730000	-29077.830000	-15385.410000	0.000000	0.000000	0.000000	0.000000	0.945902	-18.339850	3.108362	4.100588	-0.000000	0.000000	-0.000000	0.000000	-1.205540	-0.335720	2.990960	0.003479	0.984861	-0.012756	-1.000000	-1.000000	-1.000000	-1.000000	-1.000000	-1.000000	-1.000000	146.827586	0.000000	-1.000000	-1.000000	554633.000000	1772311769.114335
-23872.815000	-31835.070000	-29078.775000	-15387.480000	0.000000	0.000000	0.000000	0.000000	-3.880839	-2.679598	-2.323271	-1.287960	-0.000000	0.000000	-0.000000	0.000000	-1.205540	-0.335720	2.990960	0.003479	0.984861	-0.012756	-1.000000	-1.000000	-1.000000	-1.000000	-1.000000	-1.000000	-1.000000	146.827586	0.000000	-1.000000	-1.000000	554634.000000	1772311769.114338
-23873.895000	-31827.465000	-29075.490000	-15382.440000	0.000000	0.000000	0.000000	0.000000	-3.896311	12.492403	-3.051902	-2.674729	-0.000000	0.000000	-0.000000	0.000000	-1.205540	-0.335720	2.990960	0.003479	0.984861	-0.012756	-1.000000	-1.000000	-1.000000	-1.000000	-1.000000	-1.000000	-1.000000	146.827586	0.000000	-1.000000	-1.000000	554635.000000	1772311769.119818
-23899.185000	-31804.110000	-29088.765000	-15395.310000	0.000000	0.000000	0.000000	0.000000	-0.479359	21.655315	0.159583	-0.696586	-0.000000	0.000000	-0.000000	0.000000	-1.205540	-0.335720	2.990960	0.003479	0.984861	-0.012756	-1.000000	-1.000000	-1.000000	-1.000000	-1.000000	-1.000000	-1.000000	146.827586	0.000000	-1.000000	-1.000000	554636.000000	1772311769.119821
-23896.665000	-31777.965000	-29094.390000	-15406.380000	0.000000	0.000000	0.000000	0.000000	2.205970	22.479476	3.345100	1.244478	-0.000000	0.000000	-0.000000	0.000000	-1.205540	-0.335720	2.990960	0.003479	0.984861	-0.012756	-1.000000	-1.000000	-1.000000	-1.000000	-1.000000	-1.000000	-1.000000	146.827586	0.000000	-1.000000	-1.000000	554637.000000	1772311769.123444
-23859.540000	-31764.285000	-29069.955000	-15377.445000	0.000000	0.000000	0.000000	0.000000	3.125282	16.627542	4.189414	1.338403	-0.000000	0.000000	-0.000000	0.000000	-1.205540	-0.335720	2.990960	0.003479	0.984861	-0.012756	-1.000000	-1.000000	-1.000000	-1.000000	-1.000000	-1.000000	-1.000000	146.827586	0.000000	-1.000000	-1.000000	554638.000000	1772311769.123447
-23851.620000	-31748.670000	-29069.730000	-15371.505000	0.000000	0.000000	0.000000	0.000000	5.068685	7.241677	3.949307	1.423760	-0.000000	0.000000	-0.000000	0.000000	-0.503580	-0.778260	0.579880	0.008667	0.981504	-0.009399	-1.000000	-1.000000	-1.000000	-1.000000	-1.000000	-1.000000	-1.000000	146.827586	0.000000	-1.000000	-1.000000	554639.000000	1772311769.126178
-23858.595000	-31726.755000	-29077.515000	-15381.495000	0.000000	0.000000	0.000000	0.000000	8.302657	-2.571797	3.710261	2.842147	-0.000000	0.000000	-0.000000	0.000000	-0.503580	-0.778260	0.579880	0.008667	0.981504	-0.009399	-1.000000	-1.000000	-1.000000	-1.000000	-1.000000	-1.000000	-1.000000	146.827586	0.000000	-1.000000	-1.000000	554640.000000	1772311769.126181
-23872.725000	-31687.065000	-29085.300000	-15385.410000	0.000000	0.000000	0.000000	0.000000	8.463533	-9.406589	2.067879	3.337434	-0.000000	0.000000	-0.000000	0.000000	-0.503580	-0.778260	0.579880	0.008667	0.981504	-0.009399	-1.000000	-1.000000	-1.000000	-1.000000	-1.000000	-1.000000	-1.000000	146.827586	0.000000	-1.000000	-1.000000	554641.000000	1772311769.132538
-23887.935000	-31602.105000	-29100.915000	-15395.895000	0.000000	0.000000	0.000000	0.000000	2.366648	-9.668234	-2.060993	0.672680	-0.000000	0.000000	-0.000000	0.000000	-0.503580	-0.778260	0.579880	0.008667	0.981504	-0.009399	-1.000000	-1.000000	-1.000000	-1.000000	-1.000000	-1.000000	-1.000000	146.827586	0.000000	-1.000000	-1.000000	554642.000000	1772311769.132541
-23868.495000	-31571.595000	-29088.990000	-15386.670000	0.000000	0.000000	0.000000	0.000000	-7.196391	-2.343297	-6.967081	-3.921813	-0.000000	0.000000	-0.000000	0.000000	-0.503580	-0.778260	0.579880	0.008667	0.981504	-0.009399	-1.000000	-1.000000	-1.000000	-1.000000	-1.000000	-1.000000	-1.000000	146.827586	0.000000	-1.000000	-1.000000	554643.000000	1772311769.139238
-23869.845000	-31559.040000	-29092.770000	-15392.385000	0.000000	0.000000	0.000000	0.000000	-13.393326	6.741916	-9.103154	-7.022345	-0.000000	0.000000	-0.000000	0.000000	-0.503580	-0.778260	0.579880	0.008667	0.981504	-0.009399	-1.000000	-1.000000	-1.000000	-1.000000	-1.000000	-1.000000	-1.000000	146.827586	0.000000	-1.000000	-1.000000	554644.000000	1772311769.139241
-23888.475000	-31555.215000	-29108.115000	-15403.770000	0.000000	0.000000	0.000000	0.000000	-12.482591	8.053893	-6.907407	-6.750864	-0.000000	0.000000	-0.000000	0.000000	-0.503580	-0.778260	0.579880	0.008667	0.981504	-0.009399	-1.000000	-1.000000	-1.000000	-1.000000	-1.000000	-1.000000	-1.000000	146.827586	0.000000	-1.000000	-1.000000	554645.000000	1772311769.139245
-23889.330000	-31566.690000	-29105.370000	-15395.805000	0.000000	0.000000	0.000000	0.000000	-7.052681	-2.137581	-2.478605	-4.033311	-0.000000	0.000000	-0.000000	0.000000	-0.503580	-0.778260	0.579880	0.008667	0.981504	-0.009399	-1.000000	-1.000000	-1.000000	-1.000000	-1.000000	-1.000000	-1.000000	146.827586	0.000000	-1.000000	-1.000000	554646.000000	1772311769.139247
-23878.620000	-31573.125000	-29093.445000	-15382.080000	0.000000	0.000000	0.000000	0.000000	-1.020303	-18.426371	1.879218	-0.036693	-0.000000	0.000000	-0.000000	0.000000	-0.503580	-0.778260	0.579880	0.008667	0.981504	-0.009399	-1.000000	-1.000000	-1.000000	-1.000000	-1.000000	-1.000000	-1.000000	146.827586	0.000000	-1.000000	-1.000000	554647.000000	1772311769.142292
-23880.240000	-31567.905000	-29096.145000	-15385.365000	0.000000	0.000000	0.000000	0.000000	4.207861	-30.754617	5.595904	4.543161	-0.000000	0.000000	-0.000000	0.000000	-0.503580	-0.778260	0.579880	0.008667	0.981504	-0.009399	-1.000000	-1.000000	-1.000000	-1.000000	-1.000000	-1.000000	-1.000000	146.827586	0.000000	-1.000000	-1.000000	554648.000000	1772311769.142294
-23886.045000	-31542.165000	-29102.850000	-15394.095000	0.000000	0.000000	0.000000	0.000000	7.807171	-30.624123	7.747047	7.633481	-0.000000	0.000000	-0.000000	0.000000	-0.640920	-0.366240	-0.366240	0.010254	0.981565	-0.008911	-1.000000	-1.000000	-1.000000	-1.000000	-1.000000	-1.000000	-1.000000	146.827586	0.000000	-1.000000	-1.000000	554649.000000	1772311769.147425
-23901.660000	-31531.320000	-29121.030000	-15412.140000	0.000000	0.000000	0.000000	0.000000	8.161663	-16.272780	6.547797	6.562939	-0.000000	0.000000	-0.000000	0.000000	-0.640920	-0.366240	-0.366240	0.010254	0.981565	-0.008911	-1.000000	-1.000000	-1.000000	-1.000000	-1.000000	-1.000000	-1.000000	146.827586	0.000000	-1.000000	-1.000000	554650.000000	1772311769.147428
-23889.105000	-31525.155000	-29109.060000	-15395.895000	0.000000	0.000000	0.000000	0.000000	4.982455	5.503536	1.979683	1.520152	-0.000000	0.000000	-0.000000	0.000000	-0.640920	-0.366240	-0.366240	0.010254	0.981565	-0.008911	-1.000000	-1.000000	-1.000000	-1.000000	-1.000000	-1.000000	-1.000000	146.827586	0.000000	-1.000000	-1.000000	554651.000000	1772311769.150882
-23889.465000	-31517.415000	-29107.305000	-15389.955000	0.000000	0.000000	0.000000	0.000000	0.839844	23.693381	-2.771535	-3.373994	-0.000000	0.000000	-0.000000	0.000000	-0.640920	-0.366240	-0.366240	0.010254	0.981565	-0.008911	-1.000000	-1.000000	-1.000000	-1.000000	-1.000000	-1.000000	-1.000000	146.827586	0.000000	-1.000000	-1.000000	554652.000000	1772311769.150886
-23885.055000	-31531.005000	-29103.390000	-15388.020000	0.000000	0.000000	0.000000	0.000000	-1.317009	30.301158	-4.289804	-4.251753	-0.000000	0.000000	-0.000000	0.000000	-0.640920	-0.366240	-0.366240	0.010254	0.981565	-0.008911	-1.000000	-1.000000	-1.000000	-1.000000	-1.000000	-1.000000	-1.000000	146.827586	0.000000	-1.000000	-1.000000	554653.000000	1772311769.161415
-23887.800000	-31534.920000	-29103.435000	-15389.775000	0.000000	0.000000	0.000000	0.000000	-1.101093	24.005745	-2.390925	-1.585718	-0.000000	0.000000	-0.000000	0.000000	-0.640920	-0.366240	-0.366240	0.010254	0.981565	-0.008911	-1.000000	-1.000000	-1.000000	-1.000000	-1.000000	-1.000000	-1.000000	146.827586	0.000000	-1.000000	-1.000000	554654.000000	1772311769.161419
-23903.865000	-31521.465000	-29118.915000	-15404.535000	0.000000	0.000000	0.000000	0.000000	-0.418602	10.086599	0.252537	1.094074	-0.000000	0.000000	-0.000000	0.000000	-0.640920	-0.366240	-0.366240	0.010254	0.981565	-0.008911	-1.000000	-1.000000	-1.000000	-1.000000	-1.000000	-1.000000	-1.000000	146.827586	0.000000	-1.000000	-1.000000	554655.000000	1772311769.161425
-23904.945000	-31512.870000	-29119.770000	-15405.210000	0.000000	0.000000	0.000000	0.000000	-1.212839	-2.768541	0.857352	1.031066	-0.000000	0.000000	-0.000000	0.000000	-0.640920	-0.366240	-0.366240	0.010254	0.981565	-0.008911	-1.000000	-1.000000	-1.000000	-1.000000	-1.000000	-1.000000	-1.000000	146.827586	0.000000	-1.000000	-1.000000	554656.000000	1772311769.161428
-23901.480000	-31500.765000	-29117.070000	-15398.910000	0.000000	0.000000	0.000000	0.000000	-3.081399	-8.456662	-0.720921	-1.183420	-0.000000	0.000000	-0.000000	0.000000	-0.640920	-0.366240	-0.366240	0.010254	0.981565	-0.008911	-1.000000	-1.000000	-1.000000	-1.000000	-1.000000	-1.000000	-1.000000	146.827586	0.000000	-1.000000	-1.000000	554657.000000	1772311769.162467
-23892.390000	-31456.035000	-29109.555000	-15389.820000	0.000000	0.000000	0.000000	0.000000	-3.566811	-6.176421	-2.042113	-2.483808	-0.000000	0.000000	-0.000000	0.000000	-0.640920	-0.366240	-0.366240	0.010254	0.981565	-0.008911	-1.000000	-1.000000	-1.000000	-1.000000	-1.000000	-1.000000	-1.000000	146.827586	0.000000	-1.000000	-1.000000	554658.000000	1772311769.162470
-23886.450000	-31411.170000	-29102.715000	-15382.890000	0.000000	0.000000	0.000000	0.000000	-1.165235	1.794281	-1.068962	-0.883318	-0.000000	0.000000	-0.000000	0.000000	-1.129240	0.473060	-0.808780	0.011536	0.982175	-0.009094	-1.000000	-1.000000	-1.000000	-1.000000	-1.000000	-1.000000	-1.000000	146.827586	0.000000	-1.000000	-1.000000	554659.000000	1772311769.169374
-23885.055000	-31408.200000	-29101.770000	-15382.170000	0.000000	0.000000	0.000000	0.000000	2.869515	10.753159	1.751986	2.526073	-0.000000	0.000000	-0.000000	0.000000	-1.129240	0.473060	-0.808780	0.011536	0.982175	-0.009094	-1.000000	-1.000000	-1.000000	-1.000000	-1.000000	-1.000000	-1.000000	146.827586	0.000000	-1.000000	-1.000000	554660.000000	1772311769.169377
-23890.950000	-31406.310000	-29111.175000	-15391.395000	0.000000	0.000000	0.000000	0.000000	5.544466	13.607845	3.930099	4.698643	-0.000000	0.000000	-0.000000	0.000000	-1.129240	0.473060	-0.808780	0.011536	0.982175	-0.009094	-1.000000	-1.000000	-1.000000	-1.000000	-1.000000	-1.000000	-1.000000	146.827586	0.000000	-1.000000	-1.000000	554661.000000	1772311769.188257
-23893.695000	-31402.440000	-29110.860000	-15389.235000	0.000000	0.000000	0.000000	0.000000	4.657129	6.193096	3.229332	3.453290	-0.000000	0.000000	-0.000000	0.000000	-1.129240	0.473060	-0.808780	0.011536	0.982175	-0.009094	-1.000000	-1.000000	-1.000000	-1.000000	-1.000000	-1.000000	-1.000000	146.827586	0.000000	-1.000000	-1.000000	554662.000000	1772311769.188260
-23884.920000	-31391.145000	-29096.910000	-15373.890000	0.000000	0.000000	0.000000	0.000000	0.857428	-7.752204	0.234133	-0.114322	-0.000000	0.000000	-0.000000	0.000000	-1.129240	0.473060	-0.808780	0.011536	0.982175	-0.009094	-1.000000	-1.000000	-1.000000	-1.000000	-1.000000	-1.000000	-1.000000	146.827586	0.000000	-1.000000	-1.000000	554663.000000	1772311769.188265
-23894.775000	-31359.690000	-29118.555000	-15397.245000	0.000000	0.000000	0.000000	0.000000	-3.084374	-19.192117	-2.569968	-3.149698	-0.000000	0.000000	-0.000000	0.000000	-1.129240	0.473060	-0.808780	0.011536	0.982175	-0.009094	-1.000000	-1.000000	-1.000000	-1.000000	-1.000000	-1.000000	-1.000000	146.827586	0.000000	-1.000000	-1.000000	554664.000000	1772311769.188267
-23907.015000	-31339.170000	-29131.920000	-15408.090000	0.000000	0.000000	0.000000	0.000000	-5.411189	-20.800360	-4.434719	-4.958375	-0.000000	0.000000	-0.000000	0.000000	-1.129240	0.473060	-0.808780	0.011536	0.982175	-0.009094	-1.000000	-1.000000	-1.000000	-1.000000	-1.000000	-1.000000	-1.000000	146.827586	0.000000	-1.000000	-1.000000	554665.000000	1772311769.188270
-23908.230000	-31327.155000	-29133.315000	-15407.865000	0.000000	0.000000	0.000000	0.000000	-6.208700	-12.420402	-5.940940	-6.238930	-0.000000	0.000000	-0.000000	0.000000	-1.129240	0.473060	-0.808780	0.011536	0.982175	-0.009094	-1.000000	-1.000000	-1.000000	-1.000000	-1.000000	-1.000000	-1.000000	146.827586	0.000000	-1.000000	-1.000000	554666.000000	1772311769.188273
-23906.745000	-31326.840000	-29130.165000	-15403.140000	0.000000	0.000000	0.000000	0.000000	-5.389088	-0.691471	-6.032702	-5.946460	-0.000000	0.000000	-0.000000	0.000000	-1.129240	0.473060	-0.808780	0.011536	0.982175	-0.009094	-1.000000	-1.000000	-1.000000	-1.000000	-1.000000	-1.000000	-1.000000	146.827586	0.000000	-1.000000	-1.000000	554667.000000	1772311769.188275
-23900.265000	-31338.225000	-29123.190000	-15397.695000	0.000000	0.000000	0.000000	0.000000	-2.378979	6.607021	-3.000098	-2.552318	-0.000000	0.000000	-0.000000	0.000000	-1.129240	0.473060	-0.808780	0.011536	0.982175	-0.009094	-1.000000	-1.000000	-1.000000	-1.000000	-1.000000	-1.000000	-1.000000	146.827586	0.000000	-1.000000	-1.000000	554668.000000	1772311769.188277
-23905.620000	-31323.870000	-29127.600000	-15396.525000	0.000000	0.000000	0.000000	0.000000	2.197749	6.401023	2.589466	3.139488	-0.000000	0.000000	-0.000000	0.000000	-1.342880	1.373400	-1.022420	0.011108	0.982786	-0.007385	-1.000000	-1.000000	-1.000000	-1.000000	-1.000000	-1.000000	-1.000000	146.827586	0.000000	-1.000000	-1.000000	554669.000000	1772311769.190897
-23900.715000	-31297.860000	-29122.020000	-15388.695000	0.000000	0.000000	0.000000	0.000000	6.161039	2.307722	7.753312	8.265925	-0.000000	0.000000	-0.000000	0.000000	-1.342880	1.373400	-1.022420	0.011108	0.982786	-0.007385	-1.000000	-1.000000	-1.000000	-1.000000	-1.000000	-1.000000	-1.000000	146.827586	0.000000	-1.000000	-1.000000	554670.000000	1772311769.190900
-23906.520000	-31289.445000	-29126.745000	-15391.620000	0.000000	0.000000	0.000000	0.000000	7.491771	0.293061	9.649327	10.201693	-0.000000	0.000000	-0.000000	0.000000	-1.342880	1.373400	-1.022420	0.011108	0.982786	-0.007385	-1.000000	-1.000000	-1.000000	-1.000000	-1.000000	-1.000000	-1.000000	146.827586	0.000000	-1.000000	-1.000000	554671.000000	1772311769.190904
-23913.765000	-31271.805000	-29127.150000	-15390.630000	0.000000	0.000000	0.000000	0.000000	5.604413	2.278554	7.506769	8.038719	-0.000000	0.000000	-0.000000	0.000000	-1.342880	1.373400	-1.022420	0.011108	0.982786	-0.007385	-1.000000	-1.000000	-1.000000	-1.000000	-1.000000	-1.000000	-1.000000	146.827586	0.000000	-1.000000	-1.000000	554672.000000	1772311769.190906
-23916.510000	-31259.520000	-29133.540000	-15399.495000	0.000000	0.000000	0.000000	0.000000	1.392780	5.695814	2.559323	2.703680	-0.000000	0.000000	-0.000000	0.000000	-1.342880	1.373400	-1.022420	0.011108	0.982786	-0.007385	-1.000000	-1.000000	-1.000000	-1.000000	-1.000000	-1.000000	-1.000000	146.827586	0.000000	-1.000000	-1.000000	554673.000000	1772311769.194455
-23916.195000	-31264.200000	-29137.545000	-15403.680000	0.000000	0.000000	0.000000	0.000000	-2.959583	7.037608	-2.934551	-3.642546	-0.000000	0.000000	-0.000000	0.000000	-1.342880	1.373400	-1.022420	0.011108	0.982786	-0.007385	-1.000000	-1.000000	-1.000000	-1.000000	-1.000000	-1.000000	-1.000000	146.827586	0.000000	-1.000000	-1.000000	554674.000000	1772311769.194458
-23908.770000	-31271.040000	-29130.390000	-15394.140000	0.000000	0.000000	0.000000	0.000000	-4.999899	4.100044	-6.610412	-8.243025	-0.000000	0.000000	-0.000000	0.000000	-1.342880	1.373400	-1.022420	0.011108	0.982786	-0.007385	-1.000000	-1.000000	-1.000000	-1.000000	-1.000000	-1.000000	-1.000000	146.827586	0.000000	-1.000000	-1.000000	554675.000000	1772311769.212172
-23909.445000	-31281.795000	-29129.490000	-15390.360000	0.000000	0.000000	0.000000	0.000000	-3.734861	-2.651716	-6.822344	-8.699993	-0.000000	0.000000	-0.000000	0.000000	-1.342880	1.373400	-1.022420	0.011108	0.982786	-0.007385	-1.000000	-1.000000	-1.000000	-1.000000	-1.000000	-1.000000	-1.000000	146.827586	0.000000	-1.000000	-1.000000	554676.000000	1772311769.212176
-23908.815000	-31272.570000	-29127.150000	-15386.490000	0.000000	0.000000	0.000000	0.000000	-0.481287	-9.637545	-3.802069	-4.872227	-0.000000	0.000000	-0.000000	0.000000	-1.342880	1.373400	-1.022420	0.011108	0.982786	-0.007385	-1.000000	-1.000000	-1.000000	-1.000000	-1.000000	-1.000000	-1.000000	146.827586	0.000000	-1.000000	-1.000000	554677.000000	1772311769.216216
-23908.410000	-31260.240000	-29128.905000	-15390.945000	0.000000	0.000000	0.000000	0.000000	2.317369	-12.019678	0.281958	0.541575	-0.000000	0.000000	-0.000000	0.000000	-1.342880	1.373400	-1.022420	0.011108	0.982786	-0.007385	-1.000000	-1.000000	-1.000000	-1.000000	-1.000000	-1.000000	-1.000000	146.827586	0.000000	-1.000000	-1.000000	554678.000000	1772311769.216219
-23923.395000	-31276.710000	-29143.845000	-15405.750000	0.000000	0.000000	0.000000	0.000000	2.857892	-7.886212	2.759543	3.875568	-0.000000	0.000000	-0.000000	0.000000	-1.831200	1.922760	-1.785420	0.011719	0.981321	-0.005981	-1.000000	-1.000000	-1.000000	-1.000000	-1.000000	-1.000000	-1.000000	146.827586	0.000000	-1.000000	-1.000000	554679.000000	1772311769.216223
-23915.655000	-31277.385000	-29133.045000	-15388.785000	0.000000	0.000000	0.000000	0.000000	0.917360	-0.557279	2.366755	3.508152	-0.000000	0.000000	-0.000000	0.000000	-1.831200	1.922760	-1.785420	0.011719	0.981321	-0.005981	-1.000000	-1.000000	-1.000000	-1.000000	-1.000000	-1.000000	-1.000000	146.827586	0.000000	-1.000000	-1.000000	554680.000000	1772311769.216226
-23912.100000	-31277.115000	-29128.455000	-15381.090000	0.000000	0.000000	0.000000	0.000000	-1.638400	5.229920	0.598730	1.538454	-0.000000	0.000000	-0.000000	0.000000	-1.831200	1.922760	-1.785420	0.011719	0.981321	-0.005981	-1.000000	-1.000000	-1.000000	-1.000000	-1.000000	-1.000000	-1.000000	146.827586	0.000000	-1.000000	-1.000000	554681.000000	1772311769.216229
-23926.365000	-31265.415000	-29141.145000	-15389.370000	0.000000	0.000000	0.000000	0.000000	-2.684936	7.897425	-0.350079	0.727435	-0.000000	0.000000	-0.000000	0.000000	-1.831200	1.922760	-1.785420	0.011719	0.981321	-0.005981	-1.000000	-1.000000	-1.000000	-1.000000	-1.000000	-1.000000	-1.000000	146.827586	0.000000	-1.000000	-1.000000	554682.000000	1772311769.216232
-23949.405000	-31257.180000	-29158.965000	-15408.360000	0.000000	0.000000	0.000000	0.000000	-2.722642	8.595661	-0.802081	0.509356	-0.000000	0.000000	-0.000000	0.000000	-1.831200	1.922760	-1.785420	0.011719	0.981321	-0.005981	-1.000000	-1.000000	-1.000000	-1.000000	-1.000000	-1.000000	-1.000000	146.827586	0.000000	-1.000000	-1.000000	554683.000000	1772311769.216236
-23947.920000	-31212.090000	-29148.750000	-15401.520000	0.000000	0.000000	0.000000	0.000000	-3.360407	9.090323	-1.953203	-1.056121	-0.000000	0.000000	-0.000000	0.000000	-1.831200	1.922760	-1.785420	0.011719	0.981321	-0.005981	-1.000000	-1.000000	-1.000000	-1.000000	-1.000000	-1.000000	-1.000000	146.827586	0.000000	-1.000000	-1.000000	554684.000000	1772311769.216238
-23932.305000	-31165.695000	-29143.620000	-15395.265000	0.000000	0.000000	0.000000	0.000000	-3.521116	10.982884	-2.588901	-3.083554	0.000000	0.000000	-0.000000	0.000000	-1.831200	1.922760	-1.785420	0.011719	0.981321	-0.005981	-1.000000	-1.000000	-1.000000	-1.000000	-1.000000	-1.000000	-1.000000	146.827586	0.000000	-1.000000	-1.000000	554685.000000	1772311769.218525
-23926.455000	-31140.990000	-29146.230000	-15398.595000	0.000000	0.000000	0.000000	0.000000	-0.545832	13.846299	-0.878123	-3.046071	0.000000	0.000000	-0.000000	0.000000	-1.831200	1.922760	-1.785420	0.011719	0.981321	-0.005981	-1.000000	-1.000000	-1.000000	-1.000000	-1.000000	-1.000000	-1.000000	146.827586	0.000000	-1.000000	-1.000000	554686.000000	1772311769.218527
-23928.210000	-31136.715000	-29152.890000	-15410.250000	0.000000	0.000000	0.000000	0.000000	5.145298	13.530099	2.218910	-0.887544	0.000000	0.000000	-0.000000	0.000000	-1.831200	1.922760	-1.785420	0.011719	0.981321	-0.005981	-1.000000	-1.000000	-1.000000	-1.000000	-1.000000	-1.000000	-1.000000	146.827586	0.000000	-1.000000	-1.000000	554687.000000	1772311769.222508
-23929.560000	-31130.145000	-29146.050000	-15402.195000	0.000000	0.000000	0.000000	0.000000	9.541974	5.674622	4.186937	1.251479	0.000000	0.000000	-0.000000	0.000000	-1.831200	1.922760	-1.785420	0.011719	0.981321	-0.005981	-1.000000	-1.000000	-1.000000	-1.000000	-1.000000	-1.000000	-1.000000	146.827586	0.000000	-1.000000	-1.000000	554688.000000	1772311769.222511
-23948.145000	-31124.160000	-29162.025000	-15407.100000	0.000000	0.000000	0.000000	0.000000	8.962760	-8.623206	3.817094	2.250035	0.000000	0.000000	-0.000000	0.000000	-1.876980	2.121140	-2.578940	0.011291	0.981809	-0.004517	-1.000000	-1.000000	-1.000000	-1.000000	-1.000000	-1.000000	-1.000000	146.827586	0.000000	-1.000000	-1.000000	554689.000000	1772311769.226532
-23940.270000	-31120.020000	-29154.870000	-15400.215000	0.000000	0.000000	0.000000	0.000000	3.263862	-22.682641	1.509845	2.480389	0.000000	0.000000	-0.000000	0.000000	-1.876980	2.121140	-2.578940	0.011291	0.981809	-0.004517	-1.000000	-1.000000	-1.000000	-1.000000	-1.000000	-1.000000	-1.000000	146.827586	0.000000	-1.000000	-1.000000	554690.000000	1772311769.226534
-23909.265000	-31124.385000	-29127.870000	-15372.495000	0.000000	0.000000	0.000000	0.000000	-3.224592	-29.645337	-0.658790	2.949558	0.000000	0.000000	-0.000000	0.000000	-1.876980	2.121140	-2.578940	0.011291	0.981809	-0.004517	-1.000000	-1.000000	-1.000000	-1.000000	-1.000000	-1.000000	-1.000000	146.827586	0.000000	-1.000000	-1.000000	554691.000000	1772311769.234716
-23897.790000	-31115.115000	-29114.235000	-15358.050000	0.000000	0.000000	0.000000	0.000000	-4.953032	-26.859161	0.094869	4.730599	0.000000	0.000000	-0.000000	0.000000	-1.876980	2.121140	-2.578940	0.011291	0.981809	-0.004517	-1.000000	-1.000000	-1.000000	-1.000000	-1.000000	-1.000000	-1.000000	146.827586	0.000000	-1.000000	-1.000000	554692.000000	1772311769.234719
-23943.555000	-31051.575000	-29157.795000	-15401.880000	0.000000	0.000000	0.000000	0.000000	-2.147162	-14.965006	2.706719	6.105929	0.000000	0.000000	-0.000000	0.000000	-1.876980	2.121140	-2.578940	0.011291	0.981809	-0.004517	-1.000000	-1.000000	-1.000000	-1.000000	-1.000000	-1.000000	-1.000000	146.827586	0.000000	-1.000000	-1.000000	554693.000000	1772311769.234724
-23971.185000	-31018.230000	-29183.580000	-15425.910000	0.000000	0.000000	0.000000	0.000000	-1.527458	3.759262	1.514220	2.265061	0.000000	0.000000	-0.000000	0.000000	-1.876980	2.121140	-2.578940	0.011291	0.981809	-0.004517	-1.000000	-1.000000	-1.000000	-1.000000	-1.000000	-1.000000	-1.000000	146.827586	0.000000	-1.000000	-1.000000	554694.000000	1772311769.234726
-23964.165000	-30989.655000	-29174.130000	-15417.270000	0.000000	0.000000	0.000000	0.000000	-6.560102	23.045848	-5.547624	-7.384806	0.000000	0.000000	-0.000000	0.000000	-1.876980	2.121140	-2.578940	0.011291	0.981809	-0.004517	-1.000000	-1.000000	-1.000000	-1.000000	-1.000000	-1.000000	-1.000000	146.827586	0.000000	-1.000000	-1.000000	554695.000000	1772311769.241540
-23962.590000	-30981.510000	-29171.295000	-15420.915000	0.000000	0.000000	0.000000	0.000000	-11.764298	33.207989	-12.223553	-15.626897	0.000000	0.000000	-0.000000	0.000000	-1.876980	2.121140	-2.578940	0.011291	0.981809	-0.004517	-1.000000	-1.000000	-1.000000	-1.000000	-1.000000	-1.000000	-1.000000	146.827586	0.000000	-1.000000	-1.000000	554696.000000	1772311769.241543
-23957.145000	-30956.940000	-29161.980000	-15411.465000	0.000000	0.000000	0.000000	0.000000	-10.106665	28.394783	-11.323038	-15.185853	0.000000	0.000000	-0.000000	0.000000	-1.876980	2.121140	-2.578940	0.011291	0.981809	-0.004517	-1.000000	-1.000000	-1.000000	-1.000000	-1.000000	-1.000000	-1.000000	146.827586	0.000000	-1.000000	-1.000000	554697.000000	1772311769.242586
-23961.825000	-30939.525000	-29162.610000	-15398.235000	0.000000	0.000000	0.000000	0.000000	-1.280254	11.784109	-2.625600	-5.686681	0.000000	0.000000	-0.000000	0.000000	-1.876980	2.121140	-2.578940	0.011291	0.981809	-0.004517	-1.000000	-1.000000	-1.000000	-1.000000	-1.000000	-1.000000	-1.000000	146.827586	0.000000	-1.000000	-1.000000	554698.000000	1772311769.242590
-23962.590000	-30929.175000	-29164.680000	-15398.010000	0.000000	0.000000	0.000000	0.000000	9.010075	-7.481527	7.920639	7.350837	0.000000	0.000000	-0.000000	0.000000	0.869820	2.029580	-1.999060	0.007874	0.980771	0.001465	-1.000000	-1.000000	-1.000000	-1.000000	-1.000000	-1.000000	-1.000000	146.827586	0.000000	-1.000000	-1.000000	554699.000000	1772311769.246648
-23949.630000	-30928.995000	-29149.965000	-15389.865000	0.000000	0.000000	0.000000	0.000000	15.024752	-21.375529	14.113262	16.755247	0.000000	0.000000	-0.000000	0.000000	0.869820	2.029580	-1.999060	0.007874	0.980771	0.001465	-1.000000	-1.000000	-1.000000	-1.000000	-1.000000	-1.000000	-1.000000	146.827586	0.000000	-1.000000	-1.000000	554700.000000	1772311769.246651
-23957.460000	-30921.615000	-29153.745000	-15392.340000	0.000000	0.000000	0.000000	0.000000	14.878725	-26.540491	13.869058	18.079968	0.000000	0.000000	-0.000000	0.000000	0.869820	2.029580	-1.999060	0.007874	0.980771	0.001465	-1.000000	-1.000000	-1.000000	-1.000000	-1.000000	-1.000000	-1.000000	146.827586	0.000000	-1.000000	-1.000000	554701.000000	1772311769.250635
-23967.495000	-30915.810000	-29160.990000	-15396.345000	0.000000	0.000000	0.000000	0.000000	9.452815	-23.294324	8.428097	11.548567	0.000000	0.000000	-0.000000	0.000000	0.869820	2.029580	-1.999060	0.007874	0.980771	0.001465	-1.000000	-1.000000	-1.000000	-1.000000	-1.000000	-1.000000	-1.000000	146.827586	0.000000	-1.000000	-1.000000	554702.000000	1772311769.250638
-23970.465000	-30897.900000	-29158.290000	-15390.855000	0.000000	0.000000	0.000000	0.000000	0.868735	-13.839869	0.289279	1.010971	0.000000	0.000000	-0.000000	0.000000	0.869820	2.029580	-1.999060	0.007874	0.980771	0.001465	-1.000000	-1.000000	-1.000000	-1.000000	-1.000000	-1.000000	-1.000000	146.827586	0.000000	-1.000000	-1.000000	554703.000000	1772311769.254670
-23986.440000	-30885.930000	-29173.770000	-15403.275000	0.000000	0.000000	0.000000	0.000000	-7.582257	-1.413375	-7.363425	-8.490202	0.000000	0.000000	-0.000000	0.000000	0.869820	2.029580	-1.999060	0.007874	0.980771	0.001465	-1.000000	-1.000000	-1.000000	-1.000000	-1.000000	-1.000000	-1.000000	146.827586	0.000000	-1.000000	-1.000000	554704.000000	1772311769.254673
-23986.215000	-30878.010000	-29173.140000	-15406.470000	0.000000	0.000000	0.000000	0.000000	-12.690597	9.977125	-11.901662	-13.651532	0.000000	0.000000	-0.000000	0.000000	0.869820	2.029580	-1.999060	0.007874	0.980771	0.001465	-1.000000	-1.000000	-1.000000	-1.000000	-1.000000	-1.000000	-1.000000	146.827586	0.000000	-1.000000	-1.000000	554705.000000	1772311769.262616
-23988.105000	-30871.980000	-29178.540000	-15413.760000	0.000000	0.000000	0.000000	0.000000	-12.644766	16.486394	-12.119485	-13.838955	0.000000	0.000000	-0.000000	0.000000	0.869820	2.029580	-1.999060	0.007874	0.980771	0.001465	-1.000000	-1.000000	-1.000000	-1.000000	-1.000000	-1.000000	-1.000000	146.827586	0.000000	-1.000000	-1.000000	554706.000000	1772311769.262619
-23997.060000	-30861.495000	-29185.380000	-15419.925000	0.000000	0.000000	0.000000	0.000000	-7.813635	16.453468	-8.368239	-10.073138	0.000000	0.000000	-0.000000	0.000000	0.869820	2.029580	-1.999060	0.007874	0.980771	0.001465	-1.000000	-1.000000	-1.000000	-1.000000	-1.000000	-1.000000	-1.000000	146.827586	0.000000	-1.000000	-1.000000	554707.000000	1772311769.270116
-23996.610000	-30855.420000	-29182.860000	-15413.715000	0.000000	0.000000	0.000000	0.000000	-0.882697	11.334813	-2.491385	-4.041402	0.000000	0.000000	-0.000000	0.000000	0.869820	2.029580	-1.999060	0.007874	0.980771	0.001465	-1.000000	-1.000000	-1.000000	-1.000000	-1.000000	-1.000000	-1.000000	146.827586	0.000000	-1.000000	-1.000000	554708.000000	1772311769.270119
-23982.120000	-30850.290000	-29166.930000	-15397.650000	0.000000	0.000000	0.000000	0.000000	5.348124	4.239977	3.661715	2.902988	0.000000	0.000000	-0.000000	0.000000	2.670500	1.037680	-1.785420	0.006042	0.980039	0.003357	-1.000000	-1.000000	-1.000000	-1.000000	-1.000000	-1.000000	-1.000000	146.827586	0.000000	-1.000000	-1.000000	554709.000000	1772311769.271744
-23987.790000	-30839.580000	-29172.375000	-15402.555000	0.000000	0.000000	0.000000	0.000000	9.523322	-1.937466	8.841368	9.376776	0.000000	0.000000	-0.000000	0.000000	2.670500	1.037680	-1.785420	0.006042	0.980039	0.003357	-1.000000	-1.000000	-1.000000	-1.000000	-1.000000	-1.000000	-1.000000	146.827586	0.000000	-1.000000	-1.000000	554710.000000	1772311769.271747
-23985.990000	-30861.540000	-29167.695000	-15394.770000	0.000000	0.000000	0.000000	0.000000	10.620442	-5.857473	11.326239	12.977064	0.000000	0.000000	-0.000000	0.000000	2.670500	1.037680	-1.785420	0.006042	0.980039	0.003357	-1.000000	-1.000000	-1.000000	-1.000000	-1.000000	-1.000000	-1.000000	146.827586	0.000000	-1.000000	-1.000000	554711.000000	1772311769.271751
-23994.045000	-30880.665000	-29174.355000	-15399.405000	0.000000	0.000000	0.000000	0.000000	7.896568	-8.443240	9.644659	11.777866	0.000000	0.000000	-0.000000	0.000000	2.670500	1.037680	-1.785420	0.006042	0.980039	0.003357	-1.000000	-1.000000	-1.000000	-1.000000	-1.000000	-1.000000	-1.000000	146.827586	0.000000	-1.000000	-1.000000	554712.000000	1772311769.271754
-23994.720000	-30888.540000	-29173.815000	-15397.740000	0.000000	0.000000	0.000000	0.000000	2.233355	-10.691903	4.313598	6.254116	0.000000	0.000000	-0.000000	0.000000	2.670500	1.037680	-1.785420	0.006042	0.980039	0.003357	-1.000000	-1.000000	-1.000000	-1.000000	-1.000000	-1.000000	-1.000000	146.827586	0.000000	-1.000000	-1.000000	554713.000000	1772311769.274761
-23993.190000	-30889.620000	-29169.180000	-15395.355000	0.000000	0.000000	0.000000	0.000000	-3.782781	-11.009636	-2.084846	-0.956076	0.000000	0.000000	-0.000000	0.000000	2.670500	1.037680	-1.785420	0.006042	0.980039	0.003357	-1.000000	-1.000000	-1.000000	-1.000000	-1.000000	-1.000000	-1.000000	146.827586	0.000000	-1.000000	-1.000000	554714.000000	1772311769.274765
-23997.870000	-30877.290000	-29173.230000	-15398.550000	0.000000	0.000000	0.000000	0.000000	-7.420287	-6.766524	-6.528989	-6.688170	0.000000	0.000000	-0.000000	0.000000	2.670500	1.037680	-1.785420	0.006042	0.980039	0.003357	-1.000000	-1.000000	-1.000000	-1.000000	-1.000000	-1.000000	-1.000000	146.827586	0.000000	-1.000000	-1.000000	554715.000000	1772311769.281189
-23993.955000	-30862.530000	-29172.195000	-15400.080000	0.000000	0.000000	0.000000	0.000000	-7.584881	2.357788	-7.661159	-9.159375	0.000000	0.000000	-0.000000	0.000000	2.670500	1.037680	-1.785420	0.006042	0.980039	0.003357	-1.000000	-1.000000	-1.000000	-1.000000	-1.000000	-1.000000	-1.000000	146.827586	0.000000	-1.000000	-1.000000	554716.000000	1772311769.281192
-23994.675000	-30862.215000	-29172.915000	-15401.655000	0.000000	0.000000	0.000000	0.000000	-4.964538	12.952989	-6.084222	-8.441716	0.000000	0.000000	-0.000000	0.000000	2.670500	1.037680	-1.785420	0.006042	0.980039	0.003357	-1.000000	-1.000000	-1.000000	-1.000000	-1.000000	-1.000000	-1.000000	146.827586	0.000000	-1.000000	-1.000000	554717.000000	1772311769.284981
-23996.295000	-30837.690000	-29172.420000	-15396.930000	0.000000	0.000000	0.000000	0.000000	-1.214460	19.790136	-3.149720	-5.479635	0.000000	0.000000	-0.000000	0.000000	2.670500	1.037680	-1.785420	0.006042	0.980039	0.003357	-1.000000	-1.000000	-1.000000	-1.000000	-1.000000	-1.000000	-1.000000	146.827586	0.000000	-1.000000	-1.000000	554718.000000	1772311769.284984
-24004.395000	-30818.700000	-29178.180000	-15397.515000	0.000000	0.000000	0.000000	0.000000	1.693733	20.059730	-0.259459	-1.414160	0.000000	0.000000	-0.000000	0.000000	3.494540	1.312360	-2.914660	0.007568	0.981138	0.002014	-1.000000	-1.000000	-1.000000	-1.000000	-1.000000	-1.000000	-1.000000	146.827586	0.000000	-1.000000	-1.000000	554719.000000	1772311769.292667
-24005.385000	-30827.205000	-29180.070000	-15399.630000	0.000000	0.000000	0.000000	0.000000	2.506905	14.245061	1.485412	2.342535	0.000000	0.000000	-0.000000	0.000000	3.494540	1.312360	-2.914660	0.007568	0.981138	0.002014	-1.000000	-1.000000	-1.000000	-1.000000	-1.000000	-1.000000	-1.000000	146.827586	0.000000	-1.000000	-1.000000	554720.000000	1772311769.292670
-24009.795000	-30825.855000	-29177.505000	-15393.915000	0.000000	0.000000	0.000000	0.000000	1.540986	3.831800	1.911274	4.516807	0.000000	0.000000	-0.000000	0.000000	3.494540	1.312360	-2.914660	0.007568	0.981138	0.002014	-1.000000	-1.000000	-1.000000	-1.000000	-1.000000	-1.000000	-1.000000	146.827586	0.000000	-1.000000	-1.000000	554721.000000	1772311769.292674
-24021.630000	-30825.900000	-29189.340000	-15408.990000	0.000000	0.000000	0.000000	0.000000	-0.040141	-8.374649	1.590912	4.587160	0.000000	0.000000	-0.000000	0.000000	3.494540	1.312360	-2.914660	0.007568	0.981138	0.002014	-1.000000	-1.000000	-1.000000	-1.000000	-1.000000	-1.000000	-1.000000	146.827586	0.000000	-1.000000	-1.000000	554722.000000	1772311769.292676
-24028.875000	-30827.340000	-29196.990000	-15419.880000	0.000000	0.000000	0.000000	0.000000	-1.483541	-17.833411	0.733949	2.431963	0.000000	0.000000	-0.000000	0.000000	3.494540	1.312360	-2.914660	0.007568	0.981138	0.002014	-1.000000	-1.000000	-1.000000	-1.000000	-1.000000	-1.000000	-1.000000	146.827586	0.000000	-1.000000	-1.000000	554723.000000	1772311769.294732
-23995.935000	-30820.320000	-29163.330000	-15381.405000	0.000000	0.000000	0.000000	0.000000	-1.641440	-20.800115	0.071229	-0.511895	0.000000	0.000000	-0.000000	0.000000	3.494540	1.312360	-2.914660	0.007568	0.981138	0.002014	-1.000000	-1.000000	-1.000000	-1.000000	-1.000000	-1.000000	-1.000000	146.827586	0.000000	-1.000000	-1.000000	554724.000000	1772311769.294735
-23978.520000	-30788.280000	-29146.230000	-15359.850000	0.000000	0.000000	0.000000	0.000000	1.508934	-15.969560	1.837224	-0.429461	0.000000	0.000000	-0.000000	0.000000	3.494540	1.312360	-2.914660	0.007568	0.981138	0.002014	-1.000000	-1.000000	-1.000000	-1.000000	-1.000000	-1.000000	-1.000000	146.827586	0.000000	-1.000000	-1.000000	554725.000000	1772311769.298773
-24022.035000	-30771.000000	-29191.230000	-15403.635000	0.000000	0.000000	0.000000	0.000000	6.609036	-4.703940	5.414663	3.231889	0.000000	0.000000	-0.000000	0.000000	3.494540	1.312360	-2.914660	0.007568	0.981138	0.002014	-1.000000	-1.000000	-1.000000	-1.000000	-1.000000	-1.000000	-1.000000	146.827586	0.000000	-1.000000	-1.000000	554726.000000	1772311769.298776
-24023.025000	-30765.555000	-29189.880000	-15403.680000	0.000000	0.000000	0.000000	0.000000	7.593780	8.118720	5.456015	4.680156	0.000000	0.000000	-0.000000	0.000000	3.494540	1.312360	-2.914660	0.007568	0.981138	0.002014	-1.000000	-1.000000	-1.000000	-1.000000	-1.000000	-1.000000	-1.000000	146.827586	0.000000	-1.000000	-1.000000	554727.000000	1772311769.302723
-23997.645000	-30751.740000	-29161.845000	-15377.445000	0.000000	0.000000	0.000000	0.000000	2.276769	15.872003	0.242416	0.735381	0.000000	0.000000	-0.000000	0.000000	3.494540	1.312360	-2.914660	0.007568	0.981138	0.002014	-1.000000	-1.000000	-1.000000	-1.000000	-1.000000	-1.000000	-1.000000	146.827586	0.000000	-1.000000	-1.000000	554728.000000	1772311769.302726
-23988.600000	-30745.755000	-29153.070000	-15368.445000	0.000000	0.000000	0.000000	0.000000	-3.569429	15.128051	-4.488702	-3.814151	0.000000	0.000000	-0.000000	0.000000	2.838360	0.259420	-1.159760	0.003601	0.982908	-0.000610	-1.000000	-1.000000	-1.000000	-1.000000	-1.000000	-1.000000	-1.000000	146.827586	0.000000	-1.000000	-1.000000	554729.000000	1772311769.306827
-24023.880000	-30748.995000	-29189.520000	-15403.005000	0.000000	0.000000	0.000000	0.000000	-5.278576	7.445990	-4.804211	-4.763533	0.000000	0.000000	-0.000000	0.000000	2.838360	0.259420	-1.159760	0.003601	0.982908	-0.000610	-1.000000	-1.000000	-1.000000	-1.000000	-1.000000	-1.000000	-1.000000	146.827586	0.000000	-1.000000	-1.000000	554730.000000	1772311769.306829
-24053.940000	-30742.335000	-29221.155000	-15431.490000	0.000000	0.000000	0.000000	0.000000	-5.483057	-2.859949	-4.257697	-4.717245	0.000000	0.000000	-0.000000	0.000000	2.838360	0.259420	-1.159760	0.003601	0.982908	-0.000610	-1.000000	-1.000000	-1.000000	-1.000000	-1.000000	-1.000000	-1.000000	146.827586	0.000000	-1.000000	-1.000000	554731.000000	1772311769.310775
-24032.700000	-30750.705000	-29199.420000	-15407.325000	0.000000	0.000000	0.000000	0.000000	-7.301401	-11.165425	-6.279192	-6.474850	0.000000	0.000000	-0.000000	0.000000	2.838360	0.259420	-1.159760	0.003601	0.982908	-0.000610	-1.000000	-1.000000	-1.000000	-1.000000	-1.000000	-1.000000	-1.000000	146.827586	0.000000	-1.000000	-1.000000	554732.000000	1772311769.310778
-24020.505000	-30766.275000	-29187.990000	-15396.570000	0.000000	0.000000	0.000000	0.000000	-7.619456	-14.871278	-7.311815	-6.707763	0.000000	0.000000	-0.000000	0.000000	2.838360	0.259420	-1.159760	0.003601	0.982908	-0.000610	-1.000000	-1.000000	-1.000000	-1.000000	-1.000000	-1.000000	-1.000000	146.827586	0.000000	-1.000000	-1.000000	554733.000000	1772311769.325404
-24022.395000	-30779.865000	-29187.450000	-15394.590000	0.000000	0.000000	0.000000	0.000000	-2.444478	-14.242425	-2.681515	-1.515020	0.000000	0.000000	-0.000000	0.000000	2.838360	0.259420	-1.159760	0.003601	0.982908	-0.000610	-1.000000	-1.000000	-1.000000	-1.000000	-1.000000	-1.000000	-1.000000	146.827586	0.000000	-1.000000	-1.000000	554734.000000	1772311769.325406
-24010.605000	-30773.655000	-29175.210000	-15381.045000	0.000000	0.000000	0.000000	0.000000	6.202737	-10.296361	5.992639	7.007976	0.000000	0.000000	-0.000000	0.000000	2.838360	0.259420	-1.159760	0.003601	0.982908	-0.000610	-1.000000	-1.000000	-1.000000	-1.000000	-1.000000	-1.000000	-1.000000	146.827586	0.000000	-1.000000	-1.000000	554735.000000	1772311769.325410
-24006.555000	-30781.845000	-29170.035000	-15376.095000	0.000000	0.000000	0.000000	0.000000	12.899360	-3.490421	13.188065	13.503695	0.000000	0.000000	-0.000000	0.000000	2.838360	0.259420	-1.159760	0.003601	0.982908	-0.000610	-1.000000	-1.000000	-1.000000	-1.000000	-1.000000	-1.000000	-1.000000	146.827586	0.000000	-1.000000	-1.000000	554736.000000	1772311769.325412
-24033.510000	-30798.765000	-29196.225000	-15401.340000	0.000000	0.000000	0.000000	0.000000	13.507801	4.449660	14.316360	13.816258	0.000000	0.000000	-0.000000	0.000000	2.838360	0.259420	-1.159760	0.003601	0.982908	-0.000610	-1.000000	-1.000000	-1.000000	-1.000000	-1.000000	-1.000000	-1.000000	146.827586	0.000000	-1.000000	-1.000000	554737.000000	1772311769.325415
-24047.640000	-30796.110000	-29206.800000	-15411.960000	0.000000	0.000000	0.000000	0.000000	6.648868	10.321630	7.656218	6.590552	0.000000	0.000000	-0.000000	0.000000	2.838360	0.259420	-1.159760	0.003601	0.982908	-0.000610	-1.000000	-1.000000	-1.000000	-1.000000	-1.000000	-1.000000	-1.000000	146.827586	0.000000	-1.000000	-1.000000	554738.000000	1772311769.325417
-24035.760000	-30787.830000	-29192.895000	-15399.090000	0.000000	0.000000	0.000000	0.000000	-4.349110	12.692244	-3.450592	-4.672206	0.000000	0.000000	-0.000000	0.000000	1.617560	-0.381500	-0.335720	0.002869	0.984678	-0.002563	-1.000000	-1.000000	-1.000000	-1.000000	-1.000000	-1.000000	-1.000000	146.827586	0.000000	-1.000000	-1.000000	554739.000000	1772311769.327546
-24043.320000	-30784.455000	-29201.310000	-15410.070000	0.000000	0.000000	0.000000	0.000000	-12.364379	12.655571	-11.792657	-12.880016	0.000000	0.000000	-0.000000	0.000000	1.617560	-0.381500	-0.335720	0.002869	0.984678	-0.002563	-1.000000	-1.000000	-1.000000	-1.000000	-1.000000	-1.000000	-1.000000	146.827586	0.000000	-1.000000	-1.000000	554740.000000	1772311769.327549
-24046.245000	-30760.245000	-29204.505000	-15413.805000	0.000000	0.000000	0.000000	0.000000	-12.871953	11.534989	-12.922540	-13.794587	0.000000	0.000000	-0.000000	0.000000	1.617560	-0.381500	-0.335720	0.002869	0.984678	-0.002563	-1.000000	-1.000000	-1.000000	-1.000000	-1.000000	-1.000000	-1.000000	146.827586	0.000000	-1.000000	-1.000000	554741.000000	1772311769.330839
-24036.930000	-30745.620000	-29195.775000	-15399.630000	0.000000	0.000000	0.000000	0.000000	-7.057522	9.974463	-7.996592	-8.477856	0.000000	0.000000	-0.000000	0.000000	1.617560	-0.381500	-0.335720	0.002869	0.984678	-0.002563	-1.000000	-1.000000	-1.000000	-1.000000	-1.000000	-1.000000	-1.000000	146.827586	0.000000	-1.000000	-1.000000	554742.000000	1772311769.330842
-24034.905000	-30752.370000	-29191.815000	-15385.005000	0.000000	0.000000	0.000000	0.000000	1.214348	7.398991	-0.483789	0.089079	0.000000	0.000000	-0.000000	0.000000	1.617560	-0.381500	-0.335720	0.002869	0.984678	-0.002563	-1.000000	-1.000000	-1.000000	-1.000000	-1.000000	-1.000000	-1.000000	146.827586	0.000000	-1.000000	-1.000000	554743.000000	1772311769.336301
-24046.290000	-30758.670000	-29199.960000	-15388.335000	0.000000	0.000000	0.000000	0.000000	7.815256	1.990327	6.042835	8.491544	0.000000	0.000000	-0.000000	0.000000	1.617560	-0.381500	-0.335720	0.002869	0.984678	-0.002563	-1.000000	-1.000000	-1.000000	-1.000000	-1.000000	-1.000000	-1.000000	146.827586	0.000000	-1.000000	-1.000000	554744.000000	1772311769.336304
-24055.110000	-30751.965000	-29206.260000	-15398.145000	0.000000	0.000000	0.000000	0.000000	9.429447	-6.289393	8.505941	12.560114	0.000000	0.000000	-0.000000	0.000000	1.617560	-0.381500	-0.335720	0.002869	0.984678	-0.002563	-1.000000	-1.000000	-1.000000	-1.000000	-1.000000	-1.000000	-1.000000	146.827586	0.000000	-1.000000	-1.000000	554745.000000	1772311769.342305
-24054.660000	-30725.685000	-29205.810000	-15401.970000	0.000000	0.000000	0.000000	0.000000	5.748190	-13.406351	6.162785	9.759525	0.000000	0.000000	-0.000000	0.000000	1.617560	-0.381500	-0.335720	0.002869	0.984678	-0.002563	-1.000000	-1.000000	-1.000000	-1.000000	-1.000000	-1.000000	-1.000000	146.827586	0.000000	-1.000000	-1.000000	554746.000000	1772311769.342307
-24053.445000	-30698.685000	-29206.350000	-15405.120000	0.000000	0.000000	0.000000	0.000000	0.061768	-14.135003	1.396839	1.936910	0.000000	0.000000	-0.000000	0.000000	1.617560	-0.381500	-0.335720	0.002869	0.984678	-0.002563	-1.000000	-1.000000	-1.000000	-1.000000	-1.000000	-1.000000	-1.000000	146.827586	0.000000	-1.000000	-1.000000	554747.000000	1772311769.342957
-24047.235000	-30688.065000	-29204.370000	-15401.970000	0.000000	0.000000	0.000000	0.000000	-3.576140	-7.515521	-2.447328	-5.909189	0.000000	0.000000	-0.000000	0.000000	1.617560	-0.381500	-0.335720	0.002869	0.984678	-0.002563	-1.000000	-1.000000	-1.000000	-1.000000	-1.000000	-1.000000	-1.000000	146.827586	0.000000	-1.000000	-1.000000	554748.000000	1772311769.342959
-24036.435000	-30696.120000	-29196.540000	-15391.890000	0.000000	0.000000	0.000000	0.000000	-3.287879	1.235679	-3.450012	-9.295037	0.000000	0.000000	-0.000000	0.000000	0.213640	-0.015260	-0.244160	0.004395	0.985898	-0.003052	-1.000000	-1.000000	-1.000000	-1.000000	-1.000000	-1.000000	-1.000000	146.827586	0.000000	-1.000000	-1.000000	554749.000000	1772311769.348854
-24045.930000	-30689.865000	-29202.435000	-15399.045000	0.000000	0.000000	0.000000	0.000000	-0.253197	5.341409	-1.862435	-7.096824	0.000000	0.000000	-0.000000	0.000000	0.213640	-0.015260	-0.244160	0.004395	0.985898	-0.003052	-1.000000	-1.000000	-1.000000	-1.000000	-1.000000	-1.000000	-1.000000	146.827586	0.000000	-1.000000	-1.000000	554750.000000	1772311769.348858
-24052.725000	-30682.620000	-29204.640000	-15396.615000	0.000000	0.000000	0.000000	0.000000	2.184174	2.938605	0.295958	-1.975730	0.000000	0.000000	-0.000000	0.000000	0.213640	-0.015260	-0.244160	0.004395	0.985898	-0.003052	-1.000000	-1.000000	-1.000000	-1.000000	-1.000000	-1.000000	-1.000000	146.827586	0.000000	-1.000000	-1.000000	554751.000000	1772311769.352859
-24060.465000	-30671.370000	-29213.415000	-15400.125000	0.000000	0.000000	0.000000	0.000000	1.429893	-2.179628	0.925137	2.330323	0.000000	0.000000	-0.000000	0.000000	0.213640	-0.015260	-0.244160	0.004395	0.985898	-0.003052	-1.000000	-1.000000	-1.000000	-1.000000	-1.000000	-1.000000	-1.000000	146.827586	0.000000	-1.000000	-1.000000	554752.000000	1772311769.352862
-24067.305000	-30658.545000	-29218.455000	-15406.065000	0.000000	0.000000	0.000000	0.000000	-1.988495	-5.194718	-0.445210	3.807711	0.000000	0.000000	-0.000000	0.000000	0.213640	-0.015260	-0.244160	0.004395	0.985898	-0.003052	-1.000000	-1.000000	-1.000000	-1.000000	-1.000000	-1.000000	-1.000000	146.827586	0.000000	-1.000000	-1.000000	554753.000000	1772311769.354920
-24063.840000	-30653.370000	-29213.550000	-15401.700000	0.000000	0.000000	0.000000	0.000000	-5.223857	-4.209496	-2.413116	2.674777	0.000000	0.000000	-0.000000	0.000000	0.213640	-0.015260	-0.244160	0.004395	0.985898	-0.003052	-1.000000	-1.000000	-1.000000	-1.000000	-1.000000	-1.000000	-1.000000	146.827586	0.000000	-1.000000	-1.000000	554754.000000	1772311769.354923
-24059.205000	-30626.685000	-29209.635000	-15392.565000	0.000000	0.000000	0.000000	0.000000	-5.465785	-0.418784	-2.814083	0.870302	0.000000	0.000000	-0.000000	0.000000	0.213640	-0.015260	-0.244160	0.004395	0.985898	-0.003052	-1.000000	-1.000000	-1.000000	-1.000000	-1.000000	-1.000000	-1.000000	146.827586	0.000000	-1.000000	-1.000000	554755.000000	1772311769.358994
-24068.070000	-30616.965000	-29223.855000	-15406.065000	0.000000	0.000000	0.000000	0.000000	-2.240123	4.012991	-1.033033	0.117227	0.000000	0.000000	-0.000000	0.000000	0.213640	-0.015260	-0.244160	0.004395	0.985898	-0.003052	-1.000000	-1.000000	-1.000000	-1.000000	-1.000000	-1.000000	-1.000000	146.827586	0.000000	-1.000000	-1.000000	554756.000000	1772311769.358998
-24060.285000	-30614.940000	-29213.505000	-15396.210000	0.000000	0.000000	0.000000	0.000000	2.208252	6.766521	1.317653	0.183409	0.000000	0.000000	-0.000000	0.000000	0.213640	-0.015260	-0.244160	0.004395	0.985898	-0.003052	-1.000000	-1.000000	-1.000000	-1.000000	-1.000000	-1.000000	-1.000000	146.827586	0.000000	-1.000000	-1.000000	554757.000000	1772311769.363971
-24051.330000	-30600.630000	-29194.515000	-15377.265000	0.000000	0.000000	0.000000	0.000000	5.544059	5.971506	3.194227	0.644713	0.000000	0.000000	-0.000000	0.000000	0.213640	-0.015260	-0.244160	0.004395	0.985898	-0.003052	-1.000000	-1.000000	-1.000000	-1.000000	-1.000000	-1.000000	-1.000000	146.827586	0.000000	-1.000000	-1.000000	554758.000000	1772311769.363975
-24048.495000	-30597.300000	-29189.925000	-15372.990000	0.000000	0.000000	0.000000	0.000000	7.011403	2.045478	5.079395	2.032992	0.000000	0.000000	-0.000000	0.000000	-0.976640	0.366240	0.106820	0.005005	0.985227	-0.002747	-1.000000	-1.000000	-1.000000	-1.000000	-1.000000	-1.000000	-1.000000	146.827586	0.000000	-1.000000	-1.000000	554759.000000	1772311769.366977
-24050.520000	-30623.490000	-29205.540000	-15386.265000	0.000000	0.000000	0.000000	0.000000	6.331280	-3.261119	6.070983	3.383970	0.000000	0.000000	-0.000000	0.000000	-0.976640	0.366240	0.106820	0.005005	0.985227	-0.002747	-1.000000	-1.000000	-1.000000	-1.000000	-1.000000	-1.000000	-1.000000	146.827586	0.000000	-1.000000	-1.000000	554760.000000	1772311769.366980
-24033.375000	-30617.640000	-29194.605000	-15376.545000	0.000000	0.000000	0.000000	0.000000	3.625417	-8.659392	3.997479	2.371977	0.000000	0.000000	-0.000000	0.000000	-0.976640	0.366240	0.106820	0.005005	0.985227	-0.002747	-1.000000	-1.000000	-1.000000	-1.000000	-1.000000	-1.000000	-1.000000	146.827586	0.000000	-1.000000	-1.000000	554761.000000	1772311769.372224
-24022.260000	-30596.985000	-29183.445000	-15364.395000	0.000000	0.000000	0.000000	0.000000	0.454511	-11.539441	-0.541833	-0.815631	0.000000	0.000000	-0.000000	0.000000	-0.976640	0.366240	0.106820	0.005005	0.985227	-0.002747	-1.000000	-1.000000	-1.000000	-1.000000	-1.000000	-1.000000	-1.000000	146.827586	0.000000	-1.000000	-1.000000	554762.000000	1772311769.372227
-24068.115000	-30580.695000	-29223.180000	-15395.805000	0.000000	0.000000	0.000000	0.000000	-2.403534	-8.355392	-4.967833	-3.968729	0.000000	0.000000	-0.000000	0.000000	-0.976640	0.366240	0.106820	0.005005	0.985227	-0.002747	-1.000000	-1.000000	-1.000000	-1.000000	-1.000000	-1.000000	-1.000000	146.827586	0.000000	-1.000000	-1.000000	554763.000000	1772311769.380732
-24079.140000	-30567.240000	-29232.090000	-15401.070000	0.000000	0.000000	0.000000	0.000000	-6.750644	0.683931	-8.800830	-6.617572	0.000000	0.000000	-0.000000	0.000000	-0.976640	0.366240	0.106820	0.005005	0.985227	-0.002747	-1.000000	-1.000000	-1.000000	-1.000000	-1.000000	-1.000000	-1.000000	146.827586	0.000000	-1.000000	-1.000000	554764.000000	1772311769.380735
-24072.570000	-30563.685000	-29231.325000	-15411.060000	0.000000	0.000000	0.000000	0.000000	-12.180014	10.391760	-11.637656	-8.791517	0.000000	0.000000	-0.000000	0.000000	-0.976640	0.366240	0.106820	0.005005	0.985227	-0.002747	-1.000000	-1.000000	-1.000000	-1.000000	-1.000000	-1.000000	-1.000000	146.827586	0.000000	-1.000000	-1.000000	554765.000000	1772311769.380739
-24101.145000	-30566.205000	-29261.610000	-15439.860000	0.000000	0.000000	0.000000	0.000000	-14.243115	14.689858	-11.215741	-9.245566	0.000000	0.000000	-0.000000	0.000000	-0.976640	0.366240	0.106820	0.005005	0.985227	-0.002747	-1.000000	-1.000000	-1.000000	-1.000000	-1.000000	-1.000000	-1.000000	146.827586	0.000000	-1.000000	-1.000000	554766.000000	1772311769.380741
-24084.855000	-30568.725000	-29244.960000	-15419.115000	0.000000	0.000000	0.000000	0.000000	-10.203440	11.052178	-6.606666	-6.868990	-0.000000	0.000000	-0.000000	0.000000	-0.976640	0.366240	0.106820	0.005005	0.985227	-0.002747	-1.000000	-1.000000	-1.000000	-1.000000	-1.000000	-1.000000	-1.000000	146.827586	0.000000	-1.000000	-1.000000	554767.000000	1772311769.383799
-24074.145000	-30567.510000	-29230.425000	-15402.330000	0.000000	0.000000	0.000000	0.000000	-0.985616	1.991343	1.479479	-0.583549	-0.000000	0.000000	-0.000000	0.000000	-0.976640	0.366240	0.106820	0.005005	0.985227	-0.002747	-1.000000	-1.000000	-1.000000	-1.000000	-1.000000	-1.000000	-1.000000	146.827586	0.000000	-1.000000	-1.000000	554768.000000	1772311769.383802
-24076.710000	-30559.365000	-29231.730000	-15401.340000	0.000000	0.000000	0.000000	0.000000	10.205522	-6.927954	11.206331	9.079311	-0.000000	0.000000	-0.000000	0.000000	-0.640920	0.366240	0.488320	0.005005	0.984678	-0.001526	-1.000000	-1.000000	-1.000000	-1.000000	-1.000000	-1.000000	-1.000000	146.827586	0.000000	-1.000000	-1.000000	554769.000000	1772311769.387045
-24070.365000	-30556.080000	-29223.540000	-15394.455000	0.000000	0.000000	0.000000	0.000000	18.246681	-10.932306	18.369691	17.530730	-0.000000	0.000000	-0.000000	0.000000	-0.640920	0.366240	0.488320	0.005005	0.984678	-0.001526	-1.000000	-1.000000	-1.000000	-1.000000	-1.000000	-1.000000	-1.000000	146.827586	0.000000	-1.000000	-1.000000	554770.000000	1772311769.387048
-24067.665000	-30578.940000	-29219.445000	-15387.795000	0.000000	0.000000	0.000000	0.000000	19.204016	-9.431028	19.020280	19.565061	-0.000000	0.000000	-0.000000	0.000000	-0.640920	0.366240	0.488320	0.005005	0.984678	-0.001526	-1.000000	-1.000000	-1.000000	-1.000000	-1.000000	-1.000000	-1.000000	146.827586	0.000000	-1.000000	-1.000000	554771.000000	1772311769.391376
-24070.455000	-30593.655000	-29224.215000	-15397.155000	0.000000	0.000000	0.000000	0.000000	13.136272	-5.943192	12.744030	13.825641	-0.000000	0.000000	-0.000000	0.000000	-0.640920	0.366240	0.488320	0.005005	0.984678	-0.001526	-1.000000	-1.000000	-1.000000	-1.000000	-1.000000	-1.000000	-1.000000	146.827586	0.000000	-1.000000	-1.000000	554772.000000	1772311769.391379
-24075.000000	-30593.700000	-29227.185000	-15398.595000	0.000000	0.000000	0.000000	0.000000	3.064814	-3.535970	2.200514	2.791037	-0.000000	0.000000	-0.000000	0.000000	-0.640920	0.366240	0.488320	0.005005	0.984678	-0.001526	-1.000000	-1.000000	-1.000000	-1.000000	-1.000000	-1.000000	-1.000000	146.827586	0.000000	-1.000000	-1.000000	554773.000000	1772311769.397140
-24077.655000	-30584.880000	-29227.365000	-15394.320000	0.000000	0.000000	0.000000	0.000000	-6.997985	-1.433503	-8.434871	-8.734269	-0.000000	0.000000	-0.000000	0.000000	-0.640920	0.366240	0.488320	0.005005	0.984678	-0.001526	-1.000000	-1.000000	-1.000000	-1.000000	-1.000000	-1.000000	-1.000000	146.827586	0.000000	-1.000000	-1.000000	554774.000000	1772311769.397143
-24075.765000	-30574.305000	-29226.735000	-15396.030000	0.000000	0.000000	0.000000	0.000000	-13.423489	2.658676	-15.059884	-15.734127	-0.000000	0.000000	-0.000000	0.000000	-0.640920	0.366240	0.488320	0.005005	0.984678	-0.001526	-1.000000	-1.000000	-1.000000	-1.000000	-1.000000	-1.000000	-1.000000	146.827586	0.000000	-1.000000	-1.000000	554775.000000	1772311769.399079
-24087.195000	-30585.330000	-29239.200000	-15410.385000	0.000000	0.000000	0.000000	0.000000	-14.455954	8.297940	-15.829286	-16.244116	-0.000000	0.000000	-0.000000	0.000000	-0.640920	0.366240	0.488320	0.005005	0.984678	-0.001526	-1.000000	-1.000000	-1.000000	-1.000000	-1.000000	-1.000000	-1.000000	146.827586	0.000000	-1.000000	-1.000000	554776.000000	1772311769.399082
-24076.035000	-30589.020000	-29224.890000	-15396.345000	0.000000	0.000000	0.000000	0.000000	-10.814477	11.805480	-11.708169	-11.830257	-0.000000	0.000000	-0.000000	0.000000	-0.640920	0.366240	0.488320	0.005005	0.984678	-0.001526	-1.000000	-1.000000	-1.000000	-1.000000	-1.000000	-1.000000	-1.000000	146.827586	0.000000	-1.000000	-1.000000	554777.000000	1772311769.403020
-24042.555000	-30589.020000	-29187.720000	-15357.420000	0.000000	0.000000	0.000000	0.000000	-3.822994	10.304133	-4.039092	-4.099501	-0.000000	0.000000	-0.000000	0.000000	-0.640920	0.366240	0.488320	0.005005	0.984678	-0.001526	-1.000000	-1.000000	-1.000000	-1.000000	-1.000000	-1.000000	-1.000000	146.827586	0.000000	-1.000000	-1.000000	554778.000000	1772311769.403023
-24075.405000	-30595.005000	-29218.905000	-15384.195000	0.000000	0.000000	0.000000	0.000000	4.540949	4.739246	5.255939	5.362777	-0.000000	0.000000	-0.000000	0.000000	-0.579880	0.701960	0.656180	0.005310	0.983762	-0.000122	-1.000000	-1.000000	-1.000000	-1.000000	-1.000000	-1.000000	-1.000000	146.827586	0.000000	-1.000000	-1.000000	554779.000000	1772311769.407036
-24124.635000	-30584.655000	-29267.190000	-15429.645000	0.000000	0.000000	0.000000	0.000000	8.705644	-1.471278	10.249373	10.964033	-0.000000	0.000000	-0.000000	0.000000	-0.579880	0.701960	0.656180	0.005310	0.983762	-0.000122	-1.000000	-1.000000	-1.000000	-1.000000	-1.000000	-1.000000	-1.000000	146.827586	0.000000	-1.000000	-1.000000	554780.000000	1772311769.407038
-24101.460000	-30543.930000	-29241.810000	-15399.405000	0.000000	0.000000	0.000000	0.000000	4.333561	-4.386668	6.070505	7.657088	-0.000000	0.000000	-0.000000	0.000000	-0.579880	0.701960	0.656180	0.005310	0.983762	-0.000122	-1.000000	-1.000000	-1.000000	-1.000000	-1.000000	-1.000000	-1.000000	146.827586	0.000000	-1.000000	-1.000000	554781.000000	1772311769.411913
-24097.455000	-30523.455000	-29238.300000	-15395.355000	0.000000	0.000000	0.000000	0.000000	-3.581629	-1.533978	-2.443320	-0.318512	-0.000000	0.000000	-0.000000	0.000000	-0.579880	0.701960	0.656180	0.005310	0.983762	-0.000122	-1.000000	-1.000000	-1.000000	-1.000000	-1.000000	-1.000000	-1.000000	146.827586	0.000000	-1.000000	-1.000000	554782.000000	1772311769.411915
-24104.520000	-30517.425000	-29246.355000	-15403.680000	0.000000	0.000000	0.000000	0.000000	-6.423725	4.771633	-6.425841	-4.698127	-0.000000	0.000000	-0.000000	0.000000	-0.579880	0.701960	0.656180	0.005310	0.983762	-0.000122	-1.000000	-1.000000	-1.000000	-1.000000	-1.000000	-1.000000	-1.000000	146.827586	0.000000	-1.000000	-1.000000	554783.000000	1772311769.415209
-24107.040000	-30509.190000	-29245.320000	-15402.915000	0.000000	0.000000	0.000000	0.000000	-2.548997	8.299807	-3.726757	-3.467964	-0.000000	0.000000	-0.000000	0.000000	-0.579880	0.701960	0.656180	0.005310	0.983762	-0.000122	-1.000000	-1.000000	-1.000000	-1.000000	-1.000000	-1.000000	-1.000000	146.827586	0.000000	-1.000000	-1.000000	554784.000000	1772311769.415211
-24095.520000	-30507.210000	-29231.820000	-15386.580000	0.000000	0.000000	0.000000	0.000000	3.805499	5.015589	2.084129	0.451307	-0.000000	0.000000	-0.000000	0.000000	-0.579880	0.701960	0.656180	0.005310	0.983762	-0.000122	-1.000000	-1.000000	-1.000000	-1.000000	-1.000000	-1.000000	-1.000000	146.827586	0.000000	-1.000000	-1.000000	554785.000000	1772311769.420350
-24097.545000	-30521.475000	-29237.130000	-15394.995000	0.000000	0.000000	0.000000	0.000000	8.614289	-3.854317	7.225577	4.285924	-0.000000	0.000000	-0.000000	0.000000	-0.579880	0.701960	0.656180	0.005310	0.983762	-0.000122	-1.000000	-1.000000	-1.000000	-1.000000	-1.000000	-1.000000	-1.000000	146.827586	0.000000	-1.000000	-1.000000	554786.000000	1772311769.420353
-24105.150000	-30546.270000	-29243.610000	-15400.125000	0.000000	0.000000	0.000000	0.000000	9.639746	-14.281015	8.946782	5.801803	-0.000000	0.000000	-0.000000	0.000000	-0.579880	0.701960	0.656180	0.005310	0.983762	-0.000122	-1.000000	-1.000000	-1.000000	-1.000000	-1.000000	-1.000000	-1.000000	146.827586	0.000000	-1.000000	-1.000000	554787.000000	1772311769.423425
-24098.760000	-30556.080000	-29237.355000	-15390.270000	0.000000	0.000000	0.000000	0.000000	6.408072	-21.929716	6.230904	3.946820	-0.000000	0.000000	-0.000000	0.000000	-0.579880	0.701960	0.656180	0.005310	0.983762	-0.000122	-1.000000	-1.000000	-1.000000	-1.000000	-1.000000	-1.000000	-1.000000	146.827586	0.000000	-1.000000	-1.000000	554788.000000	1772311769.423428
-24093.855000	-30560.085000	-29229.120000	-15381.990000	0.000000	0.000000	0.000000	0.000000	0.988340	-22.848999	1.157512	0.518390	-0.000000	0.000000	-0.000000	0.000000	-0.625660	0.381500	0.366240	0.006042	0.983396	0.001465	-1.000000	-1.000000	-1.000000	-1.000000	-1.000000	-1.000000	-1.000000	146.827586	0.000000	-1.000000	-1.000000	554789.000000	1772311769.427248
-24092.415000	-30561.480000	-29229.165000	-15379.065000	0.000000	0.000000	0.000000	0.000000	-3.439868	-15.184807	-2.889884	-1.724602	-0.000000	0.000000	-0.000000	0.000000	-0.625660	0.381500	0.366240	0.006042	0.983396	0.001465	-1.000000	-1.000000	-1.000000	-1.000000	-1.000000	-1.000000	-1.000000	146.827586	0.000000	-1.000000	-1.000000	554790.000000	1772311769.427251
-24088.545000	-30541.410000	-29227.455000	-15378.165000	0.000000	0.000000	0.000000	0.000000	-5.271304	-0.915823	-4.447635	-2.097004	-0.000000	0.000000	-0.000000	0.000000	-0.625660	0.381500	0.366240	0.006042	0.983396	0.001465	-1.000000	-1.000000	-1.000000	-1.000000	-1.000000	-1.000000	-1.000000	146.827586	0.000000	-1.000000	-1.000000	554791.000000	1772311769.432228
-24087.960000	-30550.140000	-29226.555000	-15380.055000	0.000000	0.000000	0.000000	0.000000	-4.880619	14.677749	-4.215027	-1.826549	-0.000000	0.000000	-0.000000	0.000000	-0.625660	0.381500	0.366240	0.006042	0.983396	0.001465	-1.000000	-1.000000	-1.000000	-1.000000	-1.000000	-1.000000	-1.000000	146.827586	0.000000	-1.000000	-1.000000	554792.000000	1772311769.432231
-24107.535000	-30563.190000	-29244.870000	-15402.105000	0.000000	0.000000	0.000000	0.000000	-3.841541	24.656051	-3.659540	-2.461996	-0.000000	0.000000	-0.000000	0.000000	-0.625660	0.381500	0.366240	0.006042	0.983396	0.001465	-1.000000	-1.000000	-1.000000	-1.000000	-1.000000	-1.000000	-1.000000	146.827586	0.000000	-1.000000	-1.000000	554793.000000	1772311769.436095
-24117.975000	-30555.000000	-29252.025000	-15412.365000	0.000000	0.000000	0.000000	0.000000	-3.983833	24.365147	-4.076644	-4.770589	-0.000000	0.000000	-0.000000	0.000000	-0.625660	0.381500	0.366240	0.006042	0.983396	0.001465	-1.000000	-1.000000	-1.000000	-1.000000	-1.000000	-1.000000	-1.000000	146.827586	0.000000	-1.000000	-1.000000	554794.000000	1772311769.436100
-24107.895000	-30500.505000	-29238.795000	-15396.300000	0.000000	0.000000	0.000000	0.000000	-5.123756	16.482631	-4.907453	-7.116218	-0.000000	0.000000	-0.000000	0.000000	-0.625660	0.381500	0.366240	0.006042	0.983396	0.001465	-1.000000	-1.000000	-1.000000	-1.000000	-1.000000	-1.000000	-1.000000	146.827586	0.000000	-1.000000	-1.000000	554795.000000	1772311769.439262
-24120.630000	-30482.010000	-29252.115000	-15398.460000	0.000000	0.000000	0.000000	0.000000	-4.819566	8.781644	-3.932919	-6.041383	-0.000000	0.000000	-0.000000	0.000000	-0.625660	0.381500	0.366240	0.006042	0.983396	0.001465	-1.000000	-1.000000	-1.000000	-1.000000	-1.000000	-1.000000	-1.000000	146.827586	0.000000	-1.000000	-1.000000	554796.000000	1772311769.439265
-24134.715000	-30478.590000	-29266.695000	-15408.720000	0.000000	0.000000	0.000000	0.000000	-2.153877	4.817584	-0.949488	-0.851000	-0.000000	0.000000	-0.000000	0.000000	-0.625660	0.381500	0.366240	0.006042	0.983396	0.001465	-1.000000	-1.000000	-1.000000	-1.000000	-1.000000	-1.000000	-1.000000	146.827586	0.000000	-1.000000	-1.000000	554797.000000	1772311769.443523
-24127.695000	-30489.840000	-29259.630000	-15400.890000	0.000000	0.000000	0.000000	0.000000	1.249173	0.868418	1.920357	5.077543	-0.000000	0.000000	-0.000000	0.000000	-0.625660	0.381500	0.366240	0.006042	0.983396	0.001465	-1.000000	-1.000000	-1.000000	-1.000000	-1.000000	-1.000000	-1.000000	146.827586	0.000000	-1.000000	-1.000000	554798.000000	1772311769.443526
-24121.845000	-30502.665000	-29254.905000	-15400.620000	0.000000	0.000000	0.000000	0.000000	4.382551	-7.213960	3.900517	8.552314	-0.000000	0.000000	-0.000000	0.000000	-0.534100	0.228900	0.381500	0.006653	0.982480	0.002686	-1.000000	-1.000000	-1.000000	-1.000000	-1.000000	-1.000000	-1.000000	146.827586	0.000000	-1.000000	-1.000000	554799.000000	1772311769.447288
-24098.400000	-30520.170000	-29232.135000	-15381.495000	0.000000	0.000000	0.000000	0.000000	7.634801	-18.211819	6.045711	9.132374	-0.000000	0.000000	-0.000000	0.000000	-0.534100	0.228900	0.381500	0.006653	0.982480	0.002686	-1.000000	-1.000000	-1.000000	-1.000000	-1.000000	-1.000000	-1.000000	146.827586	0.000000	-1.000000	-1.000000	554800.000000	1772311769.447290
-24099.390000	-30525.705000	-29231.145000	-15372.945000	0.000000	0.000000	0.000000	0.000000	10.680087	-26.514224	8.638517	8.034157	-0.000000	0.000000	-0.000000	0.000000	-0.534100	0.228900	0.381500	0.006653	0.982480	0.002686	-1.000000	-1.000000	-1.000000	-1.000000	-1.000000	-1.000000	-1.000000	146.827586	0.000000	-1.000000	-1.000000	554801.000000	1772311769.450935
-24124.410000	-30528.630000	-29254.770000	-15393.195000	0.000000	0.000000	0.000000	0.000000	10.854952	-26.548480	9.318101	5.633278	-0.000000	0.000000	-0.000000	0.000000	-0.534100	0.228900	0.381500	0.006653	0.982480	0.002686	-1.000000	-1.000000	-1.000000	-1.000000	-1.000000	-1.000000	-1.000000	146.827586	0.000000	-1.000000	-1.000000	554802.000000	1772311769.450938
-24126.300000	-30512.070000	-29250.720000	-15391.305000	0.000000	0.000000	0.000000	0.000000	5.286775	-16.529273	5.092022	0.859957	-0.000000	0.000000	-0.000000	0.000000	-0.534100	0.228900	0.381500	0.006653	0.982480	0.002686	-1.000000	-1.000000	-1.000000	-1.000000	-1.000000	-1.000000	-1.000000	146.827586	0.000000	-1.000000	-1.000000	554803.000000	1772311769.455320
-24132.555000	-30487.320000	-29253.150000	-15393.645000	0.000000	0.000000	0.000000	0.000000	-4.398225	0.689975	-2.894665	-5.636597	-0.000000	0.000000	-0.000000	0.000000	-0.534100	0.228900	0.381500	0.006653	0.982480	0.002686	-1.000000	-1.000000	-1.000000	-1.000000	-1.000000	-1.000000	-1.000000	146.827586	0.000000	-1.000000	-1.000000	554804.000000	1772311769.455323
-24144.390000	-30470.670000	-29263.545000	-15404.220000	0.000000	0.000000	0.000000	0.000000	-12.656512	18.865731	-9.856276	-10.704757	-0.000000	0.000000	-0.000000	0.000000	-0.534100	0.228900	0.381500	0.006653	0.982480	0.002686	-1.000000	-1.000000	-1.000000	-1.000000	-1.000000	-1.000000	-1.000000	146.827586	0.000000	-1.000000	-1.000000	554805.000000	1772311769.460627
-24124.635000	-30456.405000	-29244.015000	-15387.255000	0.000000	0.000000	0.000000	0.000000	-14.871332	30.590929	-11.992281	-11.623287	-0.000000	0.000000	-0.000000	0.000000	-0.534100	0.228900	0.381500	0.006653	0.982480	0.002686	-1.000000	-1.000000	-1.000000	-1.000000	-1.000000	-1.000000	-1.000000	146.827586	0.000000	-1.000000	-1.000000	554806.000000	1772311769.460630
-24135.255000	-30463.155000	-29253.330000	-15389.955000	0.000000	0.000000	0.000000	0.000000	-9.924795	30.569922	-8.436202	-7.626793	-0.000000	0.000000	-0.000000	0.000000	-0.534100	0.228900	0.381500	0.006653	0.982480	0.002686	-1.000000	-1.000000	-1.000000	-1.000000	-1.000000	-1.000000	-1.000000	146.827586	0.000000	-1.000000	-1.000000	554807.000000	1772311769.463311
-24151.095000	-30461.850000	-29270.025000	-15404.895000	0.000000	0.000000	0.000000	0.000000	-1.248365	18.543397	-1.961073	-0.887575	-0.000000	0.000000	-0.000000	0.000000	-0.534100	0.228900	0.381500	0.006653	0.982480	0.002686	-1.000000	-1.000000	-1.000000	-1.000000	-1.000000	-1.000000	-1.000000	146.827586	0.000000	-1.000000	-1.000000	554808.000000	1772311769.463314
-24145.065000	-30449.700000	-29262.960000	-15398.100000	0.000000	0.000000	0.000000	0.000000	5.530200	0.239071	2.901559	4.431149	-0.000000	0.000000	-0.000000	0.000000	-0.625660	0.000000	0.350980	0.007080	0.983274	0.003113	-1.000000	-1.000000	-1.000000	-1.000000	-1.000000	-1.000000	-1.000000	146.482759	0.000000	-1.000000	-1.000000	554809.000000	1772311769.467339
-24146.730000	-30443.040000	-29262.780000	-15397.965000	0.000000	0.000000	0.000000	0.000000	7.928405	-15.398852	4.539463	6.285697	-0.000000	0.000000	-0.000000	0.000000	-0.625660	0.000000	0.350980	0.007080	0.983274	0.003113	-1.000000	-1.000000	-1.000000	-1.000000	-1.000000	-1.000000	-1.000000	146.482759	0.000000	-1.000000	-1.000000	554810.000000	1772311769.467342
-24148.710000	-30433.365000	-29262.735000	-15399.045000	0.000000	0.000000	0.000000	0.000000	7.160369	-21.989079	4.447760	5.655166	-0.000000	0.000000	-0.000000	0.000000	-0.625660	0.000000	0.350980	0.007080	0.983274	0.003113	-1.000000	-1.000000	-1.000000	-1.000000	-1.000000	-1.000000	-1.000000	146.482759	0.000000	-1.000000	-1.000000	554811.000000	1772311769.471284
-24153.885000	-30425.310000	-29267.640000	-15401.745000	0.000000	0.000000	0.000000	0.000000	4.880580	-18.984499	3.838476	3.902111	-0.000000	0.000000	-0.000000	0.000000	-0.625660	0.000000	0.350980	0.007080	0.983274	0.003113	-1.000000	-1.000000	-1.000000	-1.000000	-1.000000	-1.000000	-1.000000	146.482759	0.000000	-1.000000	-1.000000	554812.000000	1772311769.471286
-24153.390000	-30434.580000	-29266.830000	-15399.450000	0.000000	0.000000	0.000000	0.000000	2.075517	-10.540275	2.767573	1.799231	-0.000000	0.000000	-0.000000	0.000000	-0.625660	0.000000	0.350980	0.007080	0.983274	0.003113	-1.000000	-1.000000	-1.000000	-1.000000	-1.000000	-1.000000	-1.000000	146.482759	0.000000	-1.000000	-1.000000	554813.000000	1772311769.475267
-24140.610000	-30470.940000	-29253.195000	-15385.770000	0.000000	0.000000	0.000000	0.000000	-0.147010	-2.953055	1.545435	0.253991	-0.000000	0.000000	-0.000000	0.000000	-0.625660	0.000000	0.350980	0.007080	0.983274	0.003113	-1.000000	-1.000000	-1.000000	-1.000000	-1.000000	-1.000000	-1.000000	146.482759	0.000000	-1.000000	-1.000000	554814.000000	1772311769.475269
-24139.080000	-30482.730000	-29249.955000	-15381.765000	0.000000	0.000000	0.000000	0.000000	-0.670565	-0.821164	1.108393	0.168492	-0.000000	0.000000	-0.000000	0.000000	-0.625660	0.000000	0.350980	0.007080	0.983274	0.003113	-1.000000	-1.000000	-1.000000	-1.000000	-1.000000	-1.000000	-1.000000	146.482759	0.000000	-1.000000	-1.000000	554815.000000	1772311769.480037
-24145.875000	-30479.535000	-29255.220000	-15384.420000	0.000000	0.000000	0.000000	0.000000	0.058441	-2.822980	1.363951	1.057041	-0.000000	0.000000	-0.000000	0.000000	-0.625660	0.000000	0.350980	0.007080	0.983274	0.003113	-1.000000	-1.000000	-1.000000	-1.000000	-1.000000	-1.000000	-1.000000	146.482759	0.000000	-1.000000	-1.000000	554816.000000	1772311769.480040
-24155.640000	-30486.870000	-29268.720000	-15398.730000	0.000000	0.000000	0.000000	0.000000	-0.047110	-3.318429	0.581139	0.860562	-0.000000	0.000000	-0.000000	0.000000	-0.625660	0.000000	0.350980	0.007080	0.983274	0.003113	-1.000000	-1.000000	-1.000000	-1.000000	-1.000000	-1.000000	-1.000000	146.482759	0.000000	-1.000000	-1.000000	554817.000000	1772311769.484688
-24170.490000	-30501.675000	-29277.090000	-15405.165000	0.000000	0.000000	0.000000	0.000000	-2.384098	0.640746	-2.454032	-1.865520	-0.000000	0.000000	-0.000000	0.000000	-0.625660	0.000000	0.350980	0.007080	0.983274	0.003113	-1.000000	-1.000000	-1.000000	-1.000000	-1.000000	-1.000000	-1.000000	146.482759	0.000000	-1.000000	-1.000000	554818.000000	1772311769.484691
-24160.635000	-30526.650000	-29267.820000	-15400.260000	0.000000	0.000000	0.000000	0.000000	-5.736465	6.349956	-6.201479	-5.739940	-0.000000	0.000000	-0.000000	0.000000	-0.900340	0.183120	0.381500	0.006592	0.982786	0.005249	-1.000000	-1.000000	-1.000000	-1.000000	-1.000000	-1.000000	-1.000000	146.482759	0.000000	-1.000000	-1.000000	554819.000000	1772311769.487277
-24154.425000	-30549.600000	-29262.285000	-15400.620000	0.000000	0.000000	0.000000	0.000000	-6.807684	9.221955	-7.208453	-7.434398	-0.000000	0.000000	-0.000000	0.000000	-0.900340	0.183120	0.381500	0.006592	0.982786	0.005249	-1.000000	-1.000000	-1.000000	-1.000000	-1.000000	-1.000000	-1.000000	146.482759	0.000000	-1.000000	-1.000000	554820.000000	1772311769.487280
-24142.230000	-30555.495000	-29245.320000	-15378.435000	0.000000	0.000000	0.000000	0.000000	-3.391554	7.717157	-3.545439	-4.777797	-0.000000	0.000000	-0.000000	0.000000	-0.900340	0.183120	0.381500	0.006592	0.982786	0.005249	-1.000000	-1.000000	-1.000000	-1.000000	-1.000000	-1.000000	-1.000000	146.482759	0.000000	-1.000000	-1.000000	554821.000000	1772311769.491863
-24135.795000	-30589.695000	-29238.705000	-15363.270000	0.000000	0.000000	0.000000	0.000000	3.109069	3.966766	3.205645	1.728518	-0.000000	0.000000	-0.000000	0.000000	-0.900340	0.183120	0.381500	0.006592	0.982786	0.005249	-1.000000	-1.000000	-1.000000	-1.000000	-1.000000	-1.000000	-1.000000	146.482759	0.000000	-1.000000	-1.000000	554822.000000	1772311769.491866
-24115.320000	-30612.555000	-29215.485000	-15337.395000	0.000000	0.000000	0.000000	0.000000	9.054019	0.276589	9.378169	9.334281	-0.000000	0.000000	-0.000000	0.000000	-0.900340	0.183120	0.381500	0.006592	0.982786	0.005249	-1.000000	-1.000000	-1.000000	-1.000000	-1.000000	-1.000000	-1.000000	146.482759	0.000000	-1.000000	-1.000000	554823.000000	1772311769.495408
-24114.465000	-30613.680000	-29215.170000	-15333.705000	0.000000	0.000000	0.000000	0.000000	11.436423	-1.997514	11.819824	14.148393	-0.000000	0.000000	-0.000000	0.000000	-0.900340	0.183120	0.381500	0.006592	0.982786	0.005249	-1.000000	-1.000000	-1.000000	-1.000000	-1.000000	-1.000000	-1.000000	146.482759	0.000000	-1.000000	-1.000000	554824.000000	1772311769.495411
-24150.420000	-30598.830000	-29252.655000	-15372.585000	0.000000	0.000000	0.000000	0.000000	8.263499	-0.864783	8.356519	12.131903	-0.000000	0.000000	-0.000000	0.000000	-0.900340	0.183120	0.381500	0.006592	0.982786	0.005249	-1.000000	-1.000000	-1.000000	-1.000000	-1.000000	-1.000000	-1.000000	146.482759	0.000000	-1.000000	-1.000000	554825.000000	1772311769.500369
-24182.955000	-30586.950000	-29287.800000	-15409.395000	0.000000	0.000000	0.000000	0.000000	-1.442783	4.809635	-2.046004	0.978953	-0.000000	0.000000	-0.000000	0.000000	-0.900340	0.183120	0.381500	0.006592	0.982786	0.005249	-1.000000	-1.000000	-1.000000	-1.000000	-1.000000	-1.000000	-1.000000	146.482759	0.000000	-1.000000	-1.000000	554826.000000	1772311769.500371
-24173.055000	-30583.575000	-29273.445000	-15392.835000	0.000000	0.000000	0.000000	0.000000	-14.205958	12.342894	-15.563343	-15.168494	-0.000000	0.000000	-0.000000	0.000000	-0.900340	0.183120	0.381500	0.006592	0.982786	0.005249	-1.000000	-1.000000	-1.000000	-1.000000	-1.000000	-1.000000	-1.000000	146.482759	0.000000	-1.000000	-1.000000	554827.000000	1772311769.503441
-24173.190000	-30583.800000	-29267.010000	-15387.030000	0.000000	0.000000	0.000000	0.000000	-21.461763	16.240321	-22.814557	-25.309745	-0.000000	0.000000	-0.000000	0.000000	-0.900340	0.183120	0.381500	0.006592	0.982786	0.005249	-1.000000	-1.000000	-1.000000	-1.000000	-1.000000	-1.000000	-1.000000	146.482759	0.000000	-1.000000	-1.000000	554828.000000	1772311769.503444
-24186.105000	-30610.080000	-29263.455000	-15383.970000	0.000000	0.000000	0.000000	0.000000	-17.383619	12.268890	-17.242414	-21.326812	-0.000000	0.000000	-0.000000	0.000000	-0.900340	0.015260	0.396760	0.006836	0.981931	0.007446	-1.000000	-1.000000	-1.000000	-1.000000	-1.000000	-1.000000	-1.000000	146.482759	0.000000	-1.000000	-1.000000	554829.000000	1772311769.507441
-24184.080000	-30626.775000	-29271.240000	-15389.370000	0.000000	0.000000	0.000000	0.000000	-4.819600	0.459451	-2.213103	-6.066657	-0.000000	0.000000	-0.000000	0.000000	-0.900340	0.015260	0.396760	0.006836	0.981931	0.007446	-1.000000	-1.000000	-1.000000	-1.000000	-1.000000	-1.000000	-1.000000	146.482759	0.000000	-1.000000	-1.000000	554830.000000	1772311769.507444
-24164.820000	-30633.345000	-29263.770000	-15387.840000	0.000000	0.000000	0.000000	0.000000	9.124737	-14.030098	12.759575	10.463186	-0.000000	0.000000	-0.000000	0.000000	-0.900340	0.015260	0.396760	0.006836	0.981931	0.007446	-1.000000	-1.000000	-1.000000	-1.000000	-1.000000	-1.000000	-1.000000	146.482759	0.000000	-1.000000	-1.000000	554831.000000	1772311769.511531
-24163.740000	-30627.315000	-29265.390000	-15392.925000	0.000000	0.000000	0.000000	0.000000	19.119232	-23.174879	20.333376	19.776515	-0.000000	0.000000	-0.000000	0.000000	-0.900340	0.015260	0.396760	0.006836	0.981931	0.007446	-1.000000	-1.000000	-1.000000	-1.000000	-1.000000	-1.000000	-1.000000	146.482759	0.000000	-1.000000	-1.000000	554832.000000	1772311769.511534
-24183.180000	-30624.120000	-29281.545000	-15397.695000	0.000000	0.000000	0.000000	0.000000	21.793897	-21.565750	18.584692	19.259901	-0.000000	0.000000	-0.000000	0.000000	-0.900340	0.015260	0.396760	0.006836	0.981931	0.007446	-1.000000	-1.000000	-1.000000	-1.000000	-1.000000	-1.000000	-1.000000	146.482759	0.000000	-1.000000	-1.000000	554833.000000	1772311769.517619
-24168.690000	-30657.915000	-29260.170000	-15370.515000	0.000000	0.000000	0.000000	0.000000	15.931016	-11.090479	10.091010	12.033829	-0.000000	0.000000	-0.000000	0.000000	-0.900340	0.015260	0.396760	0.006836	0.981931	0.007446	-1.000000	-1.000000	-1.000000	-1.000000	-1.000000	-1.000000	-1.000000	146.482759	0.000000	-1.000000	-1.000000	554834.000000	1772311769.517622
-24188.490000	-30690.090000	-29277.045000	-15393.870000	0.000000	0.000000	0.000000	0.000000	4.593680	0.068309	0.191633	3.643824	-0.000000	0.000000	-0.000000	0.000000	-0.900340	0.015260	0.396760	0.006836	0.981931	0.007446	-1.000000	-1.000000	-1.000000	-1.000000	-1.000000	-1.000000	-1.000000	146.482759	0.000000	-1.000000	-1.000000	554835.000000	1772311769.521936
-24191.550000	-30693.915000	-29279.070000	-15396.345000	0.000000	0.000000	0.000000	0.000000	-6.867203	5.197653	-6.904428	-3.005760	-0.000000	0.000000	-0.000000	0.000000	-0.900340	0.015260	0.396760	0.006836	0.981931	0.007446	-1.000000	-1.000000	-1.000000	-1.000000	-1.000000	-1.000000	-1.000000	146.482759	0.000000	-1.000000	-1.000000	554836.000000	1772311769.521939
-24172.830000	-30703.005000	-29255.715000	-15369.930000	0.000000	0.000000	0.000000	0.000000	-13.862471	5.072582	-9.673216	-7.299829	-0.000000	0.000000	-0.000000	0.000000	-0.900340	0.015260	0.396760	0.006836	0.981931	0.007446	-1.000000	-1.000000	-1.000000	-1.000000	-1.000000	-1.000000	-1.000000	146.482759	0.000000	-1.000000	-1.000000	554837.000000	1772311769.523472
-24164.370000	-30744.945000	-29245.365000	-15362.370000	0.000000	0.000000	0.000000	0.000000	-13.429003	3.819323	-7.440788	-7.644193	-0.000000	0.000000	-0.000000	0.000000	-0.900340	0.015260	0.396760	0.006836	0.981931	0.007446	-1.000000	-1.000000	-1.000000	-1.000000	-1.000000	-1.000000	-1.000000	146.482759	0.000000	-1.000000	-1.000000	554838.000000	1772311769.523475
-24170.895000	-30789.495000	-29252.340000	-15366.780000	0.000000	0.000000	0.000000	0.000000	-6.638502	2.219875	-1.719830	-4.032596	-0.000000	0.000000	-0.000000	0.000000	-1.297100	-0.518840	0.320460	0.007080	0.983945	0.008789	-1.000000	-1.000000	-1.000000	-1.000000	-1.000000	-1.000000	-1.000000	146.482759	0.000000	-1.000000	-1.000000	554839.000000	1772311769.527576
-24177.375000	-30817.530000	-29259.630000	-15372.720000	0.000000	0.000000	0.000000	0.000000	1.019874	-0.879490	2.870132	-0.176981	-0.000000	0.000000	-0.000000	0.000000	-1.297100	-0.518840	0.320460	0.007080	0.983945	0.008789	-1.000000	-1.000000	-1.000000	-1.000000	-1.000000	-1.000000	-1.000000	146.482759	0.000000	-1.000000	-1.000000	554840.000000	1772311769.527579
-24176.295000	-30856.275000	-29256.165000	-15369.030000	0.000000	0.000000	0.000000	0.000000	4.556668	-4.194755	2.885232	0.552845	-0.000000	0.000000	-0.000000	0.000000	-1.297100	-0.518840	0.320460	0.007080	0.983945	0.008789	-1.000000	-1.000000	-1.000000	-1.000000	-1.000000	-1.000000	-1.000000	146.482759	0.000000	-1.000000	-1.000000	554841.000000	1772311769.532116
-24173.145000	-30868.695000	-29250.585000	-15360.705000	0.000000	0.000000	0.000000	0.000000	3.541111	-4.705245	-0.465732	-1.284239	-0.000000	0.000000	-0.000000	0.000000	-1.297100	-0.518840	0.320460	0.007080	0.983945	0.008789	-1.000000	-1.000000	-1.000000	-1.000000	-1.000000	-1.000000	-1.000000	146.482759	0.000000	-1.000000	-1.000000	554842.000000	1772311769.532119
-24159.060000	-30838.860000	-29236.545000	-15343.290000	0.000000	0.000000	0.000000	0.000000	1.060751	0.241063	-3.232569	-2.529633	-0.000000	0.000000	-0.000000	0.000000	-1.297100	-0.518840	0.320460	0.007080	0.983945	0.008789	-1.000000	-1.000000	-1.000000	-1.000000	-1.000000	-1.000000	-1.000000	146.482759	0.000000	-1.000000	-1.000000	554843.000000	1772311769.535480
-24166.755000	-30860.370000	-29238.795000	-15346.755000	0.000000	0.000000	0.000000	0.000000	-0.082243	10.694004	-2.922710	-1.238388	-0.000000	0.000000	-0.000000	0.000000	-1.297100	-0.518840	0.320460	0.007080	0.983945	0.008789	-1.000000	-1.000000	-1.000000	-1.000000	-1.000000	-1.000000	-1.000000	146.482759	0.000000	-1.000000	-1.000000	554844.000000	1772311769.535483
-24192.495000	-30886.290000	-29260.170000	-15375.555000	0.000000	0.000000	0.000000	0.000000	-0.369914	20.656851	-0.910372	0.697284	-0.000000	0.000000	-0.000000	0.000000	-1.297100	-0.518840	0.320460	0.007080	0.983945	0.008789	-1.000000	-1.000000	-1.000000	-1.000000	-1.000000	-1.000000	-1.000000	146.482759	0.000000	-1.000000	-1.000000	554845.000000	1772311769.543140
-24188.040000	-30891.105000	-29257.740000	-15375.195000	0.000000	0.000000	0.000000	0.000000	-1.986246	21.923848	-0.407665	-0.195918	-0.000000	0.000000	-0.000000	0.000000	-1.297100	-0.518840	0.320460	0.007080	0.983945	0.008789	-1.000000	-1.000000	-1.000000	-1.000000	-1.000000	-1.000000	-1.000000	146.482759	0.000000	-1.000000	-1.000000	554846.000000	1772311769.543144
-24192.405000	-30868.965000	-29263.680000	-15377.940000	0.000000	0.000000	0.000000	0.000000	-4.428861	13.618611	-1.994274	-3.681795	0.000000	0.000000	-0.000000	0.000000	-1.297100	-0.518840	0.320460	0.007080	0.983945	0.008789	-1.000000	-1.000000	-1.000000	-1.000000	-1.000000	-1.000000	-1.000000	146.482759	0.000000	-1.000000	-1.000000	554847.000000	1772311769.546816
-24193.080000	-30862.305000	-29259.855000	-15369.840000	0.000000	0.000000	0.000000	0.000000	-4.937966	2.719754	-3.259980	-5.700724	0.000000	0.000000	-0.000000	0.000000	-1.297100	-0.518840	0.320460	0.007080	0.983945	0.008789	-1.000000	-1.000000	-1.000000	-1.000000	-1.000000	-1.000000	-1.000000	146.482759	0.000000	-1.000000	-1.000000	554848.000000	1772311769.546819
-24182.280000	-30869.685000	-29247.030000	-15348.195000	0.000000	0.000000	0.000000	0.000000	-2.166887	-4.775728	-1.932486	-3.002000	0.000000	0.000000	-0.000000	0.000000	-1.022420	-0.854560	0.610400	0.006348	0.982847	0.010437	-1.000000	-1.000000	-1.000000	-1.000000	-1.000000	-1.000000	-1.000000	146.482759	0.000000	-1.000000	-1.000000	554849.000000	1772311769.547567
-24196.230000	-30897.270000	-29258.280000	-15354.675000	0.000000	0.000000	0.000000	0.000000	2.609174	-9.108686	1.926161	3.743728	0.000000	0.000000	-0.000000	0.000000	-1.022420	-0.854560	0.610400	0.006348	0.982847	0.010437	-1.000000	-1.000000	-1.000000	-1.000000	-1.000000	-1.000000	-1.000000	146.482759	0.000000	-1.000000	-1.000000	554850.000000	1772311769.547570
-24203.205000	-30952.710000	-29265.435000	-15362.505000	0.000000	0.000000	0.000000	0.000000	6.186493	-14.026160	5.459222	9.798012	0.000000	0.000000	-0.000000	0.000000	-1.022420	-0.854560	0.610400	0.006348	0.982847	0.010437	-1.000000	-1.000000	-1.000000	-1.000000	-1.000000	-1.000000	-1.000000	146.482759	0.000000	-1.000000	-1.000000	554851.000000	1772311769.562685
-24204.240000	-30975.390000	-29264.175000	-15368.715000	0.000000	0.000000	0.000000	0.000000	6.105183	-21.004694	5.764912	10.210319	0.000000	0.000000	-0.000000	0.000000	-1.022420	-0.854560	0.610400	0.006348	0.982847	0.010437	-1.000000	-1.000000	-1.000000	-1.000000	-1.000000	-1.000000	-1.000000	146.482759	0.000000	-1.000000	-1.000000	554852.000000	1772311769.562691
-24223.230000	-30979.890000	-29276.685000	-15379.605000	0.000000	0.000000	0.000000	0.000000	2.836319	-25.611753	2.918120	4.471799	0.000000	0.000000	-0.000000	0.000000	-1.022420	-0.854560	0.610400	0.006348	0.982847	0.010437	-1.000000	-1.000000	-1.000000	-1.000000	-1.000000	-1.000000	-1.000000	146.482759	0.000000	-1.000000	-1.000000	554853.000000	1772311769.562697
-24222.330000	-31007.295000	-29276.865000	-15375.555000	0.000000	0.000000	0.000000	0.000000	-1.439901	-21.453737	-0.955789	-3.473964	0.000000	0.000000	-0.000000	0.000000	-1.022420	-0.854560	0.610400	0.006348	0.982847	0.010437	-1.000000	-1.000000	-1.000000	-1.000000	-1.000000	-1.000000	-1.000000	146.482759	0.000000	-1.000000	-1.000000	554854.000000	1772311769.562699
-24234.345000	-31009.005000	-29286.000000	-15383.565000	0.000000	0.000000	0.000000	0.000000	-4.429810	-7.925857	-3.740687	-8.711459	0.000000	0.000000	-0.000000	0.000000	-1.022420	-0.854560	0.610400	0.006348	0.982847	0.010437	-1.000000	-1.000000	-1.000000	-1.000000	-1.000000	-1.000000	-1.000000	146.482759	0.000000	-1.000000	-1.000000	554855.000000	1772311769.562702
-24227.910000	-31002.840000	-29278.440000	-15375.195000	0.000000	0.000000	0.000000	0.000000	-4.591921	9.513323	-4.142737	-8.700935	0.000000	0.000000	-0.000000	0.000000	-1.022420	-0.854560	0.610400	0.006348	0.982847	0.010437	-1.000000	-1.000000	-1.000000	-1.000000	-1.000000	-1.000000	-1.000000	146.482759	0.000000	-1.000000	-1.000000	554856.000000	1772311769.562704
-24213.915000	-31008.825000	-29266.290000	-15368.310000	0.000000	0.000000	0.000000	0.000000	-1.555310	24.160739	-1.743340	-4.038909	0.000000	0.000000	-0.000000	0.000000	-1.022420	-0.854560	0.610400	0.006348	0.982847	0.010437	-1.000000	-1.000000	-1.000000	-1.000000	-1.000000	-1.000000	-1.000000	146.482759	0.000000	-1.000000	-1.000000	554857.000000	1772311769.564101
-24198.615000	-31015.620000	-29250.270000	-15349.275000	0.000000	0.000000	0.000000	0.000000	3.918683	30.524906	2.929801	2.912807	0.000000	0.000000	-0.000000	0.000000	-1.022420	-0.854560	0.610400	0.006348	0.982847	0.010437	-1.000000	-1.000000	-1.000000	-1.000000	-1.000000	-1.000000	-1.000000	146.482759	0.000000	-1.000000	-1.000000	554858.000000	1772311769.564105
-24210.630000	-31017.015000	-29257.830000	-15353.505000	0.000000	0.000000	0.000000	0.000000	9.117528	26.335877	7.607274	8.990944	0.000000	0.000000	-0.000000	0.000000	0.183120	-1.541260	2.121140	0.004883	0.980893	0.012817	-1.000000	-1.000000	-1.000000	-1.000000	-1.000000	-1.000000	-1.000000	146.482759	0.000000	-1.000000	-1.000000	554859.000000	1772311769.568265
-24249.330000	-31006.170000	-29294.550000	-15387.705000	0.000000	0.000000	0.000000	0.000000	9.345499	14.449654	8.128040	10.278276	0.000000	0.000000	-0.000000	0.000000	0.183120	-1.541260	2.121140	0.004883	0.980893	0.012817	-1.000000	-1.000000	-1.000000	-1.000000	-1.000000	-1.000000	-1.000000	146.482759	0.000000	-1.000000	-1.000000	554860.000000	1772311769.568269
-24256.035000	-31001.040000	-29299.680000	-15390.990000	0.000000	0.000000	0.000000	0.000000	1.917174	1.108433	1.784096	4.349099	0.000000	0.000000	-0.000000	0.000000	0.183120	-1.541260	2.121140	0.004883	0.980893	0.012817	-1.000000	-1.000000	-1.000000	-1.000000	-1.000000	-1.000000	-1.000000	146.482759	0.000000	-1.000000	-1.000000	554861.000000	1772311769.571691
-24245.190000	-31007.430000	-29283.030000	-15374.205000	0.000000	0.000000	0.000000	0.000000	-8.846064	-8.717582	-7.732576	-5.276911	0.000000	0.000000	-0.000000	0.000000	0.183120	-1.541260	2.121140	0.004883	0.980893	0.012817	-1.000000	-1.000000	-1.000000	-1.000000	-1.000000	-1.000000	-1.000000	146.482759	0.000000	-1.000000	-1.000000	554862.000000	1772311769.571694
-24241.320000	-31034.745000	-29280.240000	-15370.200000	0.000000	0.000000	0.000000	0.000000	-14.320661	-14.330885	-12.430587	-10.817987	0.000000	0.000000	-0.000000	0.000000	0.183120	-1.541260	2.121140	0.004883	0.980893	0.012817	-1.000000	-1.000000	-1.000000	-1.000000	-1.000000	-1.000000	-1.000000	146.482759	0.000000	-1.000000	-1.000000	554863.000000	1772311769.576555
-24243.570000	-31060.665000	-29281.905000	-15371.325000	0.000000	0.000000	0.000000	0.000000	-10.443091	-17.812090	-8.674815	-8.444146	0.000000	0.000000	-0.000000	0.000000	0.183120	-1.541260	2.121140	0.004883	0.980893	0.012817	-1.000000	-1.000000	-1.000000	-1.000000	-1.000000	-1.000000	-1.000000	146.482759	0.000000	-1.000000	-1.000000	554864.000000	1772311769.576558
-24245.640000	-31042.620000	-29284.065000	-15372.990000	0.000000	0.000000	0.000000	0.000000	-0.948348	-19.388747	-0.263146	-1.402985	0.000000	0.000000	-0.000000	0.000000	0.183120	-1.541260	2.121140	0.004883	0.980893	0.012817	-1.000000	-1.000000	-1.000000	-1.000000	-1.000000	-1.000000	-1.000000	146.482759	0.000000	-1.000000	-1.000000	554865.000000	1772311769.580985
-24244.605000	-31035.420000	-29284.245000	-15374.160000	0.000000	0.000000	0.000000	0.000000	7.523513	-15.767682	6.678815	4.671040	0.000000	0.000000	-0.000000	0.000000	0.183120	-1.541260	2.121140	0.004883	0.980893	0.012817	-1.000000	-1.000000	-1.000000	-1.000000	-1.000000	-1.000000	-1.000000	146.482759	0.000000	-1.000000	-1.000000	554866.000000	1772311769.580988
-24251.310000	-31034.610000	-29288.295000	-15372.720000	0.000000	0.000000	0.000000	0.000000	10.781674	-5.384046	8.766080	6.660987	0.000000	0.000000	-0.000000	0.000000	0.183120	-1.541260	2.121140	0.004883	0.980893	0.012817	-1.000000	-1.000000	-1.000000	-1.000000	-1.000000	-1.000000	-1.000000	146.482759	0.000000	-1.000000	-1.000000	554867.000000	1772311769.583600
-24257.520000	-31030.425000	-29290.140000	-15367.950000	0.000000	0.000000	0.000000	0.000000	8.379909	7.467410	6.256459	5.022475	0.000000	0.000000	-0.000000	0.000000	0.183120	-1.541260	2.121140	0.004883	0.980893	0.012817	-1.000000	-1.000000	-1.000000	-1.000000	-1.000000	-1.000000	-1.000000	146.482759	0.000000	-1.000000	-1.000000	554868.000000	1772311769.583603
-24257.700000	-31045.815000	-29291.850000	-15366.780000	0.000000	0.000000	0.000000	0.000000	2.630083	15.959344	1.582390	2.041045	0.000000	0.000000	-0.000000	0.000000	0.564620	-0.854560	0.961380	0.008972	0.981443	0.012634	-1.000000	-1.000000	-1.000000	-1.000000	-1.000000	-1.000000	-1.000000	146.482759	0.000000	-1.000000	-1.000000	554869.000000	1772311769.587688
-24251.040000	-31073.625000	-29284.155000	-15363.090000	0.000000	0.000000	0.000000	0.000000	-2.784459	15.546526	-2.349451	-0.385194	0.000000	0.000000	-0.000000	0.000000	0.564620	-0.854560	0.961380	0.008972	0.981443	0.012634	-1.000000	-1.000000	-1.000000	-1.000000	-1.000000	-1.000000	-1.000000	146.482759	0.000000	-1.000000	-1.000000	554870.000000	1772311769.587691
-24254.055000	-31087.260000	-29284.380000	-15364.890000	0.000000	0.000000	0.000000	0.000000	-5.016461	6.545981	-3.631453	-1.666314	0.000000	0.000000	-0.000000	0.000000	0.564620	-0.854560	0.961380	0.008972	0.981443	0.012634	-1.000000	-1.000000	-1.000000	-1.000000	-1.000000	-1.000000	-1.000000	146.482759	0.000000	-1.000000	-1.000000	554871.000000	1772311769.591878
-24252.840000	-31085.640000	-29283.030000	-15366.420000	0.000000	0.000000	0.000000	0.000000	-3.946244	-5.185102	-2.408439	-2.194466	0.000000	0.000000	-0.000000	0.000000	0.564620	-0.854560	0.961380	0.008972	0.981443	0.012634	-1.000000	-1.000000	-1.000000	-1.000000	-1.000000	-1.000000	-1.000000	146.482759	0.000000	-1.000000	-1.000000	554872.000000	1772311769.591881
-24254.730000	-31076.235000	-29282.850000	-15358.950000	0.000000	0.000000	0.000000	0.000000	-1.512946	-11.663985	-0.388608	-2.364259	0.000000	0.000000	-0.000000	0.000000	0.564620	-0.854560	0.961380	0.008972	0.981443	0.012634	-1.000000	-1.000000	-1.000000	-1.000000	-1.000000	-1.000000	-1.000000	146.482759	0.000000	-1.000000	-1.000000	554873.000000	1772311769.602671
-24264.315000	-31081.140000	-29293.065000	-15364.440000	0.000000	0.000000	0.000000	0.000000	0.214293	-9.065318	0.660115	-2.067490	0.000000	0.000000	-0.000000	0.000000	0.564620	-0.854560	0.961380	0.008972	0.981443	0.012634	-1.000000	-1.000000	-1.000000	-1.000000	-1.000000	-1.000000	-1.000000	146.482759	0.000000	-1.000000	-1.000000	554874.000000	1772311769.602674
-24262.470000	-31106.790000	-29290.635000	-15362.730000	0.000000	0.000000	0.000000	0.000000	0.256997	-0.989511	-0.004518	-1.386458	0.000000	0.000000	-0.000000	0.000000	0.564620	-0.854560	0.961380	0.008972	0.981443	0.012634	-1.000000	-1.000000	-1.000000	-1.000000	-1.000000	-1.000000	-1.000000	146.482759	0.000000	-1.000000	-1.000000	554875.000000	1772311769.602678
-24248.655000	-31120.470000	-29274.525000	-15346.665000	0.000000	0.000000	0.000000	0.000000	-0.438991	5.184492	-1.217778	-0.425203	0.000000	0.000000	-0.000000	0.000000	0.564620	-0.854560	0.961380	0.008972	0.981443	0.012634	-1.000000	-1.000000	-1.000000	-1.000000	-1.000000	-1.000000	-1.000000	146.482759	0.000000	-1.000000	-1.000000	554876.000000	1772311769.602680
-24244.155000	-31141.170000	-29266.065000	-15335.505000	0.000000	0.000000	0.000000	0.000000	0.088192	5.300283	-0.733549	1.352500	0.000000	0.000000	-0.000000	0.000000	0.564620	-0.854560	0.961380	0.008972	0.981443	0.012634	-1.000000	-1.000000	-1.000000	-1.000000	-1.000000	-1.000000	-1.000000	146.482759	0.000000	-1.000000	-1.000000	554877.000000	1772311769.603700
-24278.040000	-31129.290000	-29295.180000	-15360.210000	0.000000	0.000000	0.000000	0.000000	1.472362	1.382750	1.248077	3.279107	0.000000	0.000000	-0.000000	0.000000	0.564620	-0.854560	0.961380	0.008972	0.981443	0.012634	-1.000000	-1.000000	-1.000000	-1.000000	-1.000000	-1.000000	-1.000000	146.482759	0.000000	-1.000000	-1.000000	554878.000000	1772311769.603703
-24304.770000	-31131.990000	-29320.560000	-15385.320000	0.000000	0.000000	0.000000	0.000000	0.312056	-1.349661	1.050565	2.289569	0.000000	0.000000	-0.000000	0.000000	0.732480	-0.335720	-0.198380	0.011414	0.981138	0.013306	-1.000000	-1.000000	-1.000000	-1.000000	-1.000000	-1.000000	-1.000000	146.482759	0.000000	-1.000000	-1.000000	554879.000000	1772311769.611869
-24287.805000	-31146.885000	-29302.020000	-15363.945000	0.000000	0.000000	0.000000	0.000000	-4.302877	-0.227982	-2.932193	-2.605804	0.000000	0.000000	-0.000000	0.000000	0.732480	-0.335720	-0.198380	0.011414	0.981138	0.013306	-1.000000	-1.000000	-1.000000	-1.000000	-1.000000	-1.000000	-1.000000	146.482759	0.000000	-1.000000	-1.000000	554880.000000	1772311769.611873
-24286.860000	-31180.140000	-29303.280000	-15369.705000	0.000000	0.000000	0.000000	0.000000	-7.496205	2.084008	-6.435906	-6.972407	0.000000	0.000000	-0.000000	0.000000	0.732480	-0.335720	-0.198380	0.011414	0.981138	0.013306	-1.000000	-1.000000	-1.000000	-1.000000	-1.000000	-1.000000	-1.000000	146.482759	0.000000	-1.000000	-1.000000	554881.000000	1772311769.611877
-24271.605000	-31214.025000	-29293.875000	-15374.205000	0.000000	0.000000	0.000000	0.000000	-4.472541	1.132683	-4.782155	-6.446961	0.000000	0.000000	-0.000000	0.000000	0.732480	-0.335720	-0.198380	0.011414	0.981138	0.013306	-1.000000	-1.000000	-1.000000	-1.000000	-1.000000	-1.000000	-1.000000	146.482759	0.000000	-1.000000	-1.000000	554882.000000	1772311769.611879
-24258.960000	-31231.530000	-29275.740000	-15349.680000	0.000000	0.000000	0.000000	0.000000	3.861250	-3.814803	1.739210	-1.423195	0.000000	0.000000	-0.000000	0.000000	0.732480	-0.335720	-0.198380	0.011414	0.981138	0.013306	-1.000000	-1.000000	-1.000000	-1.000000	-1.000000	-1.000000	-1.000000	146.482759	0.000000	-1.000000	-1.000000	554883.000000	1772311769.615687
-24265.620000	-31279.230000	-29276.280000	-15341.805000	0.000000	0.000000	0.000000	0.000000	12.144434	-9.170933	9.175593	5.473252	0.000000	0.000000	-0.000000	0.000000	0.732480	-0.335720	-0.198380	0.011414	0.981138	0.013306	-1.000000	-1.000000	-1.000000	-1.000000	-1.000000	-1.000000	-1.000000	146.482759	0.000000	-1.000000	-1.000000	554884.000000	1772311769.615691
-24272.730000	-31331.205000	-29283.030000	-15346.890000	0.000000	0.000000	0.000000	0.000000	14.515295	-11.775049	12.673877	10.945290	0.000000	0.000000	-0.000000	0.000000	0.732480	-0.335720	-0.198380	0.011414	0.981138	0.013306	-1.000000	-1.000000	-1.000000	-1.000000	-1.000000	-1.000000	-1.000000	146.482759	0.000000	-1.000000	-1.000000	554885.000000	1772311769.619761
-24282.990000	-31369.320000	-29291.490000	-15353.820000	0.000000	0.000000	0.000000	0.000000	8.745204	-11.183786	9.274193	11.290894	0.000000	0.000000	-0.000000	0.000000	0.732480	-0.335720	-0.198380	0.011414	0.981138	0.013306	-1.000000	-1.000000	-1.000000	-1.000000	-1.000000	-1.000000	-1.000000	146.482759	0.000000	-1.000000	-1.000000	554886.000000	1772311769.619766
-24288.795000	-31388.670000	-29293.605000	-15353.460000	0.000000	0.000000	0.000000	0.000000	-1.997530	-7.109583	0.479732	5.506981	0.000000	0.000000	-0.000000	0.000000	0.732480	-0.335720	-0.198380	0.011414	0.981138	0.013306	-1.000000	-1.000000	-1.000000	-1.000000	-1.000000	-1.000000	-1.000000	146.482759	0.000000	-1.000000	-1.000000	554887.000000	1772311769.623893
-24284.970000	-31368.330000	-29292.840000	-15352.560000	0.000000	0.000000	0.000000	0.000000	-11.503854	1.872019	-8.550338	-3.026829	0.000000	0.000000	-0.000000	0.000000	0.732480	-0.335720	-0.198380	0.011414	0.981138	0.013306	-1.000000	-1.000000	-1.000000	-1.000000	-1.000000	-1.000000	-1.000000	146.482759	0.000000	-1.000000	-1.000000	554888.000000	1772311769.623896
-24282.765000	-31351.275000	-29291.310000	-15351.075000	0.000000	0.000000	0.000000	0.000000	-14.641587	15.946020	-12.814735	-9.330259	0.000000	0.000000	-0.000000	0.000000	0.549360	-0.091560	-0.167860	0.010986	0.982236	0.013977	-1.000000	-1.000000	-1.000000	-1.000000	-1.000000	-1.000000	-1.000000	146.482759	0.000000	-1.000000	-1.000000	554889.000000	1772311769.628686
-24290.640000	-31305.465000	-29298.780000	-15358.770000	0.000000	0.000000	0.000000	0.000000	-10.644315	31.342341	-10.883061	-10.730112	0.000000	0.000000	-0.000000	0.000000	0.549360	-0.091560	-0.167860	0.010986	0.982236	0.013977	-1.000000	-1.000000	-1.000000	-1.000000	-1.000000	-1.000000	-1.000000	146.482759	0.000000	-1.000000	-1.000000	554890.000000	1772311769.628689
-24289.470000	-31281.930000	-29294.235000	-15351.885000	0.000000	0.000000	0.000000	0.000000	-3.073930	41.210904	-5.053163	-7.867180	0.000000	0.000000	-0.000000	0.000000	0.549360	-0.091560	-0.167860	0.010986	0.982236	0.013977	-1.000000	-1.000000	-1.000000	-1.000000	-1.000000	-1.000000	-1.000000	146.482759	0.000000	-1.000000	-1.000000	554891.000000	1772311769.631894
-24286.545000	-31292.820000	-29288.565000	-15346.485000	0.000000	0.000000	0.000000	0.000000	3.769312	38.669241	1.444102	-2.737255	0.000000	0.000000	-0.000000	0.000000	0.549360	-0.091560	-0.167860	0.010986	0.982236	0.013977	-1.000000	-1.000000	-1.000000	-1.000000	-1.000000	-1.000000	-1.000000	146.482759	0.000000	-1.000000	-1.000000	554892.000000	1772311769.631896
-24287.625000	-31321.395000	-29286.225000	-15343.335000	0.000000	0.000000	0.000000	0.000000	7.633553	20.125859	6.452737	2.726314	0.000000	0.000000	-0.000000	0.000000	0.549360	-0.091560	-0.167860	0.010986	0.982236	0.013977	-1.000000	-1.000000	-1.000000	-1.000000	-1.000000	-1.000000	-1.000000	146.482759	0.000000	-1.000000	-1.000000	554893.000000	1772311769.637517
-24301.845000	-31332.195000	-29295.720000	-15354.270000	0.000000	0.000000	0.000000	0.000000	7.872059	-10.218109	8.521777	6.369671	0.000000	0.000000	-0.000000	0.000000	0.549360	-0.091560	-0.167860	0.010986	0.982236	0.013977	-1.000000	-1.000000	-1.000000	-1.000000	-1.000000	-1.000000	-1.000000	146.482759	0.000000	-1.000000	-1.000000	554894.000000	1772311769.637520
-24349.725000	-31309.965000	-29340.000000	-15388.200000	0.000000	0.000000	0.000000	0.000000	3.929143	-39.065331	6.082957	5.821607	0.000000	0.000000	-0.000000	0.000000	0.549360	-0.091560	-0.167860	0.010986	0.982236	0.013977	-1.000000	-1.000000	-1.000000	-1.000000	-1.000000	-1.000000	-1.000000	146.482759	0.000000	-1.000000	-1.000000	554895.000000	1772311769.641881
-24350.130000	-31302.720000	-29340.990000	-15388.740000	0.000000	0.000000	0.000000	0.000000	-3.622534	-51.525141	-1.045206	0.548179	0.000000	0.000000	-0.000000	0.000000	0.549360	-0.091560	-0.167860	0.010986	0.982236	0.013977	-1.000000	-1.000000	-1.000000	-1.000000	-1.000000	-1.000000	-1.000000	146.482759	0.000000	-1.000000	-1.000000	554896.000000	1772311769.641885
-24330.690000	-31307.490000	-29320.965000	-15371.550000	0.000000	0.000000	0.000000	0.000000	-9.910068	-42.698003	-8.296188	-5.419886	0.000000	0.000000	-0.000000	0.000000	0.549360	-0.091560	-0.167860	0.010986	0.982236	0.013977	-1.000000	-1.000000	-1.000000	-1.000000	-1.000000	-1.000000	-1.000000	146.482759	0.000000	-1.000000	-1.000000	554897.000000	1772311769.643864
-24320.520000	-31341.780000	-29305.035000	-15351.210000	0.000000	0.000000	0.000000	0.000000	-8.369160	-21.234353	-8.601868	-5.820831	0.000000	0.000000	-0.000000	0.000000	0.549360	-0.091560	-0.167860	0.010986	0.982236	0.013977	-1.000000	-1.000000	-1.000000	-1.000000	-1.000000	-1.000000	-1.000000	146.482759	0.000000	-1.000000	-1.000000	554898.000000	1772311769.643867
-24324.390000	-31344.705000	-29308.635000	-15350.760000	0.000000	0.000000	0.000000	0.000000	1.265083	-0.813960	-0.538102	0.916221	0.000000	0.000000	-0.000000	0.000000	0.930860	-0.473060	0.610400	0.009277	0.983274	0.015320	-1.000000	-1.000000	-1.000000	-1.000000	-1.000000	-1.000000	-1.000000	146.482759	0.000000	-1.000000	-1.000000	554899.000000	1772311769.647895
-24326.775000	-31350.645000	-29308.905000	-15349.185000	0.000000	0.000000	0.000000	0.000000	11.759858	11.003751	9.430646	9.412550	0.000000	0.000000	-0.000000	0.000000	0.930860	-0.473060	0.610400	0.009277	0.983274	0.015320	-1.000000	-1.000000	-1.000000	-1.000000	-1.000000	-1.000000	-1.000000	146.482759	0.000000	-1.000000	-1.000000	554900.000000	1772311769.647897
-24323.355000	-31361.985000	-29300.805000	-15343.515000	0.000000	0.000000	0.000000	0.000000	15.785735	14.909138	13.923565	12.939465	0.000000	0.000000	-0.000000	0.000000	0.930860	-0.473060	0.610400	0.009277	0.983274	0.015320	-1.000000	-1.000000	-1.000000	-1.000000	-1.000000	-1.000000	-1.000000	146.482759	0.000000	-1.000000	-1.000000	554901.000000	1772311769.651828
-24304.095000	-31390.515000	-29283.615000	-15338.205000	0.000000	0.000000	0.000000	0.000000	12.140352	13.957787	11.276792	9.467966	0.000000	0.000000	-0.000000	0.000000	0.930860	-0.473060	0.610400	0.009277	0.983274	0.015320	-1.000000	-1.000000	-1.000000	-1.000000	-1.000000	-1.000000	-1.000000	146.482759	0.000000	-1.000000	-1.000000	554902.000000	1772311769.651831
-24307.650000	-31404.330000	-29286.000000	-15340.680000	0.000000	0.000000	0.000000	0.000000	4.746604	9.982339	4.753722	1.755574	0.000000	0.000000	-0.000000	0.000000	0.930860	-0.473060	0.610400	0.009277	0.983274	0.015320	-1.000000	-1.000000	-1.000000	-1.000000	-1.000000	-1.000000	-1.000000	146.482759	0.000000	-1.000000	-1.000000	554903.000000	1772311769.655824
-24358.500000	-31396.365000	-29338.560000	-15383.700000	0.000000	0.000000	0.000000	0.000000	-3.429555	5.245615	-3.169620	-6.910351	0.000000	0.000000	-0.000000	0.000000	0.930860	-0.473060	0.610400	0.009277	0.983274	0.015320	-1.000000	-1.000000	-1.000000	-1.000000	-1.000000	-1.000000	-1.000000	146.482759	0.000000	-1.000000	-1.000000	554904.000000	1772311769.655827
-24358.005000	-31383.495000	-29339.640000	-15384.420000	0.000000	0.000000	0.000000	0.000000	-12.174959	3.286997	-12.242954	-14.694983	0.000000	0.000000	-0.000000	0.000000	0.930860	-0.473060	0.610400	0.009277	0.983274	0.015320	-1.000000	-1.000000	-1.000000	-1.000000	-1.000000	-1.000000	-1.000000	146.482759	0.000000	-1.000000	-1.000000	554905.000000	1772311769.660947
-24359.220000	-31414.725000	-29332.620000	-15372.270000	0.000000	0.000000	0.000000	0.000000	-18.879044	5.062138	-19.299755	-18.446959	0.000000	0.000000	-0.000000	0.000000	0.930860	-0.473060	0.610400	0.009277	0.983274	0.015320	-1.000000	-1.000000	-1.000000	-1.000000	-1.000000	-1.000000	-1.000000	146.482759	0.000000	-1.000000	-1.000000	554906.000000	1772311769.660950
-24361.695000	-31454.550000	-29334.825000	-15369.120000	0.000000	0.000000	0.000000	0.000000	-18.433298	6.062385	-18.492441	-14.175695	0.000000	0.000000	-0.000000	0.000000	0.930860	-0.473060	0.610400	0.009277	0.983274	0.015320	-1.000000	-1.000000	-1.000000	-1.000000	-1.000000	-1.000000	-1.000000	146.482759	0.000000	-1.000000	-1.000000	554907.000000	1772311769.663983
