Channel1	Channel2	Channel3	Channel4	Channel5	Channel6	Channel7	Channel8	FilteredChannel1	FilteredChannel2	FilteredChannel3	FilteredChannel4	FilteredChannel5	FilteredChannel6	FilteredChannel7	FilteredChannel8	GyroX	GyroY	GyroZ	AccX	AccY	AccZ	PPG1	PPG2	rawPPG1	rawPPG2	rawPPG3	Hr	Hrv	Battery	Trigger	PhysicalTrigger	AutoTrigger	NumMeasurements	Timestamp
-20953.080000	-28769.265000	-28027.755000	-15146.820000	0.000000	0.000000	0.000000	0.000000	-4.718419	19.956120	-3.269308	-2.108189	0.000000	0.000000	-0.000000	0.000000	8.988140	0.763000	-0.610400	-0.017029	0.973813	0.052368	-1.000000	-1.000000	-1.000000	-1.000000	-1.000000	-1.000000	-1.000000	146.758621	0.000000	-1.000000	-1.000000	543861.000000	1772311747.504238
-20930.670000	-28763.100000	-28007.415000	-15133.455000	0.000000	0.000000	0.000000	0.000000	-2.779550	10.030885	-1.870741	-1.320176	0.000000	0.000000	-0.000000	0.000000	8.988140	0.763000	-0.610400	-0.017029	0.973813	0.052368	-1.000000	-1.000000	-1.000000	-1.000000	-1.000000	-1.000000	-1.000000	146.758621	0.000000	-1.000000	-1.000000	543862.000000	1772311747.504241
-20932.920000	-28786.950000	-28010.880000	-15139.620000	0.000000	0.000000	0.000000	0.000000	1.944242	0.558086	1.545023	0.659145	0.000000	0.000000	-0.000000	0.000000	9.293340	0.381500	-0.763000	-0.017090	0.977842	0.047607	-1.000000	-1.000000	-1.000000	-1.000000	-1.000000	-1.000000	-1.000000	146.758621	0.000000	-1.000000	-1.000000	543863.000000	1772311747.508405
-20939.535000	-28817.730000	-28021.545000	-15156.495000	0.000000	0.000000	0.000000	0.000000	6.558047	-8.237834	4.772937	2.025125	0.000000	0.000000	-0.000000	0.000000	9.293340	0.381500	-0.763000	-0.017090	0.977842	0.047607	-1.000000	-1.000000	-1.000000	-1.000000	-1.000000	-1.000000	-1.000000	146.758621	0.000000	-1.000000	-1.000000	543864.000000	1772311747.508429
-20947.095000	-28809.090000	-28028.610000	-15160.905000	0.000000	0.000000	0.000000	0.000000	6.984548	-16.443985	4.464609	0.543456	0.000000	0.000000	-0.000000	0.000000	9.293340	0.381500	-0.763000	-0.017090	0.977842	0.047607	-1.000000	-1.000000	-1.000000	-1.000000	-1.000000	-1.000000	-1.000000	146.758621	0.000000	-1.000000	-1.000000	543865.000000	1772311747.512312
-20951.235000	-28787.985000	-28031.085000	-15161.760000	0.000000	0.000000	0.000000	0.000000	2.350705	-19.573112	0.217826	-3.079918	0.000000	0.000000	-0.000000	0.000000	9.293340	0.381500	-0.763000	-0.017090	0.977842	0.047607	-1.000000	-1.000000	-1.000000	-1.000000	-1.000000	-1.000000	-1.000000	146.758621	0.000000	-1.000000	-1.000000	543866.000000	1772311747.512315
-20955.780000	-28759.005000	-28032.255000	-15164.730000	0.000000	0.000000	0.000000	0.000000	-4.211724	-12.578538	-4.780466	-5.593144	0.000000	0.000000	-0.000000	0.000000	9.293340	0.381500	-0.763000	-0.017090	0.977842	0.047607	-1.000000	-1.000000	-1.000000	-1.000000	-1.000000	-1.000000	-1.000000	146.758621	0.000000	-1.000000	-1.000000	543867.000000	1772311747.516320
-20956.770000	-28723.770000	-28032.165000	-15165.270000	0.000000	0.000000	0.000000	0.000000	-8.552560	3.384202	-6.972153	-4.787180	0.000000	0.000000	-0.000000	0.000000	9.293340	0.381500	-0.763000	-0.017090	0.977842	0.047607	-1.000000	-1.000000	-1.000000	-1.000000	-1.000000	-1.000000	-1.000000	146.758621	0.000000	-1.000000	-1.000000	543868.000000	1772311747.516323
-20952.090000	-28687.860000	-28026.765000	-15154.290000	0.000000	0.000000	0.000000	0.000000	-8.319812	20.791522	-5.093084	-0.948392	0.000000	0.000000	-0.000000	0.000000	9.293340	0.381500	-0.763000	-0.017090	0.977842	0.047607	-1.000000	-1.000000	-1.000000	-1.000000	-1.000000	-1.000000	-1.000000	146.758621	0.000000	-1.000000	-1.000000	543869.000000	1772311747.520295
-20947.635000	-28677.825000	-28025.415000	-15157.035000	0.000000	0.000000	0.000000	0.000000	-3.816353	30.597358	-0.406036	4.075196	0.000000	0.000000	-0.000000	0.000000	9.293340	0.381500	-0.763000	-0.017090	0.977842	0.047607	-1.000000	-1.000000	-1.000000	-1.000000	-1.000000	-1.000000	-1.000000	146.758621	0.000000	-1.000000	-1.000000	543870.000000	1772311747.520298
-20944.890000	-28679.400000	-28021.815000	-15158.205000	0.000000	0.000000	0.000000	0.000000	2.499155	26.839913	4.457286	7.652657	0.000000	0.000000	-0.000000	0.000000	9.293340	0.381500	-0.763000	-0.017090	0.977842	0.047607	-1.000000	-1.000000	-1.000000	-1.000000	-1.000000	-1.000000	-1.000000	146.758621	0.000000	-1.000000	-1.000000	543871.000000	1772311747.525816
-20944.845000	-28678.545000	-28023.570000	-15158.610000	0.000000	0.000000	0.000000	0.000000	7.365680	10.094074	7.045120	7.722565	0.000000	0.000000	-0.000000	0.000000	9.293340	0.381500	-0.763000	-0.017090	0.977842	0.047607	-1.000000	-1.000000	-1.000000	-1.000000	-1.000000	-1.000000	-1.000000	146.758621	0.000000	-1.000000	-1.000000	543872.000000	1772311747.525819
-20953.710000	-28673.145000	-28033.200000	-15161.040000	0.000000	0.000000	0.000000	0.000000	8.373087	-11.807623	6.138464	4.404199	0.000000	0.000000	-0.000000	0.000000	6.744920	0.030520	-0.640920	-0.016846	0.983701	0.039856	-1.000000	-1.000000	-1.000000	-1.000000	-1.000000	-1.000000	-1.000000	146.758621	0.000000	-1.000000	-1.000000	543873.000000	1772311747.528419
-20959.515000	-28628.145000	-28037.115000	-15162.345000	0.000000	0.000000	0.000000	0.000000	5.086856	-27.496166	2.121821	-0.339127	0.000000	0.000000	-0.000000	0.000000	6.744920	0.030520	-0.640920	-0.016846	0.983701	0.039856	-1.000000	-1.000000	-1.000000	-1.000000	-1.000000	-1.000000	-1.000000	146.758621	0.000000	-1.000000	-1.000000	543874.000000	1772311747.528423
-20954.970000	-28609.380000	-28032.795000	-15162.615000	0.000000	0.000000	0.000000	0.000000	-0.455981	-28.755907	-2.784453	-4.224913	0.000000	0.000000	-0.000000	0.000000	6.744920	0.030520	-0.640920	-0.016846	0.983701	0.039856	-1.000000	-1.000000	-1.000000	-1.000000	-1.000000	-1.000000	-1.000000	146.758621	0.000000	-1.000000	-1.000000	543875.000000	1772311747.532255
-20948.805000	-28593.450000	-28024.470000	-15154.695000	0.000000	0.000000	0.000000	0.000000	-4.647947	-16.619039	-5.428569	-5.642173	0.000000	0.000000	-0.000000	0.000000	6.744920	0.030520	-0.640920	-0.016846	0.983701	0.039856	-1.000000	-1.000000	-1.000000	-1.000000	-1.000000	-1.000000	-1.000000	146.758621	0.000000	-1.000000	-1.000000	543876.000000	1772311747.532258
-20950.065000	-28603.755000	-28025.820000	-15152.490000	0.000000	0.000000	0.000000	0.000000	-5.094837	-0.742465	-4.237600	-4.175282	0.000000	0.000000	-0.000000	0.000000	6.744920	0.030520	-0.640920	-0.016846	0.983701	0.039856	-1.000000	-1.000000	-1.000000	-1.000000	-1.000000	-1.000000	-1.000000	146.758621	0.000000	-1.000000	-1.000000	543877.000000	1772311747.536314
-20962.350000	-28581.795000	-28039.590000	-15163.695000	0.000000	0.000000	0.000000	0.000000	-2.756746	9.001442	-0.941440	-1.201873	0.000000	0.000000	-0.000000	0.000000	6.744920	0.030520	-0.640920	-0.016846	0.983701	0.039856	-1.000000	-1.000000	-1.000000	-1.000000	-1.000000	-1.000000	-1.000000	146.758621	0.000000	-1.000000	-1.000000	543878.000000	1772311747.536317
-20966.670000	-28565.280000	-28046.070000	-15172.290000	0.000000	0.000000	0.000000	0.000000	-0.598126	10.175556	1.072545	0.656519	0.000000	0.000000	-0.000000	0.000000	6.744920	0.030520	-0.640920	-0.016846	0.983701	0.039856	-1.000000	-1.000000	-1.000000	-1.000000	-1.000000	-1.000000	-1.000000	146.758621	0.000000	-1.000000	-1.000000	543879.000000	1772311747.540381
-20945.115000	-28586.700000	-28024.515000	-15158.475000	0.000000	0.000000	0.000000	0.000000	0.214268	6.182629	0.827388	0.339469	0.000000	0.000000	-0.000000	0.000000	6.744920	0.030520	-0.640920	-0.016846	0.983701	0.039856	-1.000000	-1.000000	-1.000000	-1.000000	-1.000000	-1.000000	-1.000000	146.758621	0.000000	-1.000000	-1.000000	543880.000000	1772311747.540384
-20946.240000	-28612.260000	-28022.850000	-15154.425000	0.000000	0.000000	0.000000	0.000000	1.233804	-0.336314	0.685061	-0.262047	0.000000	0.000000	-0.000000	0.000000	6.744920	0.030520	-0.640920	-0.016846	0.983701	0.039856	-1.000000	-1.000000	-1.000000	-1.000000	-1.000000	-1.000000	-1.000000	146.758621	0.000000	-1.000000	-1.000000	543881.000000	1772311747.544333
-20946.600000	-28621.665000	-28023.705000	-15155.415000	0.000000	0.000000	0.000000	0.000000	3.114567	-7.936244	2.132154	0.675263	0.000000	0.000000	-0.000000	0.000000	6.744920	0.030520	-0.640920	-0.016846	0.983701	0.039856	-1.000000	-1.000000	-1.000000	-1.000000	-1.000000	-1.000000	-1.000000	146.758621	0.000000	-1.000000	-1.000000	543882.000000	1772311747.544336
-20946.870000	-28630.170000	-28024.155000	-15156.225000	0.000000	0.000000	0.000000	0.000000	4.117213	-13.108559	3.531719	2.323890	0.000000	0.000000	-0.000000	0.000000	4.730600	0.015260	-0.579880	-0.017517	0.984922	0.034973	-1.000000	-1.000000	-1.000000	-1.000000	-1.000000	-1.000000	-1.000000	146.758621	0.000000	-1.000000	-1.000000	543883.000000	1772311747.548532
-20951.370000	-28618.470000	-28027.845000	-15159.105000	0.000000	0.000000	0.000000	0.000000	2.787229	-11.681660	2.875033	2.787546	0.000000	0.000000	-0.000000	0.000000	4.730600	0.015260	-0.579880	-0.017517	0.984922	0.034973	-1.000000	-1.000000	-1.000000	-1.000000	-1.000000	-1.000000	-1.000000	146.758621	0.000000	-1.000000	-1.000000	543884.000000	1772311747.548535
-20950.470000	-28611.585000	-28027.935000	-15157.755000	0.000000	0.000000	0.000000	0.000000	-0.370556	-2.669552	0.138612	1.448882	0.000000	0.000000	-0.000000	0.000000	4.730600	0.015260	-0.579880	-0.017517	0.984922	0.034973	-1.000000	-1.000000	-1.000000	-1.000000	-1.000000	-1.000000	-1.000000	146.758621	0.000000	-1.000000	-1.000000	543885.000000	1772311747.552272
-20953.845000	-28601.640000	-28032.570000	-15160.725000	0.000000	0.000000	0.000000	0.000000	-3.555361	10.228877	-3.090469	-0.755982	0.000000	0.000000	-0.000000	0.000000	4.730600	0.015260	-0.579880	-0.017517	0.984922	0.034973	-1.000000	-1.000000	-1.000000	-1.000000	-1.000000	-1.000000	-1.000000	146.758621	0.000000	-1.000000	-1.000000	543886.000000	1772311747.552274
-20949.255000	-28592.145000	-28030.365000	-15158.295000	0.000000	0.000000	0.000000	0.000000	-5.017063	20.692373	-5.024996	-2.441727	0.000000	0.000000	-0.000000	0.000000	4.730600	0.015260	-0.579880	-0.017517	0.984922	0.034973	-1.000000	-1.000000	-1.000000	-1.000000	-1.000000	-1.000000	-1.000000	146.758621	0.000000	-1.000000	-1.000000	543887.000000	1772311747.557732
-20936.880000	-28580.985000	-28017.720000	-15147.270000	0.000000	0.000000	0.000000	0.000000	-3.842904	23.867674	-4.473808	-2.552816	0.000000	0.000000	-0.000000	0.000000	4.730600	0.015260	-0.579880	-0.017517	0.984922	0.034973	-1.000000	-1.000000	-1.000000	-1.000000	-1.000000	-1.000000	-1.000000	146.758621	0.000000	-1.000000	-1.000000	543888.000000	1772311747.557735
-20939.040000	-28576.215000	-28019.745000	-15148.665000	0.000000	0.000000	0.000000	0.000000	-0.424651	18.836034	-1.377175	-0.842035	0.000000	0.000000	-0.000000	0.000000	4.730600	0.015260	-0.579880	-0.017517	0.984922	0.034973	-1.000000	-1.000000	-1.000000	-1.000000	-1.000000	-1.000000	-1.000000	146.758621	0.000000	-1.000000	-1.000000	543889.000000	1772311747.560543
-20953.800000	-28577.295000	-28035.630000	-15164.505000	0.000000	0.000000	0.000000	0.000000	2.861131	8.041786	2.167001	1.181826	0.000000	0.000000	-0.000000	0.000000	4.730600	0.015260	-0.579880	-0.017517	0.984922	0.034973	-1.000000	-1.000000	-1.000000	-1.000000	-1.000000	-1.000000	-1.000000	146.758621	0.000000	-1.000000	-1.000000	543890.000000	1772311747.560546
-20954.970000	-28580.895000	-28035.720000	-15164.190000	0.000000	0.000000	0.000000	0.000000	3.181909	-4.531851	3.168099	1.222925	0.000000	0.000000	-0.000000	0.000000	4.730600	0.015260	-0.579880	-0.017517	0.984922	0.034973	-1.000000	-1.000000	-1.000000	-1.000000	-1.000000	-1.000000	-1.000000	146.758621	0.000000	-1.000000	-1.000000	543891.000000	1772311747.564431
-20954.115000	-28566.585000	-28033.020000	-15160.095000	0.000000	0.000000	0.000000	0.000000	0.547356	-14.506335	1.293044	-0.706288	0.000000	0.000000	-0.000000	0.000000	4.730600	0.015260	-0.579880	-0.017517	0.984922	0.034973	-1.000000	-1.000000	-1.000000	-1.000000	-1.000000	-1.000000	-1.000000	146.758621	0.000000	-1.000000	-1.000000	543892.000000	1772311747.564434
-20951.145000	-28556.190000	-28030.680000	-15157.665000	0.000000	0.000000	0.000000	0.000000	-2.172386	-18.116366	-0.866627	-2.147886	0.000000	0.000000	-0.000000	0.000000	3.265640	-0.213640	-0.381500	-0.016846	0.985105	0.033813	-1.000000	-1.000000	-1.000000	-1.000000	-1.000000	-1.000000	-1.000000	146.758621	0.000000	-1.000000	-1.000000	543893.000000	1772311747.568677
-20947.545000	-28549.260000	-28027.845000	-15154.695000	0.000000	0.000000	0.000000	0.000000	-2.506636	-14.433413	-1.120438	-1.394057	0.000000	0.000000	-0.000000	0.000000	3.265640	-0.213640	-0.381500	-0.016846	0.985105	0.033813	-1.000000	-1.000000	-1.000000	-1.000000	-1.000000	-1.000000	-1.000000	146.758621	0.000000	-1.000000	-1.000000	543894.000000	1772311747.568679
-20943.180000	-28575.990000	-28023.435000	-15149.475000	0.000000	0.000000	0.000000	0.000000	-0.339969	-7.014469	0.508458	1.013293	0.000000	0.000000	-0.000000	0.000000	3.265640	-0.213640	-0.381500	-0.016846	0.985105	0.033813	-1.000000	-1.000000	-1.000000	-1.000000	-1.000000	-1.000000	-1.000000	146.758621	0.000000	-1.000000	-1.000000	543895.000000	1772311747.572547
-20942.955000	-28585.530000	-28023.795000	-15152.265000	0.000000	0.000000	0.000000	0.000000	2.601480	-1.616254	2.538469	3.309629	0.000000	0.000000	-0.000000	0.000000	3.265640	-0.213640	-0.381500	-0.016846	0.985105	0.033813	-1.000000	-1.000000	-1.000000	-1.000000	-1.000000	-1.000000	-1.000000	146.758621	0.000000	-1.000000	-1.000000	543896.000000	1772311747.572550
-20939.490000	-28603.890000	-28019.160000	-15146.595000	0.000000	0.000000	0.000000	0.000000	4.290889	-0.997092	3.430640	3.949264	0.000000	0.000000	-0.000000	0.000000	3.265640	-0.213640	-0.381500	-0.016846	0.985105	0.033813	-1.000000	-1.000000	-1.000000	-1.000000	-1.000000	-1.000000	-1.000000	146.758621	0.000000	-1.000000	-1.000000	543897.000000	1772311747.576564
-20937.780000	-28630.800000	-28017.180000	-15143.265000	0.000000	0.000000	0.000000	0.000000	3.819315	-3.351674	2.670161	2.732031	0.000000	0.000000	-0.000000	0.000000	3.265640	-0.213640	-0.381500	-0.016846	0.985105	0.033813	-1.000000	-1.000000	-1.000000	-1.000000	-1.000000	-1.000000	-1.000000	146.758621	0.000000	-1.000000	-1.000000	543898.000000	1772311747.576566
-20938.230000	-28649.835000	-28016.145000	-15140.610000	0.000000	0.000000	0.000000	0.000000	1.657717	-5.453097	0.804590	0.673738	0.000000	0.000000	-0.000000	0.000000	3.265640	-0.213640	-0.381500	-0.016846	0.985105	0.033813	-1.000000	-1.000000	-1.000000	-1.000000	-1.000000	-1.000000	-1.000000	146.758621	0.000000	-1.000000	-1.000000	543899.000000	1772311747.580528
-20936.430000	-28673.370000	-28011.645000	-15135.300000	0.000000	0.000000	0.000000	0.000000	-1.060599	-5.041374	-1.235627	-1.131338	0.000000	0.000000	-0.000000	0.000000	3.265640	-0.213640	-0.381500	-0.016846	0.985105	0.033813	-1.000000	-1.000000	-1.000000	-1.000000	-1.000000	-1.000000	-1.000000	146.758621	0.000000	-1.000000	-1.000000	543900.000000	1772311747.580531
-20932.515000	-28697.580000	-28010.205000	-15141.105000	0.000000	0.000000	0.000000	0.000000	-3.111407	-1.640166	-2.601384	-2.245924	0.000000	0.000000	-0.000000	0.000000	3.265640	-0.213640	-0.381500	-0.016846	0.985105	0.033813	-1.000000	-1.000000	-1.000000	-1.000000	-1.000000	-1.000000	-1.000000	146.758621	0.000000	-1.000000	-1.000000	543901.000000	1772311747.584472
-20937.780000	-28705.365000	-28016.370000	-15148.215000	0.000000	0.000000	0.000000	0.000000	-3.767958	3.613194	-3.057140	-3.065979	0.000000	0.000000	-0.000000	0.000000	3.265640	-0.213640	-0.381500	-0.016846	0.985105	0.033813	-1.000000	-1.000000	-1.000000	-1.000000	-1.000000	-1.000000	-1.000000	146.758621	0.000000	-1.000000	-1.000000	543902.000000	1772311747.584475
-20941.380000	-28687.590000	-28015.965000	-15144.345000	0.000000	0.000000	0.000000	0.000000	-3.368009	9.766804	-3.071245	-3.921928	0.000000	0.000000	-0.000000	0.000000	2.807840	-0.198380	-0.213640	-0.017395	0.984495	0.033996	-1.000000	-1.000000	-1.000000	-1.000000	-1.000000	-1.000000	-1.000000	146.758621	0.000000	-1.000000	-1.000000	543903.000000	1772311747.589681
-20946.195000	-28650.240000	-28024.155000	-15155.190000	0.000000	0.000000	0.000000	0.000000	-2.736336	16.949034	-3.009088	-4.236233	-0.000000	0.000000	-0.000000	0.000000	2.807840	-0.198380	-0.213640	-0.017395	0.984495	0.033996	-1.000000	-1.000000	-1.000000	-1.000000	-1.000000	-1.000000	-1.000000	146.758621	0.000000	-1.000000	-1.000000	543904.000000	1772311747.589684
-20937.555000	-28632.645000	-28025.595000	-15164.280000	0.000000	0.000000	0.000000	0.000000	-1.956471	24.163474	-2.769543	-3.607754	-0.000000	0.000000	-0.000000	0.000000	2.807840	-0.198380	-0.213640	-0.017395	0.984495	0.033996	-1.000000	-1.000000	-1.000000	-1.000000	-1.000000	-1.000000	-1.000000	146.758621	0.000000	-1.000000	-1.000000	543905.000000	1772311747.597500
-20935.440000	-28631.565000	-28022.670000	-15161.355000	0.000000	0.000000	0.000000	0.000000	-0.330054	26.980204	-1.910528	-2.268655	-0.000000	0.000000	-0.000000	0.000000	2.807840	-0.198380	-0.213640	-0.017395	0.984495	0.033996	-1.000000	-1.000000	-1.000000	-1.000000	-1.000000	-1.000000	-1.000000	146.758621	0.000000	-1.000000	-1.000000	543906.000000	1772311747.597504
-20939.985000	-28617.885000	-28022.355000	-15156.630000	0.000000	0.000000	0.000000	0.000000	2.077217	20.503751	0.008502	-0.014864	-0.000000	0.000000	-0.000000	0.000000	2.807840	-0.198380	-0.213640	-0.017395	0.984495	0.033996	-1.000000	-1.000000	-1.000000	-1.000000	-1.000000	-1.000000	-1.000000	146.758621	0.000000	-1.000000	-1.000000	543907.000000	1772311747.597508
-20946.645000	-28590.615000	-28026.000000	-15153.030000	0.000000	0.000000	0.000000	0.000000	3.695265	5.600404	2.528547	3.335877	-0.000000	0.000000	-0.000000	0.000000	2.807840	-0.198380	-0.213640	-0.017395	0.984495	0.033996	-1.000000	-1.000000	-1.000000	-1.000000	-1.000000	-1.000000	-1.000000	146.758621	0.000000	-1.000000	-1.000000	543908.000000	1772311747.597510
-20943.495000	-28589.445000	-28021.995000	-15147.405000	0.000000	0.000000	0.000000	0.000000	3.244303	-10.934234	4.369676	6.751901	-0.000000	0.000000	-0.000000	0.000000	2.807840	-0.198380	-0.213640	-0.017395	0.984495	0.033996	-1.000000	-1.000000	-1.000000	-1.000000	-1.000000	-1.000000	-1.000000	146.758621	0.000000	-1.000000	-1.000000	543909.000000	1772311747.601055
-20945.880000	-28591.020000	-28024.380000	-15150.870000	0.000000	0.000000	0.000000	0.000000	1.364231	-22.889758	4.705114	8.395393	-0.000000	0.000000	-0.000000	0.000000	2.807840	-0.198380	-0.213640	-0.017395	0.984495	0.033996	-1.000000	-1.000000	-1.000000	-1.000000	-1.000000	-1.000000	-1.000000	146.758621	0.000000	-1.000000	-1.000000	543910.000000	1772311747.601058
-20946.420000	-28584.540000	-28025.460000	-15151.005000	0.000000	0.000000	0.000000	0.000000	-0.396100	-28.016951	3.559437	6.937118	-0.000000	0.000000	-0.000000	0.000000	2.807840	-0.198380	-0.213640	-0.017395	0.984495	0.033996	-1.000000	-1.000000	-1.000000	-1.000000	-1.000000	-1.000000	-1.000000	146.758621	0.000000	-1.000000	-1.000000	543911.000000	1772311747.604588
-20945.745000	-28554.885000	-28026.900000	-15151.320000	0.000000	0.000000	0.000000	0.000000	-1.151371	-25.764378	1.433080	2.708856	-0.000000	0.000000	-0.000000	0.000000	2.807840	-0.198380	-0.213640	-0.017395	0.984495	0.033996	-1.000000	-1.000000	-1.000000	-1.000000	-1.000000	-1.000000	-1.000000	146.758621	0.000000	-1.000000	-1.000000	543912.000000	1772311747.604591
-20939.715000	-28525.140000	-28022.670000	-15149.160000	0.000000	0.000000	0.000000	0.000000	-0.767185	-16.063979	-0.755197	-2.252574	-0.000000	0.000000	-0.000000	0.000000	3.174080	0.457800	0.656180	-0.018249	0.983945	0.035095	-1.000000	-1.000000	-1.000000	-1.000000	-1.000000	-1.000000	-1.000000	146.758621	0.000000	-1.000000	-1.000000	543913.000000	1772311747.611800
-20939.310000	-28514.745000	-28021.320000	-15150.465000	0.000000	0.000000	0.000000	0.000000	0.445431	-1.688921	-1.970384	-5.663027	-0.000000	0.000000	-0.000000	0.000000	3.174080	0.457800	0.656180	-0.018249	0.983945	0.035095	-1.000000	-1.000000	-1.000000	-1.000000	-1.000000	-1.000000	-1.000000	146.758621	0.000000	-1.000000	-1.000000	543914.000000	1772311747.611803
-20950.830000	-28495.800000	-28031.130000	-15159.735000	0.000000	0.000000	0.000000	0.000000	1.432335	11.055721	-2.050917	-6.651528	-0.000000	0.000000	-0.000000	0.000000	3.174080	0.457800	0.656180	-0.018249	0.983945	0.035095	-1.000000	-1.000000	-1.000000	-1.000000	-1.000000	-1.000000	-1.000000	146.758621	0.000000	-1.000000	-1.000000	543915.000000	1772311747.612570
-20952.900000	-28483.470000	-28031.805000	-15159.645000	0.000000	0.000000	0.000000	0.000000	0.860520	16.570099	-1.903156	-5.864362	-0.000000	0.000000	-0.000000	0.000000	3.174080	0.457800	0.656180	-0.018249	0.983945	0.035095	-1.000000	-1.000000	-1.000000	-1.000000	-1.000000	-1.000000	-1.000000	146.758621	0.000000	-1.000000	-1.000000	543916.000000	1772311747.612574
-20949.795000	-28486.980000	-28028.070000	-15156.090000	0.000000	0.000000	0.000000	0.000000	-1.087985	13.550662	-1.956517	-3.971167	-0.000000	0.000000	-0.000000	0.000000	3.174080	0.457800	0.656180	-0.018249	0.983945	0.035095	-1.000000	-1.000000	-1.000000	-1.000000	-1.000000	-1.000000	-1.000000	146.758621	0.000000	-1.000000	-1.000000	543917.000000	1772311747.616534
-20946.555000	-28504.035000	-28025.685000	-15155.055000	0.000000	0.000000	0.000000	0.000000	-2.482360	4.106325	-1.473776	-1.094377	-0.000000	0.000000	-0.000000	0.000000	3.174080	0.457800	0.656180	-0.018249	0.983945	0.035095	-1.000000	-1.000000	-1.000000	-1.000000	-1.000000	-1.000000	-1.000000	146.758621	0.000000	-1.000000	-1.000000	543918.000000	1772311747.616537
-20945.475000	-28502.595000	-28027.170000	-15157.755000	0.000000	0.000000	0.000000	0.000000	-1.886997	-7.599462	-0.037000	2.117606	-0.000000	0.000000	-0.000000	0.000000	3.174080	0.457800	0.656180	-0.018249	0.983945	0.035095	-1.000000	-1.000000	-1.000000	-1.000000	-1.000000	-1.000000	-1.000000	146.758621	0.000000	-1.000000	-1.000000	543919.000000	1772311747.621643
-20946.060000	-28481.670000	-28030.545000	-15165.180000	0.000000	0.000000	0.000000	0.000000	0.159074	-15.524745	1.499203	4.158031	-0.000000	0.000000	-0.000000	0.000000	3.174080	0.457800	0.656180	-0.018249	0.983945	0.035095	-1.000000	-1.000000	-1.000000	-1.000000	-1.000000	-1.000000	-1.000000	146.758621	0.000000	-1.000000	-1.000000	543920.000000	1772311747.621646
-20941.155000	-28481.895000	-28022.355000	-15155.370000	0.000000	0.000000	0.000000	0.000000	2.080703	-14.722100	2.141540	4.124101	-0.000000	0.000000	-0.000000	0.000000	3.174080	0.457800	0.656180	-0.018249	0.983945	0.035095	-1.000000	-1.000000	-1.000000	-1.000000	-1.000000	-1.000000	-1.000000	146.758621	0.000000	-1.000000	-1.000000	543921.000000	1772311747.624657
-20941.335000	-28483.065000	-28021.545000	-15145.425000	0.000000	0.000000	0.000000	0.000000	2.839862	-6.138480	1.986559	3.045835	-0.000000	0.000000	-0.000000	0.000000	3.174080	0.457800	0.656180	-0.018249	0.983945	0.035095	-1.000000	-1.000000	-1.000000	-1.000000	-1.000000	-1.000000	-1.000000	146.758621	0.000000	-1.000000	-1.000000	543922.000000	1772311747.624659
-20948.670000	-28496.205000	-28027.890000	-15149.790000	0.000000	0.000000	0.000000	0.000000	2.133452	3.872720	1.426333	2.412712	-0.000000	0.000000	-0.000000	0.000000	4.654300	0.457800	1.144500	-0.018005	0.981565	0.036804	-1.000000	-1.000000	-1.000000	-1.000000	-1.000000	-1.000000	-1.000000	146.758621	0.000000	-1.000000	-1.000000	543923.000000	1772311747.628705
-20951.460000	-28500.300000	-28031.625000	-15155.640000	0.000000	0.000000	0.000000	0.000000	0.047217	9.311747	0.200299	1.834954	-0.000000	0.000000	-0.000000	0.000000	4.654300	0.457800	1.144500	-0.018005	0.981565	0.036804	-1.000000	-1.000000	-1.000000	-1.000000	-1.000000	-1.000000	-1.000000	146.758621	0.000000	-1.000000	-1.000000	543924.000000	1772311747.628709
-20947.230000	-28498.950000	-28024.875000	-15150.015000	0.000000	0.000000	0.000000	0.000000	-2.431128	8.904909	-1.523332	0.166077	-0.000000	0.000000	-0.000000	0.000000	4.654300	0.457800	1.144500	-0.018005	0.981565	0.036804	-1.000000	-1.000000	-1.000000	-1.000000	-1.000000	-1.000000	-1.000000	146.758621	0.000000	-1.000000	-1.000000	543925.000000	1772311747.632541
-20942.235000	-28506.960000	-28020.555000	-15147.540000	0.000000	0.000000	0.000000	0.000000	-3.504205	5.441332	-2.412902	-2.056254	-0.000000	0.000000	-0.000000	0.000000	4.654300	0.457800	1.144500	-0.018005	0.981565	0.036804	-1.000000	-1.000000	-1.000000	-1.000000	-1.000000	-1.000000	-1.000000	146.758621	0.000000	-1.000000	-1.000000	543926.000000	1772311747.632544
-20938.140000	-28522.935000	-28018.035000	-15146.415000	0.000000	0.000000	0.000000	0.000000	-2.177788	1.806962	-1.503922	-3.283164	-0.000000	0.000000	-0.000000	0.000000	4.654300	0.457800	1.144500	-0.018005	0.981565	0.036804	-1.000000	-1.000000	-1.000000	-1.000000	-1.000000	-1.000000	-1.000000	146.758621	0.000000	-1.000000	-1.000000	543927.000000	1772311747.636566
-20935.260000	-28550.520000	-28014.345000	-15143.175000	0.000000	0.000000	0.000000	0.000000	0.672992	-1.362823	0.527193	-2.922756	-0.000000	0.000000	-0.000000	0.000000	4.654300	0.457800	1.144500	-0.018005	0.981565	0.036804	-1.000000	-1.000000	-1.000000	-1.000000	-1.000000	-1.000000	-1.000000	146.758621	0.000000	-1.000000	-1.000000	543928.000000	1772311747.636569
-20932.425000	-28568.295000	-28010.925000	-15140.565000	0.000000	0.000000	0.000000	0.000000	3.130646	-4.411254	2.211227	-1.503028	-0.000000	0.000000	-0.000000	0.000000	4.654300	0.457800	1.144500	-0.018005	0.981565	0.036804	-1.000000	-1.000000	-1.000000	-1.000000	-1.000000	-1.000000	-1.000000	146.758621	0.000000	-1.000000	-1.000000	543929.000000	1772311747.640629
-20930.445000	-28584.045000	-28007.865000	-15137.190000	0.000000	0.000000	0.000000	0.000000	3.777822	-6.503585	2.607712	0.119517	-0.000000	0.000000	-0.000000	0.000000	4.654300	0.457800	1.144500	-0.018005	0.981565	0.036804	-1.000000	-1.000000	-1.000000	-1.000000	-1.000000	-1.000000	-1.000000	146.758621	0.000000	-1.000000	-1.000000	543930.000000	1772311747.640632
-20935.620000	-28597.455000	-28014.210000	-15143.985000	0.000000	0.000000	0.000000	0.000000	2.347496	-5.876684	1.523253	1.085736	-0.000000	0.000000	-0.000000	0.000000	4.654300	0.457800	1.144500	-0.018005	0.981565	0.036804	-1.000000	-1.000000	-1.000000	-1.000000	-1.000000	-1.000000	-1.000000	146.758621	0.000000	-1.000000	-1.000000	543931.000000	1772311747.644554
-20939.670000	-28595.610000	-28015.740000	-15144.840000	0.000000	0.000000	0.000000	0.000000	-0.562498	-1.707592	-0.763865	0.748997	-0.000000	0.000000	-0.000000	0.000000	4.654300	0.457800	1.144500	-0.018005	0.981565	0.036804	-1.000000	-1.000000	-1.000000	-1.000000	-1.000000	-1.000000	-1.000000	146.758621	0.000000	-1.000000	-1.000000	543932.000000	1772311747.644557
-20940.300000	-28579.455000	-28015.740000	-15145.560000	0.000000	0.000000	0.000000	0.000000	-3.678436	5.377331	-3.290891	-0.637598	-0.000000	0.000000	-0.000000	0.000000	5.005280	-0.457800	2.701020	-0.019775	0.981199	0.037537	-1.000000	-1.000000	-1.000000	-1.000000	-1.000000	-1.000000	-1.000000	146.758621	0.000000	-1.000000	-1.000000	543933.000000	1772311747.648748
-20935.395000	-28574.640000	-28008.990000	-15137.640000	0.000000	0.000000	0.000000	0.000000	-5.265932	13.358561	-4.470775	-1.729338	-0.000000	0.000000	-0.000000	0.000000	5.005280	-0.457800	2.701020	-0.019775	0.981199	0.037537	-1.000000	-1.000000	-1.000000	-1.000000	-1.000000	-1.000000	-1.000000	146.758621	0.000000	-1.000000	-1.000000	543934.000000	1772311747.648751
-20934.990000	-28578.645000	-28008.405000	-15136.695000	0.000000	0.000000	0.000000	0.000000	-4.194983	18.444807	-3.276963	-1.264724	-0.000000	0.000000	-0.000000	0.000000	5.005280	-0.457800	2.701020	-0.019775	0.981199	0.037537	-1.000000	-1.000000	-1.000000	-1.000000	-1.000000	-1.000000	-1.000000	146.758621	0.000000	-1.000000	-1.000000	543935.000000	1772311747.656474
-20938.635000	-28571.130000	-28014.705000	-15145.560000	0.000000	0.000000	0.000000	0.000000	-1.137589	17.022307	-0.507805	0.378866	-0.000000	0.000000	-0.000000	0.000000	5.005280	-0.457800	2.701020	-0.019775	0.981199	0.037537	-1.000000	-1.000000	-1.000000	-1.000000	-1.000000	-1.000000	-1.000000	146.758621	0.000000	-1.000000	-1.000000	543936.000000	1772311747.656478
-20939.805000	-28574.415000	-28018.170000	-15151.005000	0.000000	0.000000	0.000000	0.000000	1.857218	9.045909	1.711449	1.358117	-0.000000	0.000000	-0.000000	0.000000	5.005280	-0.457800	2.701020	-0.019775	0.981199	0.037537	-1.000000	-1.000000	-1.000000	-1.000000	-1.000000	-1.000000	-1.000000	146.758621	0.000000	-1.000000	-1.000000	543937.000000	1772311747.656482
-20948.670000	-28559.655000	-28025.910000	-15155.640000	0.000000	0.000000	0.000000	0.000000	3.083410	-1.687392	1.950713	0.566165	-0.000000	0.000000	-0.000000	0.000000	5.005280	-0.457800	2.701020	-0.019775	0.981199	0.037537	-1.000000	-1.000000	-1.000000	-1.000000	-1.000000	-1.000000	-1.000000	146.758621	0.000000	-1.000000	-1.000000	543938.000000	1772311747.656484
-20955.285000	-28537.290000	-28031.445000	-15160.455000	0.000000	0.000000	0.000000	0.000000	2.141386	-9.928586	0.497200	-1.183250	-0.000000	0.000000	-0.000000	0.000000	5.005280	-0.457800	2.701020	-0.019775	0.981199	0.037537	-1.000000	-1.000000	-1.000000	-1.000000	-1.000000	-1.000000	-1.000000	146.758621	0.000000	-1.000000	-1.000000	543939.000000	1772311747.663500
-20943.045000	-28524.600000	-28019.790000	-15151.860000	0.000000	0.000000	0.000000	0.000000	0.226902	-12.113695	-0.989805	-2.107114	-0.000000	0.000000	-0.000000	0.000000	5.005280	-0.457800	2.701020	-0.019775	0.981199	0.037537	-1.000000	-1.000000	-1.000000	-1.000000	-1.000000	-1.000000	-1.000000	146.758621	0.000000	-1.000000	-1.000000	543940.000000	1772311747.663503
-20928.915000	-28533.780000	-28003.365000	-15137.325000	0.000000	0.000000	0.000000	0.000000	-0.226835	-9.294126	-0.324001	-0.658980	-0.000000	0.000000	-0.000000	0.000000	5.005280	-0.457800	2.701020	-0.019775	0.981199	0.037537	-1.000000	-1.000000	-1.000000	-1.000000	-1.000000	-1.000000	-1.000000	146.758621	0.000000	-1.000000	-1.000000	543941.000000	1772311747.664674
-20945.790000	-28511.415000	-28023.120000	-15156.675000	0.000000	0.000000	0.000000	0.000000	1.668778	-5.660730	2.695966	2.732814	-0.000000	0.000000	-0.000000	0.000000	5.005280	-0.457800	2.701020	-0.019775	0.981199	0.037537	-1.000000	-1.000000	-1.000000	-1.000000	-1.000000	-1.000000	-1.000000	146.758621	0.000000	-1.000000	-1.000000	543942.000000	1772311747.664677
-20953.440000	-28486.755000	-28032.570000	-15164.595000	0.000000	0.000000	0.000000	0.000000	3.275127	-3.204768	4.745201	4.831345	-0.000000	0.000000	-0.000000	0.000000	4.806900	-0.457800	1.739640	-0.015076	0.982114	0.035217	-1.000000	-1.000000	-1.000000	-1.000000	-1.000000	-1.000000	-1.000000	146.758621	0.000000	-1.000000	-1.000000	543943.000000	1772311747.668699
-20942.955000	-28485.675000	-28020.465000	-15151.140000	0.000000	0.000000	0.000000	0.000000	2.085301	-1.070109	3.112764	3.380579	-0.000000	0.000000	-0.000000	0.000000	4.806900	-0.457800	1.739640	-0.015076	0.982114	0.035217	-1.000000	-1.000000	-1.000000	-1.000000	-1.000000	-1.000000	-1.000000	146.758621	0.000000	-1.000000	-1.000000	543944.000000	1772311747.668702
-20940.030000	-28518.885000	-28018.125000	-15149.475000	0.000000	0.000000	0.000000	0.000000	-0.541501	-0.176035	-0.328068	0.367425	-0.000000	0.000000	-0.000000	0.000000	4.806900	-0.457800	1.739640	-0.015076	0.982114	0.035217	-1.000000	-1.000000	-1.000000	-1.000000	-1.000000	-1.000000	-1.000000	146.758621	0.000000	-1.000000	-1.000000	543945.000000	1772311747.672704
-20936.430000	-28553.355000	-28015.920000	-15146.955000	0.000000	0.000000	0.000000	0.000000	-1.862676	-3.638735	-2.219522	-1.202971	-0.000000	0.000000	-0.000000	0.000000	4.806900	-0.457800	1.739640	-0.015076	0.982114	0.035217	-1.000000	-1.000000	-1.000000	-1.000000	-1.000000	-1.000000	-1.000000	146.758621	0.000000	-1.000000	-1.000000	543946.000000	1772311747.672707
-20937.825000	-28555.245000	-28017.270000	-15148.755000	0.000000	0.000000	0.000000	0.000000	-1.307454	-11.047020	-1.841657	-0.959637	-0.000000	0.000000	-0.000000	0.000000	4.806900	-0.457800	1.739640	-0.015076	0.982114	0.035217	-1.000000	-1.000000	-1.000000	-1.000000	-1.000000	-1.000000	-1.000000	146.758621	0.000000	-1.000000	-1.000000	543947.000000	1772311747.676842
-20940.480000	-28547.190000	-28019.430000	-15150.330000	0.000000	0.000000	0.000000	0.000000	-0.265880	-15.817907	-0.684403	-0.363828	-0.000000	0.000000	-0.000000	0.000000	4.806900	-0.457800	1.739640	-0.015076	0.982114	0.035217	-1.000000	-1.000000	-1.000000	-1.000000	-1.000000	-1.000000	-1.000000	146.758621	0.000000	-1.000000	-1.000000	543948.000000	1772311747.676845
-20943.630000	-28525.365000	-28021.995000	-15151.995000	0.000000	0.000000	0.000000	0.000000	-0.150062	-11.029550	-0.245345	-0.568991	-0.000000	0.000000	-0.000000	0.000000	4.806900	-0.457800	1.739640	-0.015076	0.982114	0.035217	-1.000000	-1.000000	-1.000000	-1.000000	-1.000000	-1.000000	-1.000000	146.758621	0.000000	-1.000000	-1.000000	543949.000000	1772311747.680848
-20942.730000	-28510.200000	-28020.195000	-15152.805000	0.000000	0.000000	0.000000	0.000000	-1.089291	3.336691	-0.770769	-1.515559	-0.000000	0.000000	-0.000000	0.000000	4.806900	-0.457800	1.739640	-0.015076	0.982114	0.035217	-1.000000	-1.000000	-1.000000	-1.000000	-1.000000	-1.000000	-1.000000	146.758621	0.000000	-1.000000	-1.000000	543950.000000	1772311747.680850
-20943.180000	-28523.790000	-28019.205000	-15151.230000	0.000000	0.000000	0.000000	0.000000	-2.052440	19.376642	-1.391023	-2.309018	-0.000000	0.000000	-0.000000	0.000000	4.806900	-0.457800	1.739640	-0.015076	0.982114	0.035217	-1.000000	-1.000000	-1.000000	-1.000000	-1.000000	-1.000000	-1.000000	146.758621	0.000000	-1.000000	-1.000000	543951.000000	1772311747.684769
-20949.165000	-28521.765000	-28026.765000	-15155.865000	0.000000	0.000000	0.000000	0.000000	-2.146565	26.943186	-1.386232	-2.219434	-0.000000	0.000000	-0.000000	0.000000	4.806900	-0.457800	1.739640	-0.015076	0.982114	0.035217	-1.000000	-1.000000	-1.000000	-1.000000	-1.000000	-1.000000	-1.000000	146.758621	0.000000	-1.000000	-1.000000	543952.000000	1772311747.684772
-20935.845000	-28526.715000	-28014.435000	-15140.655000	0.000000	0.000000	0.000000	0.000000	-1.205163	21.746918	-0.758938	-1.069944	-0.000000	0.000000	-0.000000	0.000000	3.616620	-0.030520	-0.701960	-0.011658	0.982419	0.032715	-1.000000	-1.000000	-1.000000	-1.000000	-1.000000	-1.000000	-1.000000	146.758621	0.000000	-1.000000	-1.000000	543953.000000	1772311747.688816
-20930.625000	-28546.380000	-28008.945000	-15137.190000	0.000000	0.000000	0.000000	0.000000	0.813764	7.578746	0.577580	1.109073	-0.000000	0.000000	-0.000000	0.000000	3.616620	-0.030520	-0.701960	-0.011658	0.982419	0.032715	-1.000000	-1.000000	-1.000000	-1.000000	-1.000000	-1.000000	-1.000000	146.758621	0.000000	-1.000000	-1.000000	543954.000000	1772311747.688819
-20928.420000	-28571.445000	-28008.405000	-15144.660000	0.000000	0.000000	0.000000	0.000000	3.397830	-8.538401	2.474315	3.397149	-0.000000	0.000000	-0.000000	0.000000	3.616620	-0.030520	-0.701960	-0.011658	0.982419	0.032715	-1.000000	-1.000000	-1.000000	-1.000000	-1.000000	-1.000000	-1.000000	146.758621	0.000000	-1.000000	-1.000000	543955.000000	1772311747.692928
-20934.045000	-28572.255000	-28014.345000	-15144.750000	0.000000	0.000000	0.000000	0.000000	4.814682	-20.219571	3.562239	3.837864	-0.000000	0.000000	-0.000000	0.000000	3.616620	-0.030520	-0.701960	-0.011658	0.982419	0.032715	-1.000000	-1.000000	-1.000000	-1.000000	-1.000000	-1.000000	-1.000000	146.758621	0.000000	-1.000000	-1.000000	543956.000000	1772311747.692931
-20939.535000	-28562.985000	-28017.945000	-15145.065000	0.000000	0.000000	0.000000	0.000000	3.443308	-22.560026	2.384367	1.711599	-0.000000	0.000000	-0.000000	0.000000	3.616620	-0.030520	-0.701960	-0.011658	0.982419	0.032715	-1.000000	-1.000000	-1.000000	-1.000000	-1.000000	-1.000000	-1.000000	146.758621	0.000000	-1.000000	-1.000000	543957.000000	1772311747.700499
-20941.740000	-28566.045000	-28017.945000	-15146.820000	0.000000	0.000000	0.000000	0.000000	-0.402645	-14.356310	-0.721390	-1.472172	-0.000000	0.000000	-0.000000	0.000000	3.616620	-0.030520	-0.701960	-0.011658	0.982419	0.032715	-1.000000	-1.000000	-1.000000	-1.000000	-1.000000	-1.000000	-1.000000	146.758621	0.000000	-1.000000	-1.000000	543958.000000	1772311747.700502
-20943.765000	-28566.045000	-28023.840000	-15160.725000	0.000000	0.000000	0.000000	0.000000	-4.452346	-0.250937	-3.798429	-3.954870	-0.000000	0.000000	-0.000000	0.000000	3.616620	-0.030520	-0.701960	-0.011658	0.982419	0.032715	-1.000000	-1.000000	-1.000000	-1.000000	-1.000000	-1.000000	-1.000000	146.758621	0.000000	-1.000000	-1.000000	543959.000000	1772311747.700972
-20945.475000	-28553.625000	-28025.190000	-15159.285000	0.000000	0.000000	0.000000	0.000000	-6.301775	12.356592	-5.120189	-5.079006	-0.000000	0.000000	-0.000000	0.000000	3.616620	-0.030520	-0.701960	-0.011658	0.982419	0.032715	-1.000000	-1.000000	-1.000000	-1.000000	-1.000000	-1.000000	-1.000000	146.758621	0.000000	-1.000000	-1.000000	543960.000000	1772311747.700975
-20943.090000	-28528.200000	-28022.670000	-15154.515000	0.000000	0.000000	0.000000	0.000000	-5.074186	18.985572	-4.147839	-4.398694	-0.000000	0.000000	-0.000000	0.000000	3.616620	-0.030520	-0.701960	-0.011658	0.982419	0.032715	-1.000000	-1.000000	-1.000000	-1.000000	-1.000000	-1.000000	-1.000000	146.758621	0.000000	-1.000000	-1.000000	543961.000000	1772311747.704846
-20944.935000	-28473.750000	-28025.550000	-15156.585000	0.000000	0.000000	0.000000	0.000000	-1.614188	20.156172	-1.371284	-1.574597	-0.000000	0.000000	-0.000000	0.000000	3.616620	-0.030520	-0.701960	-0.011658	0.982419	0.032715	-1.000000	-1.000000	-1.000000	-1.000000	-1.000000	-1.000000	-1.000000	146.758621	0.000000	-1.000000	-1.000000	543962.000000	1772311747.704849
-20947.320000	-28452.015000	-28027.935000	-15158.475000	0.000000	0.000000	0.000000	0.000000	2.165283	18.460147	1.806783	2.279983	-0.000000	0.000000	-0.000000	0.000000	2.472120	-0.274680	-0.869820	-0.012939	0.983457	0.030884	-1.000000	-1.000000	-1.000000	-1.000000	-1.000000	-1.000000	-1.000000	146.758621	0.000000	-1.000000	-1.000000	543963.000000	1772311747.708969
-20947.815000	-28438.020000	-28027.620000	-15160.365000	0.000000	0.000000	0.000000	0.000000	4.428421	13.995405	3.834886	5.016645	-0.000000	0.000000	-0.000000	0.000000	2.472120	-0.274680	-0.869820	-0.012939	0.983457	0.030884	-1.000000	-1.000000	-1.000000	-1.000000	-1.000000	-1.000000	-1.000000	146.758621	0.000000	-1.000000	-1.000000	543964.000000	1772311747.708972
-20948.715000	-28419.480000	-28028.880000	-15166.980000	0.000000	0.000000	0.000000	0.000000	4.538281	4.902721	4.125031	5.259164	-0.000000	0.000000	-0.000000	0.000000	2.472120	-0.274680	-0.869820	-0.012939	0.983457	0.030884	-1.000000	-1.000000	-1.000000	-1.000000	-1.000000	-1.000000	-1.000000	146.758621	0.000000	-1.000000	-1.000000	543965.000000	1772311747.712802
-20946.060000	-28400.265000	-28021.365000	-15163.650000	0.000000	0.000000	0.000000	0.000000	3.149256	-7.747344	3.221380	3.252854	-0.000000	0.000000	-0.000000	0.000000	2.472120	-0.274680	-0.869820	-0.012939	0.983457	0.030884	-1.000000	-1.000000	-1.000000	-1.000000	-1.000000	-1.000000	-1.000000	146.758621	0.000000	-1.000000	-1.000000	543966.000000	1772311747.712805
-20954.745000	-28395.315000	-28028.430000	-15164.640000	0.000000	0.000000	0.000000	0.000000	1.255154	-19.351606	1.986467	0.573889	-0.000000	0.000000	-0.000000	0.000000	2.472120	-0.274680	-0.869820	-0.012939	0.983457	0.030884	-1.000000	-1.000000	-1.000000	-1.000000	-1.000000	-1.000000	-1.000000	146.758621	0.000000	-1.000000	-1.000000	543967.000000	1772311747.718447
-20954.745000	-28385.190000	-28030.185000	-15160.590000	0.000000	0.000000	0.000000	0.000000	-0.629175	-25.671826	0.612403	-1.114130	-0.000000	0.000000	-0.000000	0.000000	2.472120	-0.274680	-0.869820	-0.012939	0.983457	0.030884	-1.000000	-1.000000	-1.000000	-1.000000	-1.000000	-1.000000	-1.000000	146.758621	0.000000	-1.000000	-1.000000	543968.000000	1772311747.718450
-20952.315000	-28368.360000	-28028.520000	-15155.280000	0.000000	0.000000	0.000000	0.000000	-2.045533	-24.900957	-0.988676	-1.160666	-0.000000	0.000000	-0.000000	0.000000	2.472120	-0.274680	-0.869820	-0.012939	0.983457	0.030884	-1.000000	-1.000000	-1.000000	-1.000000	-1.000000	-1.000000	-1.000000	146.758621	0.000000	-1.000000	-1.000000	543969.000000	1772311747.721069
-20953.980000	-28336.950000	-28030.905000	-15158.430000	0.000000	0.000000	0.000000	0.000000	-2.315063	-17.170472	-2.282419	-0.104933	-0.000000	0.000000	-0.000000	0.000000	2.472120	-0.274680	-0.869820	-0.012939	0.983457	0.030884	-1.000000	-1.000000	-1.000000	-1.000000	-1.000000	-1.000000	-1.000000	146.758621	0.000000	-1.000000	-1.000000	543970.000000	1772311747.721072
-20951.055000	-28295.505000	-28029.465000	-15159.780000	0.000000	0.000000	0.000000	0.000000	-1.351845	-4.196001	-2.633017	0.693143	-0.000000	0.000000	-0.000000	0.000000	2.472120	-0.274680	-0.869820	-0.012939	0.983457	0.030884	-1.000000	-1.000000	-1.000000	-1.000000	-1.000000	-1.000000	-1.000000	146.758621	0.000000	-1.000000	-1.000000	543971.000000	1772311747.725037
-20953.845000	-28271.295000	-28034.550000	-15167.970000	0.000000	0.000000	0.000000	0.000000	0.115075	10.177585	-2.057487	0.097815	-0.000000	0.000000	-0.000000	0.000000	2.472120	-0.274680	-0.869820	-0.012939	0.983457	0.030884	-1.000000	-1.000000	-1.000000	-1.000000	-1.000000	-1.000000	-1.000000	146.758621	0.000000	-1.000000	-1.000000	543972.000000	1772311747.725039
-20956.995000	-28242.810000	-28036.575000	-15169.995000	0.000000	0.000000	0.000000	0.000000	1.089784	20.301875	-1.143539	-1.807167	-0.000000	0.000000	-0.000000	0.000000	2.441600	0.015260	-1.083460	-0.012817	0.982908	0.031067	-1.000000	-1.000000	-1.000000	-1.000000	-1.000000	-1.000000	-1.000000	146.758621	0.000000	-1.000000	-1.000000	543973.000000	1772311747.728989
-20953.665000	-28232.955000	-28033.020000	-15166.530000	0.000000	0.000000	0.000000	0.000000	1.042422	21.592678	-0.346182	-3.619220	-0.000000	0.000000	-0.000000	0.000000	2.441600	0.015260	-1.083460	-0.012817	0.982908	0.031067	-1.000000	-1.000000	-1.000000	-1.000000	-1.000000	-1.000000	-1.000000	146.758621	0.000000	-1.000000	-1.000000	543974.000000	1772311747.728992
-20954.025000	-28217.970000	-28032.525000	-15166.215000	0.000000	0.000000	0.000000	0.000000	0.403124	13.564185	0.475644	-3.645732	-0.000000	0.000000	-0.000000	0.000000	2.441600	0.015260	-1.083460	-0.012817	0.982908	0.031067	-1.000000	-1.000000	-1.000000	-1.000000	-1.000000	-1.000000	-1.000000	146.758621	0.000000	-1.000000	-1.000000	543975.000000	1772311747.732943
-20959.155000	-28174.545000	-28038.240000	-15172.155000	0.000000	0.000000	0.000000	0.000000	-0.191723	0.846508	1.317716	-1.661599	-0.000000	0.000000	-0.000000	0.000000	2.441600	0.015260	-1.083460	-0.012817	0.982908	0.031067	-1.000000	-1.000000	-1.000000	-1.000000	-1.000000	-1.000000	-1.000000	146.758621	0.000000	-1.000000	-1.000000	543976.000000	1772311747.732946
-20959.065000	-28170.135000	-28036.935000	-15171.030000	0.000000	0.000000	0.000000	0.000000	-0.676060	-9.472026	1.608460	0.854579	-0.000000	0.000000	-0.000000	0.000000	2.441600	0.015260	-1.083460	-0.012817	0.982908	0.031067	-1.000000	-1.000000	-1.000000	-1.000000	-1.000000	-1.000000	-1.000000	146.758621	0.000000	-1.000000	-1.000000	543977.000000	1772311747.738457
-20958.480000	-28169.415000	-28038.420000	-15171.570000	0.000000	0.000000	0.000000	0.000000	-1.016378	-13.959044	1.117314	2.485674	-0.000000	0.000000	-0.000000	0.000000	2.441600	0.015260	-1.083460	-0.012817	0.982908	0.031067	-1.000000	-1.000000	-1.000000	-1.000000	-1.000000	-1.000000	-1.000000	146.758621	0.000000	-1.000000	-1.000000	543978.000000	1772311747.738461
-20948.580000	-28167.660000	-28029.645000	-15162.345000	0.000000	0.000000	0.000000	0.000000	-0.714274	-14.337961	0.469893	3.081080	-0.000000	0.000000	-0.000000	0.000000	2.441600	0.015260	-1.083460	-0.012817	0.982908	0.031067	-1.000000	-1.000000	-1.000000	-1.000000	-1.000000	-1.000000	-1.000000	146.758621	0.000000	-1.000000	-1.000000	543979.000000	1772311747.740997
-20948.130000	-28170.810000	-28027.890000	-15161.265000	0.000000	0.000000	0.000000	0.000000	0.579315	-12.930867	0.476220	3.228744	-0.000000	0.000000	-0.000000	0.000000	2.441600	0.015260	-1.083460	-0.012817	0.982908	0.031067	-1.000000	-1.000000	-1.000000	-1.000000	-1.000000	-1.000000	-1.000000	146.758621	0.000000	-1.000000	-1.000000	543980.000000	1772311747.741000
-20951.145000	-28157.265000	-28031.805000	-15165.810000	0.000000	0.000000	0.000000	0.000000	2.082638	-9.983600	1.011353	2.963663	-0.000000	0.000000	-0.000000	0.000000	2.441600	0.015260	-1.083460	-0.012817	0.982908	0.031067	-1.000000	-1.000000	-1.000000	-1.000000	-1.000000	-1.000000	-1.000000	146.758621	0.000000	-1.000000	-1.000000	543981.000000	1772311747.744980
-20941.155000	-28166.130000	-28018.755000	-15154.920000	0.000000	0.000000	0.000000	0.000000	2.501955	-4.931826	1.220740	1.826307	-0.000000	0.000000	-0.000000	0.000000	2.441600	0.015260	-1.083460	-0.012817	0.982908	0.031067	-1.000000	-1.000000	-1.000000	-1.000000	-1.000000	-1.000000	-1.000000	146.758621	0.000000	-1.000000	-1.000000	543982.000000	1772311747.744983
-20950.920000	-28161.180000	-28026.765000	-15163.155000	0.000000	0.000000	0.000000	0.000000	1.509326	1.421087	0.787703	0.021483	-0.000000	0.000000	-0.000000	0.000000	2.777320	0.381500	-1.175020	-0.013306	0.981138	0.032104	-1.000000	-1.000000	-1.000000	-1.000000	-1.000000	-1.000000	-1.000000	146.758621	0.000000	-1.000000	-1.000000	543983.000000	1772311747.751516
-20966.265000	-28139.805000	-28045.215000	-15179.220000	0.000000	0.000000	0.000000	0.000000	-0.766963	7.442142	-0.606643	-2.194391	0.000000	0.000000	-0.000000	0.000000	2.777320	0.381500	-1.175020	-0.013306	0.981138	0.032104	-1.000000	-1.000000	-1.000000	-1.000000	-1.000000	-1.000000	-1.000000	146.758621	0.000000	-1.000000	-1.000000	543984.000000	1772311747.751519
-20960.955000	-28125.495000	-28040.535000	-15175.530000	0.000000	0.000000	0.000000	0.000000	-3.900516	12.445963	-3.291224	-4.774640	0.000000	0.000000	-0.000000	0.000000	2.777320	0.381500	-1.175020	-0.013306	0.981138	0.032104	-1.000000	-1.000000	-1.000000	-1.000000	-1.000000	-1.000000	-1.000000	146.758621	0.000000	-1.000000	-1.000000	543985.000000	1772311747.753013
-20945.790000	-28108.035000	-28025.415000	-15158.745000	0.000000	0.000000	0.000000	0.000000	-5.669768	15.778803	-5.395822	-6.039769	0.000000	0.000000	-0.000000	0.000000	2.777320	0.381500	-1.175020	-0.013306	0.981138	0.032104	-1.000000	-1.000000	-1.000000	-1.000000	-1.000000	-1.000000	-1.000000	146.758621	0.000000	-1.000000	-1.000000	543986.000000	1772311747.753016
-20941.965000	-28086.075000	-28022.580000	-15155.100000	0.000000	0.000000	0.000000	0.000000	-3.575720	16.132397	-4.015273	-3.663560	0.000000	0.000000	-0.000000	0.000000	2.777320	0.381500	-1.175020	-0.013306	0.981138	0.032104	-1.000000	-1.000000	-1.000000	-1.000000	-1.000000	-1.000000	-1.000000	146.758621	0.000000	-1.000000	-1.000000	543987.000000	1772311747.758820
-20949.525000	-28075.185000	-28029.690000	-15163.110000	0.000000	0.000000	0.000000	0.000000	1.396118	12.785506	0.482686	1.468701	0.000000	0.000000	-0.000000	0.000000	2.777320	0.381500	-1.175020	-0.013306	0.981138	0.032104	-1.000000	-1.000000	-1.000000	-1.000000	-1.000000	-1.000000	-1.000000	146.758621	0.000000	-1.000000	-1.000000	543988.000000	1772311747.758823
-20955.195000	-28068.795000	-28036.620000	-15171.120000	0.000000	0.000000	0.000000	0.000000	5.131838	6.058382	4.277957	5.235776	0.000000	0.000000	-0.000000	0.000000	2.777320	0.381500	-1.175020	-0.013306	0.981138	0.032104	-1.000000	-1.000000	-1.000000	-1.000000	-1.000000	-1.000000	-1.000000	146.758621	0.000000	-1.000000	-1.000000	543989.000000	1772311747.760933
-20962.305000	-28000.530000	-28041.165000	-15175.665000	0.000000	0.000000	0.000000	0.000000	4.717739	-1.595939	4.386099	4.702471	0.000000	0.000000	-0.000000	0.000000	2.777320	0.381500	-1.175020	-0.013306	0.981138	0.032104	-1.000000	-1.000000	-1.000000	-1.000000	-1.000000	-1.000000	-1.000000	146.758621	0.000000	-1.000000	-1.000000	543990.000000	1772311747.760935
-20964.285000	-27970.695000	-28042.200000	-15173.955000	0.000000	0.000000	0.000000	0.000000	0.937620	-5.444749	1.372982	0.928038	0.000000	0.000000	-0.000000	0.000000	2.777320	0.381500	-1.175020	-0.013306	0.981138	0.032104	-1.000000	-1.000000	-1.000000	-1.000000	-1.000000	-1.000000	-1.000000	146.758621	0.000000	-1.000000	-1.000000	543991.000000	1772311747.764852
-20963.115000	-27964.080000	-28041.570000	-15169.995000	0.000000	0.000000	0.000000	0.000000	-3.023387	-4.174953	-1.892605	-2.573135	0.000000	0.000000	-0.000000	0.000000	2.777320	0.381500	-1.175020	-0.013306	0.981138	0.032104	-1.000000	-1.000000	-1.000000	-1.000000	-1.000000	-1.000000	-1.000000	146.758621	0.000000	-1.000000	-1.000000	543992.000000	1772311747.764855
-20963.205000	-27944.235000	-28041.390000	-15165.270000	0.000000	0.000000	0.000000	0.000000	-4.368009	-2.568569	-3.015879	-3.130482	0.000000	0.000000	-0.000000	0.000000	3.387720	0.305200	-1.083460	-0.013672	0.981687	0.032898	-1.000000	-1.000000	-1.000000	-1.000000	-1.000000	-1.000000	-1.000000	146.758621	0.000000	-1.000000	-1.000000	543993.000000	1772311747.768967
-20956.770000	-27916.065000	-28037.340000	-15166.935000	0.000000	0.000000	0.000000	0.000000	-2.488866	-4.468125	-1.593594	-0.840862	0.000000	0.000000	-0.000000	0.000000	3.387720	0.305200	-1.083460	-0.013672	0.981687	0.032898	-1.000000	-1.000000	-1.000000	-1.000000	-1.000000	-1.000000	-1.000000	146.758621	0.000000	-1.000000	-1.000000	543994.000000	1772311747.768970
-20956.365000	-27892.170000	-28040.580000	-15177.780000	0.000000	0.000000	0.000000	0.000000	1.193538	-8.129611	1.074299	1.841467	0.000000	0.000000	-0.000000	0.000000	3.387720	0.305200	-1.083460	-0.013672	0.981687	0.032898	-1.000000	-1.000000	-1.000000	-1.000000	-1.000000	-1.000000	-1.000000	146.758621	0.000000	-1.000000	-1.000000	543995.000000	1772311747.773005
-20963.025000	-27871.695000	-28050.705000	-15191.145000	0.000000	0.000000	0.000000	0.000000	4.251887	-9.928407	2.906603	2.186741	0.000000	0.000000	-0.000000	0.000000	3.387720	0.305200	-1.083460	-0.013672	0.981687	0.032898	-1.000000	-1.000000	-1.000000	-1.000000	-1.000000	-1.000000	-1.000000	146.758621	0.000000	-1.000000	-1.000000	543996.000000	1772311747.773008
-20965.365000	-27870.120000	-28049.895000	-15186.285000	0.000000	0.000000	0.000000	0.000000	4.620617	-8.831594	2.462768	-0.208701	0.000000	0.000000	-0.000000	0.000000	3.387720	0.305200	-1.083460	-0.013672	0.981687	0.032898	-1.000000	-1.000000	-1.000000	-1.000000	-1.000000	-1.000000	-1.000000	146.758621	0.000000	-1.000000	-1.000000	543997.000000	1772311747.777156
-20958.210000	-27892.665000	-28041.345000	-15176.070000	0.000000	0.000000	0.000000	0.000000	2.355162	-7.140914	0.530226	-2.606990	0.000000	0.000000	-0.000000	0.000000	3.387720	0.305200	-1.083460	-0.013672	0.981687	0.032898	-1.000000	-1.000000	-1.000000	-1.000000	-1.000000	-1.000000	-1.000000	146.758621	0.000000	-1.000000	-1.000000	543998.000000	1772311747.777159
-20959.965000	-27891.675000	-28041.795000	-15176.160000	0.000000	0.000000	0.000000	0.000000	-0.440167	-7.452826	-0.688487	-2.054468	0.000000	0.000000	-0.000000	0.000000	3.387720	0.305200	-1.083460	-0.013672	0.981687	0.032898	-1.000000	-1.000000	-1.000000	-1.000000	-1.000000	-1.000000	-1.000000	146.758621	0.000000	-1.000000	-1.000000	543999.000000	1772311747.782504
-20964.600000	-27880.515000	-28042.515000	-15176.295000	0.000000	0.000000	0.000000	0.000000	-2.091735	-8.506033	-0.338873	1.123723	0.000000	0.000000	-0.000000	0.000000	3.387720	0.305200	-1.083460	-0.013672	0.981687	0.032898	-1.000000	-1.000000	-1.000000	-1.000000	-1.000000	-1.000000	-1.000000	146.758621	0.000000	-1.000000	-1.000000	544000.000000	1772311747.782507
-20965.230000	-27853.965000	-28047.645000	-15184.755000	0.000000	0.000000	0.000000	0.000000	-2.609766	-5.826239	0.422385	3.893836	0.000000	0.000000	-0.000000	0.000000	3.387720	0.305200	-1.083460	-0.013672	0.981687	0.032898	-1.000000	-1.000000	-1.000000	-1.000000	-1.000000	-1.000000	-1.000000	146.758621	0.000000	-1.000000	-1.000000	544001.000000	1772311747.785176
-20960.055000	-27832.680000	-28044.000000	-15180.480000	0.000000	0.000000	0.000000	0.000000	-2.378506	2.892761	0.351105	3.906189	0.000000	0.000000	-0.000000	0.000000	3.387720	0.305200	-1.083460	-0.013672	0.981687	0.032898	-1.000000	-1.000000	-1.000000	-1.000000	-1.000000	-1.000000	-1.000000	146.758621	0.000000	-1.000000	-1.000000	544002.000000	1772311747.785179
-20956.050000	-27832.320000	-28040.625000	-15174.270000	0.000000	0.000000	0.000000	0.000000	-1.272626	14.162841	-0.374779	1.678662	0.000000	0.000000	-0.000000	0.000000	2.975700	0.320460	-1.022420	-0.014648	0.982969	0.032288	-1.000000	-1.000000	-1.000000	-1.000000	-1.000000	-1.000000	-1.000000	146.758621	0.000000	-1.000000	-1.000000	544003.000000	1772311747.789236
-20957.670000	-27835.515000	-28042.470000	-15176.925000	0.000000	0.000000	0.000000	0.000000	0.505259	20.720605	-0.821579	-0.593568	0.000000	0.000000	-0.000000	0.000000	2.975700	0.320460	-1.022420	-0.014648	0.982969	0.032288	-1.000000	-1.000000	-1.000000	-1.000000	-1.000000	-1.000000	-1.000000	146.758621	0.000000	-1.000000	-1.000000	544004.000000	1772311747.789239
-20949.840000	-27829.035000	-28034.685000	-15170.985000	0.000000	0.000000	0.000000	0.000000	2.036635	17.887797	-0.604713	-1.637945	0.000000	0.000000	-0.000000	0.000000	2.975700	0.320460	-1.022420	-0.014648	0.982969	0.032288	-1.000000	-1.000000	-1.000000	-1.000000	-1.000000	-1.000000	-1.000000	146.758621	0.000000	-1.000000	-1.000000	544005.000000	1772311747.793199
-20935.260000	-27818.190000	-28019.250000	-15154.830000	0.000000	0.000000	0.000000	0.000000	2.861636	7.860739	0.357760	-1.279897	0.000000	0.000000	-0.000000	0.000000	2.975700	0.320460	-1.022420	-0.014648	0.982969	0.032288	-1.000000	-1.000000	-1.000000	-1.000000	-1.000000	-1.000000	-1.000000	146.758621	0.000000	-1.000000	-1.000000	544006.000000	1772311747.793202
-20949.570000	-27805.185000	-28031.850000	-15164.820000	0.000000	0.000000	0.000000	0.000000	2.966858	-2.747529	1.749209	0.091805	0.000000	0.000000	-0.000000	0.000000	2.975700	0.320460	-1.022420	-0.014648	0.982969	0.032288	-1.000000	-1.000000	-1.000000	-1.000000	-1.000000	-1.000000	-1.000000	146.758621	0.000000	-1.000000	-1.000000	544007.000000	1772311747.800233
-20970.945000	-27813.645000	-28049.715000	-15180.390000	0.000000	0.000000	0.000000	0.000000	1.186400	-8.901137	1.689972	0.639915	0.000000	0.000000	-0.000000	0.000000	2.975700	0.320460	-1.022420	-0.014648	0.982969	0.032288	-1.000000	-1.000000	-1.000000	-1.000000	-1.000000	-1.000000	-1.000000	146.758621	0.000000	-1.000000	-1.000000	544008.000000	1772311747.800236
-20963.835000	-27832.590000	-28042.695000	-15172.695000	0.000000	0.000000	0.000000	0.000000	-3.176200	-10.576037	-1.264237	-1.285843	0.000000	0.000000	-0.000000	0.000000	2.975700	0.320460	-1.022420	-0.014648	0.982969	0.032288	-1.000000	-1.000000	-1.000000	-1.000000	-1.000000	-1.000000	-1.000000	146.758621	0.000000	-1.000000	-1.000000	544009.000000	1772311747.802633
-20954.250000	-27835.200000	-28035.945000	-15168.195000	0.000000	0.000000	0.000000	0.000000	-7.190283	-10.443209	-4.863728	-4.062057	0.000000	0.000000	-0.000000	0.000000	2.975700	0.320460	-1.022420	-0.014648	0.982969	0.032288	-1.000000	-1.000000	-1.000000	-1.000000	-1.000000	-1.000000	-1.000000	146.758621	0.000000	-1.000000	-1.000000	544010.000000	1772311747.802636
-20949.525000	-27829.980000	-28032.390000	-15165.270000	0.000000	0.000000	0.000000	0.000000	-6.756904	-9.221245	-5.343179	-4.530768	0.000000	0.000000	-0.000000	0.000000	2.975700	0.320460	-1.022420	-0.014648	0.982969	0.032288	-1.000000	-1.000000	-1.000000	-1.000000	-1.000000	-1.000000	-1.000000	146.758621	0.000000	-1.000000	-1.000000	544011.000000	1772311747.805160
-20944.035000	-27824.715000	-28024.740000	-15156.630000	0.000000	0.000000	0.000000	0.000000	-1.587526	-5.392449	-1.892843	-1.833995	0.000000	0.000000	-0.000000	0.000000	2.975700	0.320460	-1.022420	-0.014648	0.982969	0.032288	-1.000000	-1.000000	-1.000000	-1.000000	-1.000000	-1.000000	-1.000000	146.758621	0.000000	-1.000000	-1.000000	544012.000000	1772311747.805162
-20941.245000	-27803.070000	-28018.080000	-15148.575000	0.000000	0.000000	0.000000	0.000000	4.747929	1.590535	3.141420	2.399011	0.000000	0.000000	-0.000000	0.000000	2.227960	0.137340	-0.930860	-0.015320	0.983152	0.032837	-1.000000	-1.000000	-1.000000	-1.000000	-1.000000	-1.000000	-1.000000	146.758621	0.000000	-1.000000	-1.000000	544013.000000	1772311747.809174
-20951.865000	-27781.830000	-28039.185000	-15169.005000	0.000000	0.000000	0.000000	0.000000	8.128893	10.047753	6.320507	5.394227	0.000000	0.000000	-0.000000	0.000000	2.227960	0.137340	-0.930860	-0.015320	0.983152	0.032837	-1.000000	-1.000000	-1.000000	-1.000000	-1.000000	-1.000000	-1.000000	146.758621	0.000000	-1.000000	-1.000000	544014.000000	1772311747.809178
-20959.920000	-27759.555000	-28047.555000	-15179.805000	0.000000	0.000000	0.000000	0.000000	6.402292	16.901710	4.897440	4.395955	0.000000	0.000000	-0.000000	0.000000	2.227960	0.137340	-0.930860	-0.015320	0.983152	0.032837	-1.000000	-1.000000	-1.000000	-1.000000	-1.000000	-1.000000	-1.000000	146.758621	0.000000	-1.000000	-1.000000	544015.000000	1772311747.818458
-20967.705000	-27766.710000	-28050.930000	-15182.460000	0.000000	0.000000	0.000000	0.000000	0.618153	18.560080	-0.618859	-0.610758	0.000000	0.000000	-0.000000	0.000000	2.227960	0.137340	-0.930860	-0.015320	0.983152	0.032837	-1.000000	-1.000000	-1.000000	-1.000000	-1.000000	-1.000000	-1.000000	146.758621	0.000000	-1.000000	-1.000000	544016.000000	1772311747.818461
-20965.455000	-27763.065000	-28047.465000	-15178.140000	0.000000	0.000000	0.000000	0.000000	-5.488273	12.595569	-6.028509	-5.765852	0.000000	0.000000	-0.000000	0.000000	2.227960	0.137340	-0.930860	-0.015320	0.983152	0.032837	-1.000000	-1.000000	-1.000000	-1.000000	-1.000000	-1.000000	-1.000000	146.758621	0.000000	-1.000000	-1.000000	544017.000000	1772311747.820162
-20955.645000	-27758.205000	-28036.890000	-15171.840000	0.000000	0.000000	0.000000	0.000000	-7.864718	0.606807	-7.023226	-6.748658	0.000000	0.000000	-0.000000	0.000000	2.227960	0.137340	-0.930860	-0.015320	0.983152	0.032837	-1.000000	-1.000000	-1.000000	-1.000000	-1.000000	-1.000000	-1.000000	146.758621	0.000000	-1.000000	-1.000000	544018.000000	1772311747.820164
-20952.045000	-27764.190000	-28034.190000	-15169.950000	0.000000	0.000000	0.000000	0.000000	-4.900868	-11.825642	-2.731244	-2.690298	0.000000	0.000000	-0.000000	0.000000	2.227960	0.137340	-0.930860	-0.015320	0.983152	0.032837	-1.000000	-1.000000	-1.000000	-1.000000	-1.000000	-1.000000	-1.000000	146.758621	0.000000	-1.000000	-1.000000	544019.000000	1772311747.821407
-20954.700000	-27739.665000	-28039.365000	-15176.025000	0.000000	0.000000	0.000000	0.000000	1.198788	-18.888462	3.680534	3.335620	0.000000	0.000000	-0.000000	0.000000	2.227960	0.137340	-0.930860	-0.015320	0.983152	0.032837	-1.000000	-1.000000	-1.000000	-1.000000	-1.000000	-1.000000	-1.000000	146.758621	0.000000	-1.000000	-1.000000	544020.000000	1772311747.821409
-20949.795000	-27729.405000	-28035.405000	-15173.505000	0.000000	0.000000	0.000000	0.000000	6.221099	-17.458836	7.703883	7.152896	0.000000	0.000000	-0.000000	0.000000	2.227960	0.137340	-0.930860	-0.015320	0.983152	0.032837	-1.000000	-1.000000	-1.000000	-1.000000	-1.000000	-1.000000	-1.000000	146.758621	0.000000	-1.000000	-1.000000	544021.000000	1772311747.825334
-20950.740000	-27721.080000	-28037.160000	-15174.315000	0.000000	0.000000	0.000000	0.000000	7.471958	-8.843885	7.253508	6.915298	0.000000	0.000000	-0.000000	0.000000	2.227960	0.137340	-0.930860	-0.015320	0.983152	0.032837	-1.000000	-1.000000	-1.000000	-1.000000	-1.000000	-1.000000	-1.000000	146.758621	0.000000	-1.000000	-1.000000	544022.000000	1772311747.825337
-20954.070000	-27710.595000	-28039.095000	-15169.680000	0.000000	0.000000	0.000000	0.000000	5.002942	1.681502	3.430429	3.806866	0.000000	0.000000	-0.000000	0.000000	2.441600	0.045780	-0.579880	-0.016602	0.983884	0.033081	-1.000000	-1.000000	-1.000000	-1.000000	-1.000000	-1.000000	-1.000000	146.758621	0.000000	-1.000000	-1.000000	544023.000000	1772311747.829304
-20960.370000	-27698.895000	-28044.495000	-15175.215000	0.000000	0.000000	0.000000	0.000000	0.423663	8.906735	-1.408928	0.091048	0.000000	0.000000	-0.000000	0.000000	2.441600	0.045780	-0.579880	-0.016602	0.983884	0.033081	-1.000000	-1.000000	-1.000000	-1.000000	-1.000000	-1.000000	-1.000000	146.758621	0.000000	-1.000000	-1.000000	544024.000000	1772311747.829307
-20970.630000	-27684.450000	-28052.955000	-15185.610000	0.000000	0.000000	0.000000	0.000000	-4.313850	10.863523	-5.305470	-2.943172	0.000000	0.000000	-0.000000	0.000000	2.441600	0.045780	-0.579880	-0.016602	0.983884	0.033081	-1.000000	-1.000000	-1.000000	-1.000000	-1.000000	-1.000000	-1.000000	146.758621	0.000000	-1.000000	-1.000000	544025.000000	1772311747.833216
-20970.810000	-27672.705000	-28054.530000	-15184.755000	0.000000	0.000000	0.000000	0.000000	-7.431746	8.587997	-7.145732	-5.037415	0.000000	0.000000	-0.000000	0.000000	2.441600	0.045780	-0.579880	-0.016602	0.983884	0.033081	-1.000000	-1.000000	-1.000000	-1.000000	-1.000000	-1.000000	-1.000000	146.758621	0.000000	-1.000000	-1.000000	544026.000000	1772311747.833219
-20948.715000	-27679.590000	-28033.020000	-15164.235000	0.000000	0.000000	0.000000	0.000000	-7.136967	3.954873	-6.012306	-5.274491	0.000000	0.000000	-0.000000	0.000000	2.441600	0.045780	-0.579880	-0.016602	0.983884	0.033081	-1.000000	-1.000000	-1.000000	-1.000000	-1.000000	-1.000000	-1.000000	146.758621	0.000000	-1.000000	-1.000000	544027.000000	1772311747.838305
-20949.795000	-27698.400000	-28033.740000	-15165.090000	0.000000	0.000000	0.000000	0.000000	-2.549450	-2.140901	-1.476080	-2.437231	0.000000	0.000000	-0.000000	0.000000	2.441600	0.045780	-0.579880	-0.016602	0.983884	0.033081	-1.000000	-1.000000	-1.000000	-1.000000	-1.000000	-1.000000	-1.000000	146.758621	0.000000	-1.000000	-1.000000	544028.000000	1772311747.838308
-20948.940000	-27707.265000	-28033.605000	-15164.505000	0.000000	0.000000	0.000000	0.000000	4.030356	-8.967813	4.408459	2.216498	0.000000	0.000000	-0.000000	0.000000	2.441600	0.045780	-0.579880	-0.016602	0.983884	0.033081	-1.000000	-1.000000	-1.000000	-1.000000	-1.000000	-1.000000	-1.000000	146.758621	0.000000	-1.000000	-1.000000	544029.000000	1772311747.841283
-20944.935000	-27699.165000	-28028.475000	-15159.780000	0.000000	0.000000	0.000000	0.000000	8.278984	-13.784057	7.898881	5.382848	0.000000	0.000000	-0.000000	0.000000	2.441600	0.045780	-0.579880	-0.016602	0.983884	0.033081	-1.000000	-1.000000	-1.000000	-1.000000	-1.000000	-1.000000	-1.000000	146.758621	0.000000	-1.000000	-1.000000	544030.000000	1772311747.841286
-20946.915000	-27703.530000	-28029.690000	-15159.780000	0.000000	0.000000	0.000000	0.000000	7.870433	-12.959083	7.135649	5.196271	0.000000	0.000000	-0.000000	0.000000	2.441600	0.045780	-0.579880	-0.016602	0.983884	0.033081	-1.000000	-1.000000	-1.000000	-1.000000	-1.000000	-1.000000	-1.000000	146.758621	0.000000	-1.000000	-1.000000	544031.000000	1772311747.845322
-20954.205000	-27720.855000	-28036.620000	-15165.900000	0.000000	0.000000	0.000000	0.000000	3.537204	-6.338779	2.974994	2.171542	0.000000	0.000000	-0.000000	0.000000	2.441600	0.045780	-0.579880	-0.016602	0.983884	0.033081	-1.000000	-1.000000	-1.000000	-1.000000	-1.000000	-1.000000	-1.000000	146.758621	0.000000	-1.000000	-1.000000	544032.000000	1772311747.845325
-20956.680000	-27720.135000	-28038.420000	-15168.330000	0.000000	0.000000	0.000000	0.000000	-2.390832	2.026426	-2.488380	-2.092779	0.000000	0.000000	-0.000000	0.000000	2.823100	0.000000	-0.488320	-0.015381	0.981687	0.032959	-1.000000	-1.000000	-1.000000	-1.000000	-1.000000	-1.000000	-1.000000	146.758621	0.000000	-1.000000	-1.000000	544033.000000	1772311747.849354
-20956.050000	-27705.915000	-28037.340000	-15168.375000	0.000000	0.000000	0.000000	0.000000	-7.056612	8.564941	-6.745119	-5.604249	0.000000	0.000000	-0.000000	0.000000	2.823100	0.000000	-0.488320	-0.015381	0.981687	0.032959	-1.000000	-1.000000	-1.000000	-1.000000	-1.000000	-1.000000	-1.000000	146.758621	0.000000	-1.000000	-1.000000	544034.000000	1772311747.849358
-20954.070000	-27677.745000	-28037.520000	-15168.690000	0.000000	0.000000	0.000000	0.000000	-8.210886	13.079733	-7.800210	-6.631399	0.000000	0.000000	-0.000000	0.000000	2.823100	0.000000	-0.488320	-0.015381	0.981687	0.032959	-1.000000	-1.000000	-1.000000	-1.000000	-1.000000	-1.000000	-1.000000	146.758621	0.000000	-1.000000	-1.000000	544035.000000	1772311747.853364
-20951.730000	-27688.320000	-28037.025000	-15166.665000	0.000000	0.000000	0.000000	0.000000	-5.509242	15.920868	-5.432590	-4.729983	0.000000	0.000000	-0.000000	0.000000	2.823100	0.000000	-0.488320	-0.015381	0.981687	0.032959	-1.000000	-1.000000	-1.000000	-1.000000	-1.000000	-1.000000	-1.000000	146.758621	0.000000	-1.000000	-1.000000	544036.000000	1772311747.853366
-20949.930000	-27693.945000	-28036.260000	-15165.720000	0.000000	0.000000	0.000000	0.000000	-0.647903	14.857394	-1.206892	-0.964540	0.000000	0.000000	-0.000000	0.000000	2.823100	0.000000	-0.488320	-0.015381	0.981687	0.032959	-1.000000	-1.000000	-1.000000	-1.000000	-1.000000	-1.000000	-1.000000	146.758621	0.000000	-1.000000	-1.000000	544037.000000	1772311747.857395
-20950.155000	-27688.815000	-28034.955000	-15163.515000	0.000000	0.000000	0.000000	0.000000	3.811253	7.957469	2.778175	2.861460	0.000000	0.000000	-0.000000	0.000000	2.823100	0.000000	-0.488320	-0.015381	0.981687	0.032959	-1.000000	-1.000000	-1.000000	-1.000000	-1.000000	-1.000000	-1.000000	146.758621	0.000000	-1.000000	-1.000000	544038.000000	1772311747.857398
-20951.415000	-27676.800000	-28035.090000	-15164.595000	0.000000	0.000000	0.000000	0.000000	5.881781	-2.020890	5.029249	5.162054	0.000000	0.000000	-0.000000	0.000000	2.823100	0.000000	-0.488320	-0.015381	0.981687	0.032959	-1.000000	-1.000000	-1.000000	-1.000000	-1.000000	-1.000000	-1.000000	146.758621	0.000000	-1.000000	-1.000000	544039.000000	1772311747.861253
-20952.900000	-27662.085000	-28035.675000	-15165.855000	0.000000	0.000000	0.000000	0.000000	5.042990	-9.413294	5.063375	5.178024	0.000000	0.000000	-0.000000	0.000000	2.823100	0.000000	-0.488320	-0.015381	0.981687	0.032959	-1.000000	-1.000000	-1.000000	-1.000000	-1.000000	-1.000000	-1.000000	146.758621	0.000000	-1.000000	-1.000000	544040.000000	1772311747.861256
-20949.660000	-27691.290000	-28028.430000	-15155.370000	0.000000	0.000000	0.000000	0.000000	2.324949	-11.488512	3.456080	3.398214	0.000000	0.000000	-0.000000	0.000000	2.823100	0.000000	-0.488320	-0.015381	0.981687	0.032959	-1.000000	-1.000000	-1.000000	-1.000000	-1.000000	-1.000000	-1.000000	146.758621	0.000000	-1.000000	-1.000000	544041.000000	1772311747.865309
-20946.555000	-27713.970000	-28023.210000	-15148.890000	0.000000	0.000000	0.000000	0.000000	-0.415316	-10.916757	1.548239	1.416507	0.000000	0.000000	-0.000000	0.000000	2.823100	0.000000	-0.488320	-0.015381	0.981687	0.032959	-1.000000	-1.000000	-1.000000	-1.000000	-1.000000	-1.000000	-1.000000	146.758621	0.000000	-1.000000	-1.000000	544042.000000	1772311747.865312
-20957.490000	-27700.245000	-28037.205000	-15166.755000	0.000000	0.000000	0.000000	0.000000	-2.004940	-10.679003	0.072144	0.059688	0.000000	0.000000	-0.000000	0.000000	3.616620	0.015260	-0.610400	-0.015381	0.982053	0.033142	-1.000000	-1.000000	-1.000000	-1.000000	-1.000000	-1.000000	-1.000000	146.758621	0.000000	-1.000000	-1.000000	544043.000000	1772311747.869242
-20962.935000	-27671.445000	-28047.015000	-15182.955000	0.000000	0.000000	0.000000	0.000000	-2.819425	-8.575923	-1.745920	-1.916020	0.000000	0.000000	-0.000000	0.000000	3.616620	0.015260	-0.610400	-0.015381	0.982053	0.033142	-1.000000	-1.000000	-1.000000	-1.000000	-1.000000	-1.000000	-1.000000	146.758621	0.000000	-1.000000	-1.000000	544044.000000	1772311747.869245
-20951.550000	-27670.320000	-28038.780000	-15173.055000	0.000000	0.000000	0.000000	0.000000	-3.225163	-1.239873	-4.164904	-5.085276	0.000000	0.000000	-0.000000	0.000000	3.616620	0.015260	-0.610400	-0.015381	0.982053	0.033142	-1.000000	-1.000000	-1.000000	-1.000000	-1.000000	-1.000000	-1.000000	146.758621	0.000000	-1.000000	-1.000000	544045.000000	1772311747.873443
-20951.325000	-27679.725000	-28037.430000	-15165.990000	0.000000	0.000000	0.000000	0.000000	-2.349535	8.647887	-5.299206	-6.816406	0.000000	0.000000	-0.000000	0.000000	3.616620	0.015260	-0.610400	-0.015381	0.982053	0.033142	-1.000000	-1.000000	-1.000000	-1.000000	-1.000000	-1.000000	-1.000000	146.758621	0.000000	-1.000000	-1.000000	544046.000000	1772311747.873446
-20944.440000	-27673.470000	-28030.005000	-15162.480000	0.000000	0.000000	0.000000	0.000000	0.202470	14.299108	-3.401557	-4.368463	0.000000	0.000000	-0.000000	0.000000	3.616620	0.015260	-0.610400	-0.015381	0.982053	0.033142	-1.000000	-1.000000	-1.000000	-1.000000	-1.000000	-1.000000	-1.000000	146.758621	0.000000	-1.000000	-1.000000	544047.000000	1772311747.877305
-20944.890000	-27672.480000	-28028.205000	-15162.120000	0.000000	0.000000	0.000000	0.000000	3.123979	12.511236	0.786509	1.201318	0.000000	0.000000	-0.000000	0.000000	3.616620	0.015260	-0.610400	-0.015381	0.982053	0.033142	-1.000000	-1.000000	-1.000000	-1.000000	-1.000000	-1.000000	-1.000000	146.758621	0.000000	-1.000000	-1.000000	544048.000000	1772311747.877308
-20947.455000	-27673.515000	-28029.735000	-15162.705000	0.000000	0.000000	0.000000	0.000000	4.505296	5.654688	4.676677	6.126702	0.000000	0.000000	-0.000000	0.000000	3.616620	0.015260	-0.610400	-0.015381	0.982053	0.033142	-1.000000	-1.000000	-1.000000	-1.000000	-1.000000	-1.000000	-1.000000	146.758621	0.000000	-1.000000	-1.000000	544049.000000	1772311747.881428
-20938.905000	-27682.515000	-28022.355000	-15154.065000	0.000000	0.000000	0.000000	0.000000	3.500416	-2.156262	6.016093	7.649644	0.000000	0.000000	-0.000000	0.000000	3.616620	0.015260	-0.610400	-0.015381	0.982053	0.033142	-1.000000	-1.000000	-1.000000	-1.000000	-1.000000	-1.000000	-1.000000	146.758621	0.000000	-1.000000	-1.000000	544050.000000	1772311747.881431
-20944.710000	-27686.790000	-28027.260000	-15158.565000	0.000000	0.000000	0.000000	0.000000	0.980337	-7.983249	4.464819	5.737338	0.000000	0.000000	-0.000000	0.000000	3.616620	0.015260	-0.610400	-0.015381	0.982053	0.033142	-1.000000	-1.000000	-1.000000	-1.000000	-1.000000	-1.000000	-1.000000	146.758621	0.000000	-1.000000	-1.000000	544051.000000	1772311747.885375
-20956.365000	-27665.505000	-28039.995000	-15170.040000	0.000000	0.000000	0.000000	0.000000	-1.893951	-9.902296	0.903062	1.664055	0.000000	0.000000	-0.000000	0.000000	3.616620	0.015260	-0.610400	-0.015381	0.982053	0.033142	-1.000000	-1.000000	-1.000000	-1.000000	-1.000000	-1.000000	-1.000000	146.758621	0.000000	-1.000000	-1.000000	544052.000000	1772311747.885377
-20946.645000	-27652.140000	-28033.965000	-15165.270000	0.000000	0.000000	0.000000	0.000000	-4.383277	-6.613765	-3.371440	-3.119028	0.000000	0.000000	-0.000000	0.000000	3.265640	-0.030520	-0.579880	-0.015564	0.982480	0.031372	-1.000000	-1.000000	-1.000000	-1.000000	-1.000000	-1.000000	-1.000000	146.758621	0.000000	-1.000000	-1.000000	544053.000000	1772311747.889395
-20948.040000	-27651.915000	-28036.665000	-15170.715000	0.000000	0.000000	0.000000	0.000000	-5.197745	0.539046	-6.238941	-6.565292	0.000000	0.000000	-0.000000	0.000000	3.265640	-0.030520	-0.579880	-0.015564	0.982480	0.031372	-1.000000	-1.000000	-1.000000	-1.000000	-1.000000	-1.000000	-1.000000	146.758621	0.000000	-1.000000	-1.000000	544054.000000	1772311747.889397
-20953.620000	-27637.605000	-28039.545000	-15175.170000	0.000000	0.000000	0.000000	0.000000	-3.606068	7.144639	-6.057841	-7.108481	0.000000	0.000000	-0.000000	0.000000	3.265640	-0.030520	-0.579880	-0.015564	0.982480	0.031372	-1.000000	-1.000000	-1.000000	-1.000000	-1.000000	-1.000000	-1.000000	146.758621	0.000000	-1.000000	-1.000000	544055.000000	1772311747.893457
-20944.980000	-27639.720000	-28026.675000	-15159.600000	0.000000	0.000000	0.000000	0.000000	-0.661505	9.376656	-3.073426	-4.702232	0.000000	0.000000	-0.000000	0.000000	3.265640	-0.030520	-0.579880	-0.015564	0.982480	0.031372	-1.000000	-1.000000	-1.000000	-1.000000	-1.000000	-1.000000	-1.000000	146.758621	0.000000	-1.000000	-1.000000	544056.000000	1772311747.893460
-20928.915000	-27638.730000	-28014.165000	-15145.065000	0.000000	0.000000	0.000000	0.000000	2.534701	6.446855	1.583297	0.106279	0.000000	0.000000	-0.000000	0.000000	3.265640	-0.030520	-0.579880	-0.015564	0.982480	0.031372	-1.000000	-1.000000	-1.000000	-1.000000	-1.000000	-1.000000	-1.000000	146.758621	0.000000	-1.000000	-1.000000	544057.000000	1772311747.897439
-20939.355000	-27634.815000	-28024.830000	-15154.470000	0.000000	0.000000	0.000000	0.000000	5.313349	0.263157	6.076009	5.662212	0.000000	0.000000	-0.000000	0.000000	3.265640	-0.030520	-0.579880	-0.015564	0.982480	0.031372	-1.000000	-1.000000	-1.000000	-1.000000	-1.000000	-1.000000	-1.000000	146.758621	0.000000	-1.000000	-1.000000	544058.000000	1772311747.897442
-20963.655000	-27627.255000	-28050.705000	-15179.670000	0.000000	0.000000	0.000000	0.000000	5.625160	-5.645320	7.125673	8.092587	0.000000	0.000000	-0.000000	0.000000	3.265640	-0.030520	-0.579880	-0.015564	0.982480	0.031372	-1.000000	-1.000000	-1.000000	-1.000000	-1.000000	-1.000000	-1.000000	146.758621	0.000000	-1.000000	-1.000000	544059.000000	1772311747.902673
-20961.855000	-27604.665000	-28049.895000	-15181.245000	0.000000	0.000000	0.000000	0.000000	1.685786	-7.908700	2.729496	4.480080	0.000000	0.000000	-0.000000	0.000000	3.265640	-0.030520	-0.579880	-0.015564	0.982480	0.031372	-1.000000	-1.000000	-1.000000	-1.000000	-1.000000	-1.000000	-1.000000	146.758621	0.000000	-1.000000	-1.000000	544060.000000	1772311747.902676
-20956.725000	-27569.430000	-28047.330000	-15178.410000	0.000000	0.000000	0.000000	0.000000	-4.125647	-4.852417	-4.143204	-2.724329	0.000000	0.000000	-0.000000	0.000000	3.265640	-0.030520	-0.579880	-0.015564	0.982480	0.031372	-1.000000	-1.000000	-1.000000	-1.000000	-1.000000	-1.000000	-1.000000	146.758621	0.000000	-1.000000	-1.000000	544061.000000	1772311747.905518
-20958.390000	-27540.045000	-28051.920000	-15183.045000	0.000000	0.000000	0.000000	0.000000	-6.973720	2.533612	-7.974423	-7.711477	0.000000	0.000000	-0.000000	0.000000	3.265640	-0.030520	-0.579880	-0.015564	0.982480	0.031372	-1.000000	-1.000000	-1.000000	-1.000000	-1.000000	-1.000000	-1.000000	146.758621	0.000000	-1.000000	-1.000000	544062.000000	1772311747.905520
-20958.570000	-27514.710000	-28050.480000	-15179.265000	0.000000	0.000000	0.000000	0.000000	-4.952252	10.284370	-6.382328	-7.236831	0.000000	0.000000	-0.000000	0.000000	1.938020	0.122080	-0.534100	-0.015747	0.984556	0.030090	-1.000000	-1.000000	-1.000000	-1.000000	-1.000000	-1.000000	-1.000000	146.758621	0.000000	-1.000000	-1.000000	544063.000000	1772311747.909510
-20955.555000	-27508.455000	-28045.530000	-15173.055000	0.000000	0.000000	0.000000	0.000000	-0.108563	13.237515	-1.099138	-2.304848	0.000000	0.000000	-0.000000	0.000000	1.938020	0.122080	-0.534100	-0.015747	0.984556	0.030090	-1.000000	-1.000000	-1.000000	-1.000000	-1.000000	-1.000000	-1.000000	146.758621	0.000000	-1.000000	-1.000000	544064.000000	1772311747.909514
-20955.825000	-27525.645000	-28043.280000	-15171.210000	0.000000	0.000000	0.000000	0.000000	4.405818	7.958399	4.693794	3.953443	0.000000	0.000000	-0.000000	0.000000	1.938020	0.122080	-0.534100	-0.015747	0.984556	0.030090	-1.000000	-1.000000	-1.000000	-1.000000	-1.000000	-1.000000	-1.000000	146.758621	0.000000	-1.000000	-1.000000	544065.000000	1772311747.913492
-20953.305000	-27540.270000	-28041.705000	-15172.245000	0.000000	0.000000	0.000000	0.000000	6.488537	-4.922182	8.253664	8.183072	-0.000000	0.000000	-0.000000	0.000000	1.938020	0.122080	-0.534100	-0.015747	0.984556	0.030090	-1.000000	-1.000000	-1.000000	-1.000000	-1.000000	-1.000000	-1.000000	146.758621	0.000000	-1.000000	-1.000000	544066.000000	1772311747.913495
-20956.860000	-27546.345000	-28046.115000	-15176.025000	0.000000	0.000000	0.000000	0.000000	5.636349	-19.693354	8.110625	8.273627	-0.000000	0.000000	-0.000000	0.000000	1.938020	0.122080	-0.534100	-0.015747	0.984556	0.030090	-1.000000	-1.000000	-1.000000	-1.000000	-1.000000	-1.000000	-1.000000	146.758621	0.000000	-1.000000	-1.000000	544067.000000	1772311747.917634
-20951.955000	-27563.760000	-28039.680000	-15167.970000	0.000000	0.000000	0.000000	0.000000	2.719149	-28.353618	4.639842	4.604585	-0.000000	0.000000	-0.000000	0.000000	1.938020	0.122080	-0.534100	-0.015747	0.984556	0.030090	-1.000000	-1.000000	-1.000000	-1.000000	-1.000000	-1.000000	-1.000000	146.758621	0.000000	-1.000000	-1.000000	544068.000000	1772311747.917636
-20947.680000	-27581.895000	-28036.980000	-15165.405000	0.000000	0.000000	0.000000	0.000000	-0.513662	-26.424698	-0.014781	-0.195627	-0.000000	0.000000	-0.000000	0.000000	1.938020	0.122080	-0.534100	-0.015747	0.984556	0.030090	-1.000000	-1.000000	-1.000000	-1.000000	-1.000000	-1.000000	-1.000000	146.758621	0.000000	-1.000000	-1.000000	544069.000000	1772311747.921561
-20940.390000	-27609.480000	-28030.725000	-15159.780000	0.000000	0.000000	0.000000	0.000000	-2.373825	-15.710614	-3.388265	-3.426998	-0.000000	0.000000	-0.000000	0.000000	1.938020	0.122080	-0.534100	-0.015747	0.984556	0.030090	-1.000000	-1.000000	-1.000000	-1.000000	-1.000000	-1.000000	-1.000000	146.758621	0.000000	-1.000000	-1.000000	544070.000000	1772311747.921564
-20943.855000	-27613.890000	-28035.540000	-15164.415000	0.000000	0.000000	0.000000	0.000000	-2.462782	-1.525618	-4.511959	-4.315368	-0.000000	0.000000	-0.000000	0.000000	1.938020	0.122080	-0.534100	-0.015747	0.984556	0.030090	-1.000000	-1.000000	-1.000000	-1.000000	-1.000000	-1.000000	-1.000000	146.758621	0.000000	-1.000000	-1.000000	544071.000000	1772311747.925541
-20945.745000	-27631.755000	-28033.695000	-15160.500000	0.000000	0.000000	0.000000	0.000000	-1.895247	11.420388	-4.148616	-3.806295	-0.000000	0.000000	-0.000000	0.000000	1.938020	0.122080	-0.534100	-0.015747	0.984556	0.030090	-1.000000	-1.000000	-1.000000	-1.000000	-1.000000	-1.000000	-1.000000	146.758621	0.000000	-1.000000	-1.000000	544072.000000	1772311747.925543
-20936.205000	-27646.830000	-28022.490000	-15149.520000	0.000000	0.000000	0.000000	0.000000	-1.718265	20.079799	-3.169493	-2.743332	-0.000000	0.000000	-0.000000	0.000000	0.885080	0.000000	-0.183120	-0.016479	0.985593	0.030395	-1.000000	-1.000000	-1.000000	-1.000000	-1.000000	-1.000000	-1.000000	146.758621	0.000000	-1.000000	-1.000000	544073.000000	1772311747.929325
-20927.790000	-27646.245000	-28015.155000	-15145.965000	0.000000	0.000000	0.000000	0.000000	-1.485037	22.964358	-1.472660	-1.095574	-0.000000	0.000000	-0.000000	0.000000	0.885080	0.000000	-0.183120	-0.016479	0.985593	0.030395	-1.000000	-1.000000	-1.000000	-1.000000	-1.000000	-1.000000	-1.000000	146.758621	0.000000	-1.000000	-1.000000	544074.000000	1772311747.929327
-20933.145000	-27626.670000	-28020.645000	-15152.895000	0.000000	0.000000	0.000000	0.000000	-0.537469	21.275399	0.697680	0.656494	-0.000000	0.000000	-0.000000	0.000000	0.885080	0.000000	-0.183120	-0.016479	0.985593	0.030395	-1.000000	-1.000000	-1.000000	-1.000000	-1.000000	-1.000000	-1.000000	146.758621	0.000000	-1.000000	-1.000000	544075.000000	1772311747.933632
-20951.775000	-27631.215000	-28037.115000	-15163.065000	0.000000	0.000000	0.000000	0.000000	0.013657	17.668111	1.569988	0.951920	-0.000000	0.000000	-0.000000	0.000000	0.885080	0.000000	-0.183120	-0.016479	0.985593	0.030395	-1.000000	-1.000000	-1.000000	-1.000000	-1.000000	-1.000000	-1.000000	146.758621	0.000000	-1.000000	-1.000000	544076.000000	1772311747.933635
-20950.290000	-27648.720000	-28034.055000	-15152.850000	0.000000	0.000000	0.000000	0.000000	-1.356618	12.523376	-0.227418	-0.724426	-0.000000	0.000000	-0.000000	0.000000	0.885080	0.000000	-0.183120	-0.016479	0.985593	0.030395	-1.000000	-1.000000	-1.000000	-1.000000	-1.000000	-1.000000	-1.000000	146.758621	0.000000	-1.000000	-1.000000	544077.000000	1772311747.937619
-20945.970000	-27646.875000	-28031.445000	-15153.570000	0.000000	0.000000	0.000000	0.000000	-3.568915	4.462685	-3.119868	-2.476370	-0.000000	0.000000	-0.000000	0.000000	0.885080	0.000000	-0.183120	-0.016479	0.985593	0.030395	-1.000000	-1.000000	-1.000000	-1.000000	-1.000000	-1.000000	-1.000000	146.758621	0.000000	-1.000000	-1.000000	544078.000000	1772311747.937622
-20946.015000	-27638.145000	-28039.230000	-15176.925000	0.000000	0.000000	0.000000	0.000000	-3.793863	-5.113937	-4.178208	-2.729217	-0.000000	0.000000	-0.000000	0.000000	0.885080	0.000000	-0.183120	-0.016479	0.985593	0.030395	-1.000000	-1.000000	-1.000000	-1.000000	-1.000000	-1.000000	-1.000000	146.758621	0.000000	-1.000000	-1.000000	544079.000000	1772311747.941565
-20944.845000	-27637.920000	-28035.495000	-15169.140000	0.000000	0.000000	0.000000	0.000000	-1.087241	-11.958738	-2.527552	-2.197044	-0.000000	0.000000	-0.000000	0.000000	0.885080	0.000000	-0.183120	-0.016479	0.985593	0.030395	-1.000000	-1.000000	-1.000000	-1.000000	-1.000000	-1.000000	-1.000000	146.758621	0.000000	-1.000000	-1.000000	544080.000000	1772311747.941567
-20939.805000	-27661.995000	-28028.520000	-15161.085000	0.000000	0.000000	0.000000	0.000000	2.906234	-13.990021	0.780260	-1.159670	-0.000000	0.000000	-0.000000	0.000000	0.885080	0.000000	-0.183120	-0.016479	0.985593	0.030395	-1.000000	-1.000000	-1.000000	-1.000000	-1.000000	-1.000000	-1.000000	146.758621	0.000000	-1.000000	-1.000000	544081.000000	1772311747.945740
-20939.670000	-27693.180000	-28029.105000	-15166.980000	0.000000	0.000000	0.000000	0.000000	5.954496	-13.458903	4.323614	1.217572	-0.000000	0.000000	-0.000000	0.000000	0.885080	0.000000	-0.183120	-0.016479	0.985593	0.030395	-1.000000	-1.000000	-1.000000	-1.000000	-1.000000	-1.000000	-1.000000	146.758621	0.000000	-1.000000	-1.000000	544082.000000	1772311747.945743
-20944.980000	-27718.830000	-28030.005000	-15163.965000	0.000000	0.000000	0.000000	0.000000	6.505030	-13.341135	6.452864	4.185999	-0.000000	0.000000	-0.000000	0.000000	0.778260	0.045780	-0.274680	-0.015625	0.984006	0.031860	-1.000000	-1.000000	-1.000000	-1.000000	-1.000000	-1.000000	-1.000000	146.758621	0.000000	-1.000000	-1.000000	544083.000000	1772311747.949684
-20942.280000	-27728.055000	-28025.325000	-15153.030000	0.000000	0.000000	0.000000	0.000000	4.237854	-13.173657	6.012601	6.026015	-0.000000	0.000000	-0.000000	0.000000	0.778260	0.045780	-0.274680	-0.015625	0.984006	0.031860	-1.000000	-1.000000	-1.000000	-1.000000	-1.000000	-1.000000	-1.000000	146.758621	0.000000	-1.000000	-1.000000	544084.000000	1772311747.949687
-20942.640000	-27718.965000	-28023.120000	-15142.365000	0.000000	0.000000	0.000000	0.000000	0.481104	-9.450763	3.470535	6.347058	-0.000000	0.000000	-0.000000	0.000000	0.778260	0.045780	-0.274680	-0.015625	0.984006	0.031860	-1.000000	-1.000000	-1.000000	-1.000000	-1.000000	-1.000000	-1.000000	146.758621	0.000000	-1.000000	-1.000000	544085.000000	1772311747.954628
-20943.180000	-27707.940000	-28013.040000	-15115.545000	0.000000	0.000000	0.000000	0.000000	-2.720764	0.190647	0.480924	5.949243	-0.000000	0.000000	-0.000000	0.000000	0.778260	0.045780	-0.274680	-0.015625	0.984006	0.031860	-1.000000	-1.000000	-1.000000	-1.000000	-1.000000	-1.000000	-1.000000	146.758621	0.000000	-1.000000	-1.000000	544086.000000	1772311747.954631
-20945.880000	-27680.940000	-28012.905000	-15101.595000	0.000000	0.000000	0.000000	0.000000	-4.200284	13.718410	-1.525889	5.551586	-0.000000	0.000000	-0.000000	0.000000	0.778260	0.045780	-0.274680	-0.015625	0.984006	0.031860	-1.000000	-1.000000	-1.000000	-1.000000	-1.000000	-1.000000	-1.000000	146.758621	0.000000	-1.000000	-1.000000	544087.000000	1772311747.959089
-20940.255000	-27683.145000	-28004.580000	-15087.015000	0.000000	0.000000	0.000000	0.000000	-3.897477	25.218297	-2.243077	4.713102	-0.000000	0.000000	-0.000000	0.000000	0.778260	0.045780	-0.274680	-0.015625	0.984006	0.031860	-1.000000	-1.000000	-1.000000	-1.000000	-1.000000	-1.000000	-1.000000	146.758621	0.000000	-1.000000	-1.000000	544088.000000	1772311747.959092
-20933.190000	-27715.680000	-28027.440000	-15154.830000	0.000000	0.000000	0.000000	0.000000	-2.097451	27.475788	-2.607717	0.827827	-0.000000	0.000000	-0.000000	0.000000	0.778260	0.045780	-0.274680	-0.015625	0.984006	0.031860	-1.000000	-1.000000	-1.000000	-1.000000	-1.000000	-1.000000	-1.000000	146.758621	0.000000	-1.000000	-1.000000	544089.000000	1772311747.961495
-20937.015000	-27713.115000	-28052.640000	-15231.195000	0.000000	0.000000	0.000000	0.000000	0.506418	16.862314	-4.408367	-10.071143	-0.000000	0.000000	-0.000000	0.000000	0.778260	0.045780	-0.274680	-0.015625	0.984006	0.031860	-1.000000	-1.000000	-1.000000	-1.000000	-1.000000	-1.000000	-1.000000	146.758621	0.000000	-1.000000	-1.000000	544090.000000	1772311747.961498
-20951.055000	-27697.680000	-28047.690000	-15197.940000	0.000000	0.000000	0.000000	0.000000	2.177916	-1.272688	-7.874382	-25.759977	-0.000000	0.000000	-0.000000	0.000000	0.778260	0.045780	-0.274680	-0.015625	0.984006	0.031860	-1.000000	-1.000000	-1.000000	-1.000000	-1.000000	-1.000000	-1.000000	146.758621	0.000000	-1.000000	-1.000000	544091.000000	1772311747.967126
-20951.235000	-27709.740000	-28040.355000	-15176.295000	0.000000	0.000000	0.000000	0.000000	1.344773	-16.087184	-9.511320	-32.916972	-0.000000	0.000000	-0.000000	0.000000	0.778260	0.045780	-0.274680	-0.015625	0.984006	0.031860	-1.000000	-1.000000	-1.000000	-1.000000	-1.000000	-1.000000	-1.000000	146.758621	0.000000	-1.000000	-1.000000	544092.000000	1772311747.967129
-20933.595000	-27741.465000	-28021.905000	-15155.685000	0.000000	0.000000	0.000000	0.000000	-0.865835	-21.795722	-5.340591	-20.119562	-0.000000	0.000000	-0.000000	0.000000	1.190280	0.076300	0.137340	-0.015808	0.983274	0.033081	-1.000000	-1.000000	-1.000000	-1.000000	-1.000000	-1.000000	-1.000000	146.620690	0.000000	-1.000000	-1.000000	544093.000000	1772311747.971709
-20924.010000	-27756.810000	-28017.360000	-15152.670000	0.000000	0.000000	0.000000	0.000000	-1.253702	-20.490533	4.084284	7.441088	-0.000000	0.000000	-0.000000	0.000000	1.190280	0.076300	0.137340	-0.015808	0.983274	0.033081	-1.000000	-1.000000	-1.000000	-1.000000	-1.000000	-1.000000	-1.000000	146.620690	0.000000	-1.000000	-1.000000	544094.000000	1772311747.971712
-20923.245000	-27759.105000	-28016.550000	-15150.690000	0.000000	0.000000	0.000000	0.000000	1.292609	-15.559478	13.367217	32.630929	-0.000000	0.000000	-0.000000	0.000000	1.190280	0.076300	0.137340	-0.015808	0.983274	0.033081	-1.000000	-1.000000	-1.000000	-1.000000	-1.000000	-1.000000	-1.000000	146.620690	0.000000	-1.000000	-1.000000	544095.000000	1772311747.974142
-20926.215000	-27765.945000	-28019.520000	-15158.880000	0.000000	0.000000	0.000000	0.000000	4.156559	-7.859716	16.544969	41.142778	-0.000000	0.000000	-0.000000	0.000000	1.190280	0.076300	0.137340	-0.015808	0.983274	0.033081	-1.000000	-1.000000	-1.000000	-1.000000	-1.000000	-1.000000	-1.000000	146.620690	0.000000	-1.000000	-1.000000	544096.000000	1772311747.974144
-20924.775000	-27775.890000	-28017.180000	-15163.785000	0.000000	0.000000	0.000000	0.000000	4.224060	1.681440	11.771494	30.295724	-0.000000	0.000000	-0.000000	0.000000	1.190280	0.076300	0.137340	-0.015808	0.983274	0.033081	-1.000000	-1.000000	-1.000000	-1.000000	-1.000000	-1.000000	-1.000000	146.620690	0.000000	-1.000000	-1.000000	544097.000000	1772311747.977687
-20929.005000	-27782.550000	-28017.990000	-15156.720000	0.000000	0.000000	0.000000	0.000000	1.095599	10.196285	2.231819	8.326024	-0.000000	0.000000	-0.000000	0.000000	1.190280	0.076300	0.137340	-0.015808	0.983274	0.033081	-1.000000	-1.000000	-1.000000	-1.000000	-1.000000	-1.000000	-1.000000	146.620690	0.000000	-1.000000	-1.000000	544098.000000	1772311747.977690
-20935.125000	-27791.730000	-28021.140000	-15154.065000	0.000000	0.000000	0.000000	0.000000	-3.296445	14.715125	-6.931073	-12.340818	-0.000000	0.000000	-0.000000	0.000000	1.190280	0.076300	0.137340	-0.015808	0.983274	0.033081	-1.000000	-1.000000	-1.000000	-1.000000	-1.000000	-1.000000	-1.000000	146.620690	0.000000	-1.000000	-1.000000	544099.000000	1772311747.981710
-20916.810000	-27776.790000	-28005.345000	-15140.835000	0.000000	0.000000	0.000000	0.000000	-6.285706	14.583107	-11.763992	-22.765707	-0.000000	0.000000	-0.000000	0.000000	1.190280	0.076300	0.137340	-0.015808	0.983274	0.033081	-1.000000	-1.000000	-1.000000	-1.000000	-1.000000	-1.000000	-1.000000	146.620690	0.000000	-1.000000	-1.000000	544100.000000	1772311747.981712
-20912.490000	-27743.445000	-28003.950000	-15135.390000	0.000000	0.000000	0.000000	0.000000	-5.605714	12.256755	-10.734799	-21.222278	-0.000000	0.000000	-0.000000	0.000000	1.190280	0.076300	0.137340	-0.015808	0.983274	0.033081	-1.000000	-1.000000	-1.000000	-1.000000	-1.000000	-1.000000	-1.000000	146.620690	0.000000	-1.000000	-1.000000	544101.000000	1772311747.985813
-20942.505000	-27724.680000	-28031.400000	-15159.555000	0.000000	0.000000	0.000000	0.000000	-2.003879	10.871251	-5.945799	-12.549522	-0.000000	0.000000	-0.000000	0.000000	1.190280	0.076300	0.137340	-0.015808	0.983274	0.033081	-1.000000	-1.000000	-1.000000	-1.000000	-1.000000	-1.000000	-1.000000	146.620690	0.000000	-1.000000	-1.000000	544102.000000	1772311747.985816
-20975.130000	-27652.365000	-28063.485000	-15190.065000	0.000000	0.000000	0.000000	0.000000	-0.035455	11.307287	-2.561088	-4.717380	-0.000000	0.000000	-0.000000	0.000000	2.670500	-0.061040	0.701960	-0.016235	0.981260	0.035095	-1.000000	-1.000000	-1.000000	-1.000000	-1.000000	-1.000000	-1.000000	146.620690	0.000000	-1.000000	-1.000000	544103.000000	1772311747.989651
-20958.345000	-27604.260000	-28052.730000	-15185.250000	0.000000	0.000000	0.000000	0.000000	-2.226891	12.746427	-3.277251	-2.393154	-0.000000	0.000000	-0.000000	0.000000	2.670500	-0.061040	0.701960	-0.016235	0.981260	0.035095	-1.000000	-1.000000	-1.000000	-1.000000	-1.000000	-1.000000	-1.000000	146.620690	0.000000	-1.000000	-1.000000	544104.000000	1772311747.989654
-20939.850000	-27596.520000	-28040.670000	-15179.580000	0.000000	0.000000	0.000000	0.000000	-4.295380	12.290801	-4.352395	-2.872062	-0.000000	0.000000	-0.000000	0.000000	2.670500	-0.061040	0.701960	-0.016235	0.981260	0.035095	-1.000000	-1.000000	-1.000000	-1.000000	-1.000000	-1.000000	-1.000000	146.620690	0.000000	-1.000000	-1.000000	544105.000000	1772311747.993818
-20934.990000	-27602.640000	-28040.580000	-15182.370000	0.000000	0.000000	0.000000	0.000000	-0.772813	4.652971	-0.772819	-0.806095	-0.000000	0.000000	-0.000000	0.000000	2.670500	-0.061040	0.701960	-0.016235	0.981260	0.035095	-1.000000	-1.000000	-1.000000	-1.000000	-1.000000	-1.000000	-1.000000	146.620690	0.000000	-1.000000	-1.000000	544106.000000	1772311747.993821
-20944.620000	-27597.645000	-28042.065000	-15174.630000	0.000000	0.000000	0.000000	0.000000	6.975944	-11.864703	6.700983	4.921361	-0.000000	0.000000	-0.000000	0.000000	2.670500	-0.061040	0.701960	-0.016235	0.981260	0.035095	-1.000000	-1.000000	-1.000000	-1.000000	-1.000000	-1.000000	-1.000000	146.620690	0.000000	-1.000000	-1.000000	544107.000000	1772311748.000872
-20970.180000	-27609.930000	-28048.995000	-15165.720000	0.000000	0.000000	0.000000	0.000000	11.929397	-30.844913	12.652250	11.290745	-0.000000	0.000000	-0.000000	0.000000	2.670500	-0.061040	0.701960	-0.016235	0.981260	0.035095	-1.000000	-1.000000	-1.000000	-1.000000	-1.000000	-1.000000	-1.000000	146.620690	0.000000	-1.000000	-1.000000	544108.000000	1772311748.000877
-20964.015000	-27643.545000	-28044.855000	-15161.445000	0.000000	0.000000	0.000000	0.000000	9.290687	-43.006477	12.971631	14.842472	-0.000000	0.000000	-0.000000	0.000000	2.670500	-0.061040	0.701960	-0.016235	0.981260	0.035095	-1.000000	-1.000000	-1.000000	-1.000000	-1.000000	-1.000000	-1.000000	146.620690	0.000000	-1.000000	-1.000000	544109.000000	1772311748.006058
-20949.930000	-27663.570000	-28036.440000	-15161.220000	0.000000	0.000000	0.000000	0.000000	1.761526	-43.401012	8.196114	13.563664	-0.000000	0.000000	-0.000000	0.000000	2.670500	-0.061040	0.701960	-0.016235	0.981260	0.035095	-1.000000	-1.000000	-1.000000	-1.000000	-1.000000	-1.000000	-1.000000	146.620690	0.000000	-1.000000	-1.000000	544110.000000	1772311748.006061
-20921.445000	-27654.885000	-28011.150000	-15147.945000	0.000000	0.000000	0.000000	0.000000	-3.454393	-31.711435	2.354356	7.780264	-0.000000	0.000000	-0.000000	0.000000	2.670500	-0.061040	0.701960	-0.016235	0.981260	0.035095	-1.000000	-1.000000	-1.000000	-1.000000	-1.000000	-1.000000	-1.000000	146.620690	0.000000	-1.000000	-1.000000	544111.000000	1772311748.006066
-20887.965000	-27653.670000	-27980.820000	-15122.205000	0.000000	0.000000	0.000000	0.000000	-1.826700	-10.276004	-0.460913	0.612911	-0.000000	0.000000	-0.000000	0.000000	2.670500	-0.061040	0.701960	-0.016235	0.981260	0.035095	-1.000000	-1.000000	-1.000000	-1.000000	-1.000000	-1.000000	-1.000000	146.620690	0.000000	-1.000000	-1.000000	544112.000000	1772311748.006068
-20916.090000	-27645.210000	-28008.900000	-15144.570000	0.000000	0.000000	0.000000	0.000000	4.099066	15.006842	-0.070804	-4.705334	-0.000000	0.000000	-0.000000	0.000000	4.806900	-0.671440	1.754900	-0.017273	0.980222	0.037598	-1.000000	-1.000000	-1.000000	-1.000000	-1.000000	-1.000000	-1.000000	146.620690	0.000000	-1.000000	-1.000000	544113.000000	1772311748.009860
-20968.965000	-27636.930000	-28057.815000	-15184.800000	0.000000	0.000000	0.000000	0.000000	5.642353	35.515549	-1.788172	-8.981196	-0.000000	0.000000	-0.000000	0.000000	4.806900	-0.671440	1.754900	-0.017273	0.980222	0.037598	-1.000000	-1.000000	-1.000000	-1.000000	-1.000000	-1.000000	-1.000000	146.620690	0.000000	-1.000000	-1.000000	544114.000000	1772311748.009863
-20938.815000	-27628.920000	-28025.820000	-15158.790000	0.000000	0.000000	0.000000	0.000000	-2.533128	44.319216	-9.270130	-14.036216	-0.000000	0.000000	-0.000000	0.000000	4.806900	-0.671440	1.754900	-0.017273	0.980222	0.037598	-1.000000	-1.000000	-1.000000	-1.000000	-1.000000	-1.000000	-1.000000	146.620690	0.000000	-1.000000	-1.000000	544115.000000	1772311748.013878
-20954.610000	-27621.720000	-28041.300000	-15175.665000	0.000000	0.000000	0.000000	0.000000	-14.105718	39.542888	-17.071478	-16.831345	-0.000000	0.000000	-0.000000	0.000000	4.806900	-0.671440	1.754900	-0.017273	0.980222	0.037598	-1.000000	-1.000000	-1.000000	-1.000000	-1.000000	-1.000000	-1.000000	146.620690	0.000000	-1.000000	-1.000000	544116.000000	1772311748.013881
-20984.940000	-27655.380000	-28072.665000	-15201.765000	0.000000	0.000000	0.000000	0.000000	-19.364143	23.823217	-18.011626	-13.875675	-0.000000	0.000000	-0.000000	0.000000	4.806900	-0.671440	1.754900	-0.017273	0.980222	0.037598	-1.000000	-1.000000	-1.000000	-1.000000	-1.000000	-1.000000	-1.000000	146.620690	0.000000	-1.000000	-1.000000	544117.000000	1772311748.017707
-20969.550000	-27656.505000	-28059.570000	-15191.820000	0.000000	0.000000	0.000000	0.000000	-15.834193	2.313549	-11.931862	-6.645622	-0.000000	0.000000	-0.000000	0.000000	4.806900	-0.671440	1.754900	-0.017273	0.980222	0.037598	-1.000000	-1.000000	-1.000000	-1.000000	-1.000000	-1.000000	-1.000000	146.620690	0.000000	-1.000000	-1.000000	544118.000000	1772311748.017711
-20943.315000	-27637.965000	-28031.310000	-15156.630000	0.000000	0.000000	0.000000	0.000000	-5.389514	-17.068685	-1.451892	2.699207	-0.000000	0.000000	-0.000000	0.000000	4.806900	-0.671440	1.754900	-0.017273	0.980222	0.037598	-1.000000	-1.000000	-1.000000	-1.000000	-1.000000	-1.000000	-1.000000	146.620690	0.000000	-1.000000	-1.000000	544119.000000	1772311748.024308
-20915.280000	-27622.170000	-27996.930000	-15116.085000	0.000000	0.000000	0.000000	0.000000	9.398733	-25.673549	11.847471	13.984764	-0.000000	0.000000	-0.000000	0.000000	4.806900	-0.671440	1.754900	-0.017273	0.980222	0.037598	-1.000000	-1.000000	-1.000000	-1.000000	-1.000000	-1.000000	-1.000000	146.620690	0.000000	-1.000000	-1.000000	544120.000000	1772311748.024310
-20932.110000	-27630.090000	-28006.695000	-15119.730000	0.000000	0.000000	0.000000	0.000000	22.765755	-21.082996	23.903440	24.529756	-0.000000	0.000000	-0.000000	0.000000	4.806900	-0.671440	1.754900	-0.017273	0.980222	0.037598	-1.000000	-1.000000	-1.000000	-1.000000	-1.000000	-1.000000	-1.000000	146.620690	0.000000	-1.000000	-1.000000	544121.000000	1772311748.025757
-20939.760000	-27640.665000	-28007.505000	-15113.340000	0.000000	0.000000	0.000000	0.000000	26.545945	-9.690432	27.490497	27.545589	-0.000000	0.000000	-0.000000	0.000000	4.806900	-0.671440	1.754900	-0.017273	0.980222	0.037598	-1.000000	-1.000000	-1.000000	-1.000000	-1.000000	-1.000000	-1.000000	146.620690	0.000000	-1.000000	-1.000000	544122.000000	1772311748.025760
-20930.940000	-27640.170000	-27998.415000	-15105.825000	0.000000	0.000000	0.000000	0.000000	17.488593	-0.181607	18.871601	18.723450	-0.000000	0.000000	-0.000000	0.000000	6.882260	-1.251320	4.715340	-0.019470	0.981931	0.038269	-1.000000	-1.000000	-1.000000	-1.000000	-1.000000	-1.000000	-1.000000	146.620690	0.000000	-1.000000	-1.000000	544123.000000	1772311748.030020
-20913.390000	-27662.400000	-27995.670000	-15122.475000	0.000000	0.000000	0.000000	0.000000	1.698504	3.346060	2.603271	1.346096	-0.000000	0.000000	-0.000000	0.000000	6.882260	-1.251320	4.715340	-0.019470	0.981931	0.038269	-1.000000	-1.000000	-1.000000	-1.000000	-1.000000	-1.000000	-1.000000	146.620690	0.000000	-1.000000	-1.000000	544124.000000	1772311748.030023
-20883.105000	-27683.325000	-27979.695000	-15128.820000	0.000000	0.000000	0.000000	0.000000	-10.575462	1.482721	-12.447056	-16.949000	-0.000000	0.000000	-0.000000	0.000000	6.882260	-1.251320	4.715340	-0.019470	0.981931	0.038269	-1.000000	-1.000000	-1.000000	-1.000000	-1.000000	-1.000000	-1.000000	146.620690	0.000000	-1.000000	-1.000000	544125.000000	1772311748.033847
-20906.955000	-27696.555000	-28022.355000	-15185.520000	0.000000	0.000000	0.000000	0.000000	-14.038504	-2.883428	-20.555055	-29.791151	-0.000000	0.000000	-0.000000	0.000000	6.882260	-1.251320	4.715340	-0.019470	0.981931	0.038269	-1.000000	-1.000000	-1.000000	-1.000000	-1.000000	-1.000000	-1.000000	146.620690	0.000000	-1.000000	-1.000000	544126.000000	1772311748.033850
-20923.830000	-27712.080000	-28037.610000	-15182.640000	0.000000	0.000000	0.000000	0.000000	-12.065417	-5.930711	-22.352946	-34.141631	-0.000000	0.000000	-0.000000	0.000000	6.882260	-1.251320	4.715340	-0.019470	0.981931	0.038269	-1.000000	-1.000000	-1.000000	-1.000000	-1.000000	-1.000000	-1.000000	146.620690	0.000000	-1.000000	-1.000000	544127.000000	1772311748.037847
-20927.340000	-27724.095000	-28020.105000	-15137.910000	0.000000	0.000000	0.000000	0.000000	-10.594799	-5.060571	-19.952029	-27.496006	-0.000000	0.000000	-0.000000	0.000000	6.882260	-1.251320	4.715340	-0.019470	0.981931	0.038269	-1.000000	-1.000000	-1.000000	-1.000000	-1.000000	-1.000000	-1.000000	146.620690	0.000000	-1.000000	-1.000000	544128.000000	1772311748.037850
-20937.240000	-27731.115000	-28029.195000	-15155.370000	0.000000	0.000000	0.000000	0.000000	-10.615710	-0.408507	-12.616310	-8.941955	-0.000000	0.000000	-0.000000	0.000000	6.882260	-1.251320	4.715340	-0.019470	0.981931	0.038269	-1.000000	-1.000000	-1.000000	-1.000000	-1.000000	-1.000000	-1.000000	146.620690	0.000000	-1.000000	-1.000000	544129.000000	1772311748.041868
-20957.085000	-27733.230000	-28050.795000	-15182.730000	0.000000	0.000000	0.000000	0.000000	-9.583458	5.961338	-1.296018	13.684553	-0.000000	0.000000	-0.000000	0.000000	6.882260	-1.251320	4.715340	-0.019470	0.981931	0.038269	-1.000000	-1.000000	-1.000000	-1.000000	-1.000000	-1.000000	-1.000000	146.620690	0.000000	-1.000000	-1.000000	544130.000000	1772311748.041871
-20937.915000	-27722.070000	-28028.880000	-15158.835000	0.000000	0.000000	0.000000	0.000000	-5.669102	11.732241	9.369627	27.828175	-0.000000	0.000000	-0.000000	0.000000	6.882260	-1.251320	4.715340	-0.019470	0.981931	0.038269	-1.000000	-1.000000	-1.000000	-1.000000	-1.000000	-1.000000	-1.000000	146.620690	0.000000	-1.000000	-1.000000	544131.000000	1772311748.045955
-20953.125000	-27749.070000	-28047.870000	-15183.855000	0.000000	0.000000	0.000000	0.000000	1.345393	14.713229	15.878732	28.462594	-0.000000	0.000000	-0.000000	0.000000	6.882260	-1.251320	4.715340	-0.019470	0.981931	0.038269	-1.000000	-1.000000	-1.000000	-1.000000	-1.000000	-1.000000	-1.000000	146.620690	0.000000	-1.000000	-1.000000	544132.000000	1772311748.045959
-20978.190000	-27760.410000	-28065.195000	-15193.575000	0.000000	0.000000	0.000000	0.000000	8.767089	12.549410	16.769814	18.801338	-0.000000	0.000000	-0.000000	0.000000	8.408260	-1.709120	5.112100	-0.016540	0.983396	0.037414	-1.000000	-1.000000	-1.000000	-1.000000	-1.000000	-1.000000	-1.000000	146.620690	0.000000	-1.000000	-1.000000	544133.000000	1772311748.051278
-20961.270000	-27764.820000	-28044.180000	-15175.755000	0.000000	0.000000	0.000000	0.000000	12.482202	5.138751	12.233280	5.180358	-0.000000	0.000000	-0.000000	0.000000	8.408260	-1.709120	5.112100	-0.016540	0.983396	0.037414	-1.000000	-1.000000	-1.000000	-1.000000	-1.000000	-1.000000	-1.000000	146.620690	0.000000	-1.000000	-1.000000	544134.000000	1772311748.051280
-20940.480000	-27770.580000	-28016.955000	-15155.505000	0.000000	0.000000	0.000000	0.000000	12.407047	-3.604287	6.328635	-4.854415	-0.000000	0.000000	-0.000000	0.000000	8.408260	-1.709120	5.112100	-0.016540	0.983396	0.037414	-1.000000	-1.000000	-1.000000	-1.000000	-1.000000	-1.000000	-1.000000	146.620690	0.000000	-1.000000	-1.000000	544135.000000	1772311748.053995
-20935.890000	-27773.415000	-28014.840000	-15156.090000	0.000000	0.000000	0.000000	0.000000	11.631703	-9.014756	3.670097	-6.969591	-0.000000	0.000000	-0.000000	0.000000	8.408260	-1.709120	5.112100	-0.016540	0.983396	0.037414	-1.000000	-1.000000	-1.000000	-1.000000	-1.000000	-1.000000	-1.000000	146.620690	0.000000	-1.000000	-1.000000	544136.000000	1772311748.053997
-20900.340000	-27778.680000	-28007.910000	-15163.785000	0.000000	0.000000	0.000000	0.000000	11.245132	-9.321730	3.721718	-3.859617	-0.000000	0.000000	-0.000000	0.000000	8.408260	-1.709120	5.112100	-0.016540	0.983396	0.037414	-1.000000	-1.000000	-1.000000	-1.000000	-1.000000	-1.000000	-1.000000	146.620690	0.000000	-1.000000	-1.000000	544137.000000	1772311748.066710
-20924.505000	-27773.415000	-28031.940000	-15170.490000	0.000000	0.000000	0.000000	0.000000	9.569652	-5.723841	2.141406	-1.573194	-0.000000	0.000000	-0.000000	0.000000	8.408260	-1.709120	5.112100	-0.016540	0.983396	0.037414	-1.000000	-1.000000	-1.000000	-1.000000	-1.000000	-1.000000	-1.000000	146.620690	0.000000	-1.000000	-1.000000	544138.000000	1772311748.066712
-20924.505000	-27773.415000	-28031.940000	-15170.490000	0.000000	0.000000	0.000000	0.000000	3.899398	-0.610427	-3.753007	-3.037551	-0.000000	0.000000	-0.000000	0.000000	8.408260	-1.709120	5.112100	-0.016540	0.983396	0.037414	-1.000000	-1.000000	-1.000000	-1.000000	-1.000000	-1.000000	-1.000000	146.620690	0.000000	-1.000000	-1.000000	544139.000000	1772311748.070900
-20924.505000	-27773.415000	-28031.940000	-15170.490000	0.000000	0.000000	0.000000	0.000000	-5.947886	3.655711	-11.645266	-6.342115	-0.000000	0.000000	-0.000000	0.000000	8.408260	-1.709120	5.112100	-0.016540	0.983396	0.037414	-1.000000	-1.000000	-1.000000	-1.000000	-1.000000	-1.000000	-1.000000	146.620690	0.000000	-1.000000	-1.000000	544140.000000	1772311748.070903
-20924.505000	-27773.415000	-28031.940000	-15170.490000	0.000000	0.000000	0.000000	0.000000	-15.485043	5.368040	-16.141882	-7.983987	-0.000000	0.000000	-0.000000	0.000000	8.408260	-1.709120	5.112100	-0.016540	0.983396	0.037414	-1.000000	-1.000000	-1.000000	-1.000000	-1.000000	-1.000000	-1.000000	146.620690	0.000000	-1.000000	-1.000000	544141.000000	1772311748.070905
-20924.505000	-27773.415000	-28031.940000	-15170.490000	0.000000	0.000000	0.000000	0.000000	-19.499497	4.200211	-14.057114	-6.307603	-0.000000	0.000000	-0.000000	0.000000	8.408260	-1.709120	5.112100	-0.016540	0.983396	0.037414	-1.000000	-1.000000	-1.000000	-1.000000	-1.000000	-1.000000	-1.000000	146.620690	0.000000	-1.000000	-1.000000	544142.000000	1772311748.070907
-20924.505000	-27773.415000	-28031.940000	-15170.490000	0.000000	0.000000	0.000000	0.000000	-16.370167	1.221157	-6.697745	-2.201589	-0.000000	0.000000	-0.000000	0.000000	8.408260	-1.709120	5.112100	-0.016540	0.983396	0.037414	-1.000000	-1.000000	-1.000000	-1.000000	-1.000000	-1.000000	-1.000000	146.620690	0.000000	-1.000000	-1.000000	544145.000000	1772311748.076001
-20924.505000	-27773.415000	-28031.940000	-15170.490000	0.000000	0.000000	0.000000	0.000000	-8.276134	-1.948251	2.021590	2.205194	-0.000000	0.000000	-0.000000	0.000000	8.408260	-1.709120	5.112100	-0.016540	0.983396	0.037414	-1.000000	-1.000000	-1.000000	-1.000000	-1.000000	-1.000000	-1.000000	146.620690	0.000000	-1.000000	-1.000000	544146.000000	1772311748.076004
-20924.505000	-27773.415000	-28031.940000	-15170.490000	0.000000	0.000000	0.000000	0.000000	0.857585	-4.015337	8.370213	5.071493	-0.000000	0.000000	-0.000000	0.000000	8.408260	-1.709120	5.112100	-0.016540	0.983396	0.037414	-1.000000	-1.000000	-1.000000	-1.000000	-1.000000	-1.000000	-1.000000	146.620690	0.000000	-1.000000	-1.000000	544147.000000	1772311748.076005
-20953.305000	-27791.415000	-28033.785000	-15160.320000	0.000000	0.000000	0.000000	0.000000	7.112866	-4.784887	10.501110	5.841189	0.000000	0.000000	-0.000000	0.000000	15.488900	-5.249440	6.836480	-0.020386	0.977109	0.046081	-1.000000	-1.000000	-1.000000	-1.000000	-1.000000	-1.000000	-1.000000	146.620690	0.000000	-1.000000	-1.000000	544150.000000	1772311748.083989
-20967.795000	-27783.405000	-28056.150000	-15173.100000	0.000000	0.000000	0.000000	0.000000	7.812606	-4.852100	8.291655	4.937273	0.000000	0.000000	-0.000000	0.000000	15.488900	-5.249440	6.836480	-0.020386	0.977109	0.046081	-1.000000	-1.000000	-1.000000	-1.000000	-1.000000	-1.000000	-1.000000	146.620690	0.000000	-1.000000	-1.000000	544151.000000	1772311748.083992
-20944.935000	-27754.110000	-28062.315000	-15173.955000	0.000000	0.000000	0.000000	0.000000	4.253540	-3.485698	2.739800	2.593811	0.000000	0.000000	-0.000000	0.000000	15.488900	-5.249440	6.836480	-0.020386	0.977109	0.046081	-1.000000	-1.000000	-1.000000	-1.000000	-1.000000	-1.000000	-1.000000	146.620690	0.000000	-1.000000	-1.000000	544152.000000	1772311748.088045
-20952.360000	-27742.950000	-28044.315000	-15146.055000	0.000000	0.000000	0.000000	0.000000	1.555370	0.987753	-3.100933	-0.188505	0.000000	0.000000	-0.000000	0.000000	15.488900	-5.249440	6.836480	-0.020386	0.977109	0.046081	-1.000000	-1.000000	-1.000000	-1.000000	-1.000000	-1.000000	-1.000000	146.620690	0.000000	-1.000000	-1.000000	544153.000000	1772311748.088048
-20962.260000	-27740.520000	-28009.395000	-15092.190000	0.000000	0.000000	0.000000	0.000000	2.406443	7.156758	-4.378340	-0.114125	0.000000	0.000000	-0.000000	0.000000	15.488900	-5.249440	6.836480	-0.020386	0.977109	0.046081	-1.000000	-1.000000	-1.000000	-1.000000	-1.000000	-1.000000	-1.000000	146.620690	0.000000	-1.000000	-1.000000	544154.000000	1772311748.092183
-20950.335000	-27717.885000	-28003.005000	-15081.975000	0.000000	0.000000	0.000000	0.000000	4.673020	10.729609	0.991816	4.831115	0.000000	0.000000	-0.000000	0.000000	15.488900	-5.249440	6.836480	-0.020386	0.977109	0.046081	-1.000000	-1.000000	-1.000000	-1.000000	-1.000000	-1.000000	-1.000000	146.620690	0.000000	-1.000000	-1.000000	544155.000000	1772311748.092186
-20986.830000	-27712.395000	-28044.855000	-15120.450000	0.000000	0.000000	0.000000	0.000000	5.303566	9.365968	7.818732	9.680467	0.000000	0.000000	-0.000000	0.000000	21.974400	-10.758300	4.745860	-0.015381	0.974058	0.047241	-1.000000	-1.000000	-1.000000	-1.000000	-1.000000	-1.000000	-1.000000	146.620690	0.000000	-1.000000	-1.000000	544156.000000	1772311748.096161
-20990.880000	-27734.130000	-28047.915000	-15112.755000	0.000000	0.000000	0.000000	0.000000	2.514771	3.481994	7.663880	6.278826	0.000000	0.000000	-0.000000	0.000000	21.974400	-10.758300	4.745860	-0.015381	0.974058	0.047241	-1.000000	-1.000000	-1.000000	-1.000000	-1.000000	-1.000000	-1.000000	146.620690	0.000000	-1.000000	-1.000000	544157.000000	1772311748.096164
-20931.570000	-27757.395000	-27995.400000	-15099.255000	0.000000	0.000000	0.000000	0.000000	-1.547484	-5.900978	0.063209	-5.330060	0.000000	0.000000	-0.000000	0.000000	21.974400	-10.758300	4.745860	-0.015381	0.974058	0.047241	-1.000000	-1.000000	-1.000000	-1.000000	-1.000000	-1.000000	-1.000000	146.620690	0.000000	-1.000000	-1.000000	544158.000000	1772311748.100017
-20915.280000	-27771.750000	-28001.205000	-15158.115000	0.000000	0.000000	0.000000	0.000000	-0.881096	-16.185344	-6.281805	-17.168718	0.000000	0.000000	-0.000000	0.000000	21.974400	-10.758300	4.745860	-0.015381	0.974058	0.047241	-1.000000	-1.000000	-1.000000	-1.000000	-1.000000	-1.000000	-1.000000	146.620690	0.000000	-1.000000	-1.000000	544159.000000	1772311748.100020
-20952.720000	-27781.515000	-28040.490000	-15206.175000	0.000000	0.000000	0.000000	0.000000	4.887074	-22.325445	-6.802909	-24.456035	0.000000	0.000000	-0.000000	0.000000	21.974400	-10.758300	4.745860	-0.015381	0.974058	0.047241	-1.000000	-1.000000	-1.000000	-1.000000	-1.000000	-1.000000	-1.000000	146.620690	0.000000	-1.000000	-1.000000	544160.000000	1772311748.106118
-20883.960000	-27826.515000	-27955.440000	-15086.340000	0.000000	0.000000	0.000000	0.000000	8.739871	-20.719739	-4.424916	-24.279469	0.000000	0.000000	-0.000000	0.000000	21.974400	-10.758300	4.745860	-0.015381	0.974058	0.047241	-1.000000	-1.000000	-1.000000	-1.000000	-1.000000	-1.000000	-1.000000	146.620690	0.000000	-1.000000	-1.000000	544161.000000	1772311748.106122
-20868.525000	-27859.365000	-27914.130000	-15016.140000	0.000000	0.000000	0.000000	0.000000	7.790565	-13.065501	0.736390	-9.193295	0.000000	0.000000	-0.000000	0.000000	21.974400	-10.758300	4.745860	-0.015381	0.974058	0.047241	-1.000000	-1.000000	-1.000000	-1.000000	-1.000000	-1.000000	-1.000000	146.620690	0.000000	-1.000000	-1.000000	544162.000000	1772311748.107833
-21024.360000	-27832.545000	-28062.405000	-15123.645000	0.000000	0.000000	0.000000	0.000000	1.652871	-2.777233	6.701625	18.151631	0.000000	0.000000	-0.000000	0.000000	21.974400	-10.758300	4.745860	-0.015381	0.974058	0.047241	-1.000000	-1.000000	-1.000000	-1.000000	-1.000000	-1.000000	-1.000000	146.620690	0.000000	-1.000000	-1.000000	544163.000000	1772311748.107836
-21002.220000	-27802.890000	-28103.535000	-15252.480000	0.000000	0.000000	0.000000	0.000000	-13.346776	10.105858	1.953885	33.586901	0.000000	0.000000	-0.000000	0.000000	21.974400	-10.758300	4.745860	-0.015381	0.974058	0.047241	-1.000000	-1.000000	-1.000000	-1.000000	-1.000000	-1.000000	-1.000000	146.620690	0.000000	-1.000000	-1.000000	544164.000000	1772311748.117125
-20934.495000	-27812.790000	-28049.040000	-15282.630000	0.000000	0.000000	0.000000	0.000000	-29.951247	24.715723	-15.446641	17.477807	0.000000	0.000000	-0.000000	0.000000	21.974400	-10.758300	4.745860	-0.015381	0.974058	0.047241	-1.000000	-1.000000	-1.000000	-1.000000	-1.000000	-1.000000	-1.000000	146.620690	0.000000	-1.000000	-1.000000	544165.000000	1772311748.117128
-20901.105000	-27850.410000	-27999.990000	-15219.720000	0.000000	0.000000	0.000000	0.000000	-29.261546	33.514696	-26.281676	-15.963860	0.000000	0.000000	-0.000000	0.000000	22.966300	-9.537500	4.593260	-0.007996	0.975644	0.034241	-1.000000	-1.000000	-1.000000	-1.000000	-1.000000	-1.000000	-1.000000	146.620690	0.000000	-1.000000	-1.000000	544166.000000	1772311748.124655
-20902.815000	-27904.905000	-28001.520000	-15193.935000	0.000000	0.000000	0.000000	0.000000	-6.394068	27.438085	-14.666979	-32.740697	0.000000	0.000000	-0.000000	0.000000	22.966300	-9.537500	4.593260	-0.007996	0.975644	0.034241	-1.000000	-1.000000	-1.000000	-1.000000	-1.000000	-1.000000	-1.000000	146.620690	0.000000	-1.000000	-1.000000	544167.000000	1772311748.124658
-20945.025000	-27957.645000	-28039.860000	-15168.465000	0.000000	0.000000	0.000000	0.000000	20.899290	5.949473	10.735731	-16.777380	0.000000	0.000000	-0.000000	0.000000	22.966300	-9.537500	4.593260	-0.007996	0.975644	0.034241	-1.000000	-1.000000	-1.000000	-1.000000	-1.000000	-1.000000	-1.000000	146.620690	0.000000	-1.000000	-1.000000	544168.000000	1772311748.124661
-20952.090000	-28000.035000	-28041.210000	-15141.420000	0.000000	0.000000	0.000000	0.000000	31.638113	-20.536340	28.392594	17.830160	0.000000	0.000000	-0.000000	0.000000	22.966300	-9.537500	4.593260	-0.007996	0.975644	0.034241	-1.000000	-1.000000	-1.000000	-1.000000	-1.000000	-1.000000	-1.000000	146.620690	0.000000	-1.000000	-1.000000	544169.000000	1772311748.124663
-20947.725000	-28008.360000	-28053.945000	-15189.390000	0.000000	0.000000	0.000000	0.000000	21.306198	-37.181729	27.080123	44.450389	0.000000	0.000000	-0.000000	0.000000	22.966300	-9.537500	4.593260	-0.007996	0.975644	0.034241	-1.000000	-1.000000	-1.000000	-1.000000	-1.000000	-1.000000	-1.000000	146.620690	0.000000	-1.000000	-1.000000	544170.000000	1772311748.124666
-20951.190000	-28027.755000	-28051.065000	-15192.855000	0.000000	0.000000	0.000000	0.000000	1.860437	-34.327403	12.162212	44.584434	0.000000	0.000000	-0.000000	0.000000	22.966300	-9.537500	4.593260	-0.007996	0.975644	0.034241	-1.000000	-1.000000	-1.000000	-1.000000	-1.000000	-1.000000	-1.000000	146.620690	0.000000	-1.000000	-1.000000	544171.000000	1772311748.124668
-20946.240000	-28012.590000	-28038.510000	-15165.270000	0.000000	0.000000	0.000000	0.000000	-12.565677	-13.521940	-3.912146	20.066555	0.000000	0.000000	-0.000000	0.000000	22.966300	-9.537500	4.593260	-0.007996	0.975644	0.034241	-1.000000	-1.000000	-1.000000	-1.000000	-1.000000	-1.000000	-1.000000	146.620690	0.000000	-1.000000	-1.000000	544172.000000	1772311748.128025
-20948.895000	-27998.955000	-28055.745000	-15181.065000	0.000000	0.000000	0.000000	0.000000	-15.827079	14.726959	-12.196118	-10.749278	0.000000	0.000000	-0.000000	0.000000	22.966300	-9.537500	4.593260	-0.007996	0.975644	0.034241	-1.000000	-1.000000	-1.000000	-1.000000	-1.000000	-1.000000	-1.000000	146.620690	0.000000	-1.000000	-1.000000	544173.000000	1772311748.128028
-20943.045000	-28014.345000	-28067.670000	-15229.890000	0.000000	0.000000	0.000000	0.000000	-9.983249	37.247140	-12.157231	-31.818481	0.000000	0.000000	-0.000000	0.000000	22.966300	-9.537500	4.593260	-0.007996	0.975644	0.034241	-1.000000	-1.000000	-1.000000	-1.000000	-1.000000	-1.000000	-1.000000	146.620690	0.000000	-1.000000	-1.000000	544174.000000	1772311748.137401
-20946.690000	-28051.245000	-28056.555000	-15231.690000	0.000000	0.000000	0.000000	0.000000	-0.913886	43.074940	-8.107985	-39.189970	0.000000	0.000000	-0.000000	0.000000	22.966300	-9.537500	4.593260	-0.007996	0.975644	0.034241	-1.000000	-1.000000	-1.000000	-1.000000	-1.000000	-1.000000	-1.000000	146.620690	0.000000	-1.000000	-1.000000	544175.000000	1772311748.137404
-20904.390000	-28041.435000	-28002.285000	-15154.470000	0.000000	0.000000	0.000000	0.000000	6.691366	29.463033	-2.009032	-32.865569	0.000000	0.000000	-0.000000	0.000000	16.389240	-5.447820	5.066320	-0.002014	0.979978	0.012939	-1.000000	-1.000000	-1.000000	-1.000000	-1.000000	-1.000000	-1.000000	146.620690	0.000000	-1.000000	-1.000000	544176.000000	1772311748.137408
-20897.370000	-28010.430000	-27996.795000	-15144.525000	0.000000	0.000000	0.000000	0.000000	11.550600	6.037988	6.532877	-12.614692	0.000000	0.000000	-0.000000	0.000000	16.389240	-5.447820	5.066320	-0.002014	0.979978	0.012939	-1.000000	-1.000000	-1.000000	-1.000000	-1.000000	-1.000000	-1.000000	146.620690	0.000000	-1.000000	-1.000000	544177.000000	1772311748.137411
-20927.070000	-27972.720000	-28025.595000	-15203.655000	0.000000	0.000000	0.000000	0.000000	12.431059	-11.832247	13.696880	12.780840	0.000000	0.000000	-0.000000	0.000000	16.389240	-5.447820	5.066320	-0.002014	0.979978	0.012939	-1.000000	-1.000000	-1.000000	-1.000000	-1.000000	-1.000000	-1.000000	146.620690	0.000000	-1.000000	-1.000000	544178.000000	1772311748.140201
-20876.085000	-27979.965000	-27999.045000	-15216.930000	0.000000	0.000000	0.000000	0.000000	7.595230	-16.372099	12.810613	26.211052	0.000000	0.000000	-0.000000	0.000000	16.389240	-5.447820	5.066320	-0.002014	0.979978	0.012939	-1.000000	-1.000000	-1.000000	-1.000000	-1.000000	-1.000000	-1.000000	146.620690	0.000000	-1.000000	-1.000000	544179.000000	1772311748.140204
-20863.665000	-28015.830000	-27935.100000	-15152.310000	0.000000	0.000000	0.000000	0.000000	0.106205	-13.025007	4.908548	21.331767	0.000000	0.000000	-0.000000	0.000000	16.389240	-5.447820	5.066320	-0.002014	0.979978	0.012939	-1.000000	-1.000000	-1.000000	-1.000000	-1.000000	-1.000000	-1.000000	146.620690	0.000000	-1.000000	-1.000000	544180.000000	1772311748.144224
-20920.545000	-28051.470000	-27984.915000	-15172.515000	0.000000	0.000000	0.000000	0.000000	-5.894272	-12.494041	-2.582296	8.926141	0.000000	0.000000	-0.000000	0.000000	16.389240	-5.447820	5.066320	-0.002014	0.979978	0.012939	-1.000000	-1.000000	-1.000000	-1.000000	-1.000000	-1.000000	-1.000000	146.620690	0.000000	-1.000000	-1.000000	544181.000000	1772311748.144227
-20894.130000	-28077.795000	-28017.045000	-15205.635000	0.000000	0.000000	0.000000	0.000000	-11.164988	-18.625954	-8.485742	-0.737227	0.000000	0.000000	-0.000000	0.000000	16.389240	-5.447820	5.066320	-0.002014	0.979978	0.012939	-1.000000	-1.000000	-1.000000	-1.000000	-1.000000	-1.000000	-1.000000	146.620690	0.000000	-1.000000	-1.000000	544182.000000	1772311748.148302
-20800.215000	-28082.070000	-27959.265000	-15162.390000	0.000000	0.000000	0.000000	0.000000	-13.530434	-25.263420	-15.026717	-6.628316	0.000000	0.000000	-0.000000	0.000000	16.389240	-5.447820	5.066320	-0.002014	0.979978	0.012939	-1.000000	-1.000000	-1.000000	-1.000000	-1.000000	-1.000000	-1.000000	146.620690	0.000000	-1.000000	-1.000000	544183.000000	1772311748.148305
-20800.350000	-28079.460000	-27953.370000	-15187.590000	0.000000	0.000000	0.000000	0.000000	-6.518018	-23.326709	-17.396180	-8.831877	0.000000	0.000000	-0.000000	0.000000	16.389240	-5.447820	5.066320	-0.002014	0.979978	0.012939	-1.000000	-1.000000	-1.000000	-1.000000	-1.000000	-1.000000	-1.000000	146.620690	0.000000	-1.000000	-1.000000	544184.000000	1772311748.152127
-20919.510000	-28048.455000	-28025.055000	-15240.780000	0.000000	0.000000	0.000000	0.000000	4.884171	-9.120125	-12.159450	-8.292835	0.000000	0.000000	-0.000000	0.000000	16.389240	-5.447820	5.066320	-0.002014	0.979978	0.012939	-1.000000	-1.000000	-1.000000	-1.000000	-1.000000	-1.000000	-1.000000	146.620690	0.000000	-1.000000	-1.000000	544185.000000	1772311748.152131
-20915.280000	-28013.220000	-27987.030000	-15153.075000	0.000000	0.000000	0.000000	0.000000	5.146053	13.206484	-5.005318	-7.223192	0.000000	0.000000	-0.000000	0.000000	8.316700	-8.286180	11.704420	-0.020203	1.007383	0.003845	-1.000000	-1.000000	-1.000000	-1.000000	-1.000000	-1.000000	-1.000000	146.620690	0.000000	-1.000000	-1.000000	544186.000000	1772311748.156317
-20966.985000	-28031.850000	-28041.120000	-15193.170000	0.000000	0.000000	0.000000	0.000000	-8.908314	33.446410	-0.804432	-3.488384	0.000000	0.000000	-0.000000	0.000000	8.316700	-8.286180	11.704420	-0.020203	1.007383	0.003845	-1.000000	-1.000000	-1.000000	-1.000000	-1.000000	-1.000000	-1.000000	146.620690	0.000000	-1.000000	-1.000000	544187.000000	1772311748.156320
-20954.385000	-28074.330000	-28030.725000	-15180.525000	0.000000	0.000000	0.000000	0.000000	-23.298200	39.214484	1.025978	3.612185	0.000000	0.000000	-0.000000	0.000000	8.316700	-8.286180	11.704420	-0.020203	1.007383	0.003845	-1.000000	-1.000000	-1.000000	-1.000000	-1.000000	-1.000000	-1.000000	146.620690	0.000000	-1.000000	-1.000000	544188.000000	1772311748.160247
-20954.070000	-28076.130000	-28045.530000	-15155.820000	0.000000	0.000000	0.000000	0.000000	-23.592697	24.956171	2.534305	9.559910	0.000000	0.000000	-0.000000	0.000000	8.316700	-8.286180	11.704420	-0.020203	1.007383	0.003845	-1.000000	-1.000000	-1.000000	-1.000000	-1.000000	-1.000000	-1.000000	146.620690	0.000000	-1.000000	-1.000000	544189.000000	1772311748.160250
-20979.315000	-28079.415000	-28090.440000	-15159.015000	0.000000	0.000000	0.000000	0.000000	-7.545036	-0.821002	4.606133	11.586007	0.000000	0.000000	-0.000000	0.000000	8.316700	-8.286180	11.704420	-0.020203	1.007383	0.003845	-1.000000	-1.000000	-1.000000	-1.000000	-1.000000	-1.000000	-1.000000	146.620690	0.000000	-1.000000	-1.000000	544190.000000	1772311748.167160
