Channel1	Channel2	Channel3	Channel4	Channel5	Channel6	Channel7	Channel8	FilteredChannel1	FilteredChannel2	FilteredChannel3	FilteredChannel4	FilteredChannel5	FilteredChannel6	FilteredChannel7	FilteredChannel8	GyroX	GyroY	GyroZ	AccX	AccY	AccZ	PPG1	PPG2	rawPPG1	rawPPG2	rawPPG3	Hr	Hrv	Battery	Trigger	PhysicalTrigger	AutoTrigger	NumMeasurements	Timestamp
-20740.680000	-27964.350000	-27727.560000	-15032.610000	0.000000	0.000000	0.000000	0.000000	-0.179011	16.764394	-2.260144	-2.474302	0.000000	0.000000	-0.000000	0.000000	2.731540	0.289940	-0.274680	-0.009827	0.980588	0.020325	-1.000000	-1.000000	-1.000000	-1.000000	-1.000000	-1.000000	-1.000000	146.758621	0.000000	-1.000000	-1.000000	533470.000000	1772311726.662433
-20742.930000	-27986.760000	-27727.740000	-15033.240000	0.000000	0.000000	0.000000	0.000000	-2.401212	2.630627	-3.342754	-3.970828	0.000000	0.000000	-0.000000	0.000000	2.731540	0.289940	-0.274680	-0.009827	0.980588	0.020325	-1.000000	-1.000000	-1.000000	-1.000000	-1.000000	-1.000000	-1.000000	146.758621	0.000000	-1.000000	-1.000000	533471.000000	1772311726.662437
-20738.115000	-28026.450000	-27719.775000	-15023.835000	0.000000	0.000000	0.000000	0.000000	-3.050197	-12.471359	-2.411681	-3.136802	0.000000	0.000000	-0.000000	0.000000	2.731540	0.289940	-0.274680	-0.009827	0.980588	0.020325	-1.000000	-1.000000	-1.000000	-1.000000	-1.000000	-1.000000	-1.000000	146.758621	0.000000	-1.000000	-1.000000	533472.000000	1772311726.662903
-20732.670000	-28029.375000	-27714.510000	-15017.220000	0.000000	0.000000	0.000000	0.000000	-1.640146	-22.982396	0.353655	0.032662	0.000000	0.000000	-0.000000	0.000000	2.731540	0.289940	-0.274680	-0.009827	0.980588	0.020325	-1.000000	-1.000000	-1.000000	-1.000000	-1.000000	-1.000000	-1.000000	146.758621	0.000000	-1.000000	-1.000000	533473.000000	1772311726.662906
-20730.555000	-28042.515000	-27717.300000	-15018.525000	0.000000	0.000000	0.000000	0.000000	1.014631	-24.366244	3.347906	3.794358	0.000000	0.000000	-0.000000	0.000000	2.731540	0.289940	-0.274680	-0.009827	0.980588	0.020325	-1.000000	-1.000000	-1.000000	-1.000000	-1.000000	-1.000000	-1.000000	146.758621	0.000000	-1.000000	-1.000000	533474.000000	1772311726.666840
-20732.265000	-28069.875000	-27720.180000	-15023.205000	0.000000	0.000000	0.000000	0.000000	3.269098	-16.219587	4.511989	5.623620	0.000000	0.000000	-0.000000	0.000000	2.731540	0.289940	-0.274680	-0.009827	0.980588	0.020325	-1.000000	-1.000000	-1.000000	-1.000000	-1.000000	-1.000000	-1.000000	146.758621	0.000000	-1.000000	-1.000000	533475.000000	1772311726.666843
-20748.825000	-28024.875000	-27736.650000	-15040.080000	0.000000	0.000000	0.000000	0.000000	3.344650	-2.617543	2.660067	3.814033	0.000000	0.000000	-0.000000	0.000000	2.731540	0.289940	-0.274680	-0.009827	0.980588	0.020325	-1.000000	-1.000000	-1.000000	-1.000000	-1.000000	-1.000000	-1.000000	146.758621	0.000000	-1.000000	-1.000000	533476.000000	1772311726.671055
-20759.445000	-27973.620000	-27747.135000	-15051.555000	0.000000	0.000000	0.000000	0.000000	0.445989	12.949209	-1.689002	-1.227765	0.000000	0.000000	-0.000000	0.000000	2.731540	0.289940	-0.274680	-0.009827	0.980588	0.020325	-1.000000	-1.000000	-1.000000	-1.000000	-1.000000	-1.000000	-1.000000	146.758621	0.000000	-1.000000	-1.000000	533477.000000	1772311726.671058
-20748.015000	-27961.605000	-27734.895000	-15042.870000	0.000000	0.000000	0.000000	0.000000	-3.727303	27.439402	-5.935945	-6.529546	0.000000	0.000000	-0.000000	0.000000	2.731540	0.289940	-0.274680	-0.009827	0.980588	0.020325	-1.000000	-1.000000	-1.000000	-1.000000	-1.000000	-1.000000	-1.000000	146.758621	0.000000	-1.000000	-1.000000	533478.000000	1772311726.674929
-20743.605000	-27986.985000	-27728.145000	-15034.905000	0.000000	0.000000	0.000000	0.000000	-5.420724	33.398139	-6.409196	-7.884969	0.000000	0.000000	-0.000000	0.000000	2.731540	0.289940	-0.274680	-0.009827	0.980588	0.020325	-1.000000	-1.000000	-1.000000	-1.000000	-1.000000	-1.000000	-1.000000	146.758621	0.000000	-1.000000	-1.000000	533479.000000	1772311726.674934
-20739.645000	-27998.010000	-27722.520000	-15028.245000	0.000000	0.000000	0.000000	0.000000	-2.616466	23.282684	-1.839645	-3.498727	0.000000	0.000000	-0.000000	0.000000	3.189340	0.457800	-0.457800	-0.009949	0.980955	0.020630	-1.000000	-1.000000	-1.000000	-1.000000	-1.000000	-1.000000	-1.000000	146.758621	0.000000	-1.000000	-1.000000	533480.000000	1772311726.678907
-20737.755000	-28001.205000	-27721.125000	-15027.840000	0.000000	0.000000	0.000000	0.000000	2.703429	-0.460957	4.853230	3.917789	0.000000	0.000000	-0.000000	0.000000	3.189340	0.457800	-0.457800	-0.009949	0.980955	0.020630	-1.000000	-1.000000	-1.000000	-1.000000	-1.000000	-1.000000	-1.000000	146.758621	0.000000	-1.000000	-1.000000	533481.000000	1772311726.678910
-20758.185000	-27969.930000	-27744.750000	-15049.440000	0.000000	0.000000	0.000000	0.000000	6.404010	-24.525586	8.767277	9.056071	0.000000	0.000000	-0.000000	0.000000	3.189340	0.457800	-0.457800	-0.009949	0.980955	0.020630	-1.000000	-1.000000	-1.000000	-1.000000	-1.000000	-1.000000	-1.000000	146.758621	0.000000	-1.000000	-1.000000	533482.000000	1772311726.682837
-20764.080000	-27976.095000	-27752.265000	-15058.485000	0.000000	0.000000	0.000000	0.000000	5.395496	-35.281935	6.619479	7.949047	0.000000	0.000000	-0.000000	0.000000	3.189340	0.457800	-0.457800	-0.009949	0.980955	0.020630	-1.000000	-1.000000	-1.000000	-1.000000	-1.000000	-1.000000	-1.000000	146.758621	0.000000	-1.000000	-1.000000	533483.000000	1772311726.682840
-20747.880000	-27992.070000	-27734.355000	-15041.295000	0.000000	0.000000	0.000000	0.000000	0.711816	-29.921998	0.135467	1.802383	0.000000	0.000000	-0.000000	0.000000	3.189340	0.457800	-0.457800	-0.009949	0.980955	0.020630	-1.000000	-1.000000	-1.000000	-1.000000	-1.000000	-1.000000	-1.000000	146.758621	0.000000	-1.000000	-1.000000	533484.000000	1772311726.686906
-20747.250000	-27991.125000	-27735.345000	-15040.080000	0.000000	0.000000	0.000000	0.000000	-3.035616	-16.146561	-4.907458	-3.682834	0.000000	0.000000	-0.000000	0.000000	3.189340	0.457800	-0.457800	-0.009949	0.980955	0.020630	-1.000000	-1.000000	-1.000000	-1.000000	-1.000000	-1.000000	-1.000000	146.758621	0.000000	-1.000000	-1.000000	533485.000000	1772311726.686910
-20749.860000	-28037.340000	-27735.840000	-15039.855000	0.000000	0.000000	0.000000	0.000000	-2.991633	-3.312647	-4.966621	-4.507346	0.000000	0.000000	-0.000000	0.000000	3.189340	0.457800	-0.457800	-0.009949	0.980955	0.020630	-1.000000	-1.000000	-1.000000	-1.000000	-1.000000	-1.000000	-1.000000	146.758621	0.000000	-1.000000	-1.000000	533486.000000	1772311726.690834
-20752.065000	-28057.230000	-27737.415000	-15041.610000	0.000000	0.000000	0.000000	0.000000	-0.655639	3.052341	-1.676139	-1.804944	0.000000	0.000000	-0.000000	0.000000	3.189340	0.457800	-0.457800	-0.009949	0.980955	0.020630	-1.000000	-1.000000	-1.000000	-1.000000	-1.000000	-1.000000	-1.000000	146.758621	0.000000	-1.000000	-1.000000	533487.000000	1772311726.690838
-20754.090000	-28067.670000	-27738.180000	-15046.875000	0.000000	0.000000	0.000000	0.000000	1.127437	3.238795	1.489218	0.963877	0.000000	0.000000	-0.000000	0.000000	3.189340	0.457800	-0.457800	-0.009949	0.980955	0.020630	-1.000000	-1.000000	-1.000000	-1.000000	-1.000000	-1.000000	-1.000000	146.758621	0.000000	-1.000000	-1.000000	533488.000000	1772311726.694931
-20753.010000	-28063.125000	-27738.315000	-15048.630000	0.000000	0.000000	0.000000	0.000000	1.175762	2.596187	2.584226	1.568789	0.000000	0.000000	-0.000000	0.000000	3.189340	0.457800	-0.457800	-0.009949	0.980955	0.020630	-1.000000	-1.000000	-1.000000	-1.000000	-1.000000	-1.000000	-1.000000	146.758621	0.000000	-1.000000	-1.000000	533489.000000	1772311726.694934
-20743.290000	-28061.415000	-27725.715000	-15032.970000	0.000000	0.000000	0.000000	0.000000	0.319070	5.926589	1.959931	0.472031	0.000000	0.000000	-0.000000	0.000000	3.280900	0.534100	-0.808780	-0.009399	0.981443	0.021240	-1.000000	-1.000000	-1.000000	-1.000000	-1.000000	-1.000000	-1.000000	146.758621	0.000000	-1.000000	-1.000000	533490.000000	1772311726.699049
-20748.465000	-28043.865000	-27731.880000	-15034.140000	0.000000	0.000000	0.000000	0.000000	-0.092324	13.104618	1.049996	-0.212909	0.000000	0.000000	-0.000000	0.000000	3.280900	0.534100	-0.808780	-0.009399	0.981443	0.021240	-1.000000	-1.000000	-1.000000	-1.000000	-1.000000	-1.000000	-1.000000	146.758621	0.000000	-1.000000	-1.000000	533491.000000	1772311726.699052
-20752.965000	-28013.850000	-27739.845000	-15043.005000	0.000000	0.000000	0.000000	0.000000	-0.039720	20.500870	0.190430	0.174192	0.000000	0.000000	-0.000000	0.000000	3.280900	0.534100	-0.808780	-0.009399	0.981443	0.021240	-1.000000	-1.000000	-1.000000	-1.000000	-1.000000	-1.000000	-1.000000	146.758621	0.000000	-1.000000	-1.000000	533492.000000	1772311726.705427
-20747.070000	-28064.520000	-27732.690000	-15035.355000	0.000000	0.000000	0.000000	0.000000	-0.345152	23.051317	-1.174000	0.308506	0.000000	0.000000	-0.000000	0.000000	3.280900	0.534100	-0.808780	-0.009399	0.981443	0.021240	-1.000000	-1.000000	-1.000000	-1.000000	-1.000000	-1.000000	-1.000000	146.758621	0.000000	-1.000000	-1.000000	533493.000000	1772311726.705431
-20737.305000	-28110.510000	-27722.655000	-15027.255000	0.000000	0.000000	0.000000	0.000000	-0.706084	14.990702	-2.284908	-0.212130	0.000000	0.000000	-0.000000	0.000000	3.280900	0.534100	-0.808780	-0.009399	0.981443	0.021240	-1.000000	-1.000000	-1.000000	-1.000000	-1.000000	-1.000000	-1.000000	146.758621	0.000000	-1.000000	-1.000000	533494.000000	1772311726.707328
-20744.865000	-28097.955000	-27725.760000	-15031.665000	0.000000	0.000000	0.000000	0.000000	-0.309846	-3.565076	-1.786835	-0.471618	0.000000	0.000000	-0.000000	0.000000	3.280900	0.534100	-0.808780	-0.009399	0.981443	0.021240	-1.000000	-1.000000	-1.000000	-1.000000	-1.000000	-1.000000	-1.000000	146.758621	0.000000	-1.000000	-1.000000	533495.000000	1772311726.707331
-20752.605000	-28106.280000	-27732.060000	-15038.865000	0.000000	0.000000	0.000000	0.000000	0.157301	-21.763563	-0.267846	-0.536641	0.000000	0.000000	-0.000000	0.000000	3.280900	0.534100	-0.808780	-0.009399	0.981443	0.021240	-1.000000	-1.000000	-1.000000	-1.000000	-1.000000	-1.000000	-1.000000	146.758621	0.000000	-1.000000	-1.000000	533496.000000	1772311726.710869
-20754.945000	-28117.755000	-27737.865000	-15045.165000	0.000000	0.000000	0.000000	0.000000	-0.594567	-27.865489	0.307985	-1.379210	0.000000	0.000000	-0.000000	0.000000	3.280900	0.534100	-0.808780	-0.009399	0.981443	0.021240	-1.000000	-1.000000	-1.000000	-1.000000	-1.000000	-1.000000	-1.000000	146.758621	0.000000	-1.000000	-1.000000	533497.000000	1772311726.710872
-20737.440000	-28115.955000	-27720.405000	-15027.840000	0.000000	0.000000	0.000000	0.000000	-1.881565	-20.120160	-0.428626	-2.596066	0.000000	0.000000	-0.000000	0.000000	3.280900	0.534100	-0.808780	-0.009399	0.981443	0.021240	-1.000000	-1.000000	-1.000000	-1.000000	-1.000000	-1.000000	-1.000000	146.758621	0.000000	-1.000000	-1.000000	533498.000000	1772311726.717632
-20738.520000	-28121.805000	-27721.890000	-15027.750000	0.000000	0.000000	0.000000	0.000000	-1.550779	-4.978447	-0.702384	-2.246701	0.000000	0.000000	-0.000000	0.000000	3.280900	0.534100	-0.808780	-0.009399	0.981443	0.021240	-1.000000	-1.000000	-1.000000	-1.000000	-1.000000	-1.000000	-1.000000	146.758621	0.000000	-1.000000	-1.000000	533499.000000	1772311726.717635
-20739.105000	-28141.920000	-27725.490000	-15030.720000	0.000000	0.000000	0.000000	0.000000	0.699173	9.030611	0.359218	0.162070	0.000000	0.000000	-0.000000	0.000000	3.891300	0.640920	-0.656180	-0.010742	0.981626	0.021362	-1.000000	-1.000000	-1.000000	-1.000000	-1.000000	-1.000000	-1.000000	146.758621	0.000000	-1.000000	-1.000000	533500.000000	1772311726.719013
-20741.715000	-28154.970000	-27726.795000	-15031.395000	0.000000	0.000000	0.000000	0.000000	2.687993	15.483630	1.373385	2.563681	0.000000	0.000000	-0.000000	0.000000	3.891300	0.640920	-0.656180	-0.010742	0.981626	0.021362	-1.000000	-1.000000	-1.000000	-1.000000	-1.000000	-1.000000	-1.000000	146.758621	0.000000	-1.000000	-1.000000	533501.000000	1772311726.719015
-20735.955000	-28186.515000	-27717.345000	-15022.440000	0.000000	0.000000	0.000000	0.000000	2.701725	12.822381	1.249836	3.200664	0.000000	0.000000	-0.000000	0.000000	3.891300	0.640920	-0.656180	-0.010742	0.981626	0.021362	-1.000000	-1.000000	-1.000000	-1.000000	-1.000000	-1.000000	-1.000000	146.758621	0.000000	-1.000000	-1.000000	533502.000000	1772311726.723054
-20733.255000	-28252.215000	-27712.980000	-15019.020000	0.000000	0.000000	0.000000	0.000000	1.219979	3.353797	0.705190	2.466146	0.000000	0.000000	-0.000000	0.000000	3.891300	0.640920	-0.656180	-0.010742	0.981626	0.021362	-1.000000	-1.000000	-1.000000	-1.000000	-1.000000	-1.000000	-1.000000	146.758621	0.000000	-1.000000	-1.000000	533503.000000	1772311726.723057
-20737.980000	-28271.340000	-27715.770000	-15021.360000	0.000000	0.000000	0.000000	0.000000	-0.429666	-8.736467	0.568212	1.373445	0.000000	0.000000	-0.000000	0.000000	3.891300	0.640920	-0.656180	-0.010742	0.981626	0.021362	-1.000000	-1.000000	-1.000000	-1.000000	-1.000000	-1.000000	-1.000000	146.758621	0.000000	-1.000000	-1.000000	533504.000000	1772311726.727139
-20734.245000	-28293.930000	-27713.340000	-15018.750000	0.000000	0.000000	0.000000	0.000000	-1.623648	-16.924390	0.456862	0.127726	0.000000	0.000000	-0.000000	0.000000	3.891300	0.640920	-0.656180	-0.010742	0.981626	0.021362	-1.000000	-1.000000	-1.000000	-1.000000	-1.000000	-1.000000	-1.000000	146.758621	0.000000	-1.000000	-1.000000	533505.000000	1772311726.727142
-20734.425000	-28300.230000	-27715.455000	-15020.550000	0.000000	0.000000	0.000000	0.000000	-2.168088	-15.154999	-0.224968	-1.276128	0.000000	0.000000	-0.000000	0.000000	3.891300	0.640920	-0.656180	-0.010742	0.981626	0.021362	-1.000000	-1.000000	-1.000000	-1.000000	-1.000000	-1.000000	-1.000000	146.758621	0.000000	-1.000000	-1.000000	533506.000000	1772311726.731025
-20735.415000	-28305.945000	-27715.005000	-15020.055000	0.000000	0.000000	0.000000	0.000000	-1.945218	-3.230269	-1.326553	-2.465788	0.000000	0.000000	-0.000000	0.000000	3.891300	0.640920	-0.656180	-0.010742	0.981626	0.021362	-1.000000	-1.000000	-1.000000	-1.000000	-1.000000	-1.000000	-1.000000	146.758621	0.000000	-1.000000	-1.000000	533507.000000	1772311726.731028
-20736.945000	-28313.415000	-27717.165000	-15020.505000	0.000000	0.000000	0.000000	0.000000	-1.238938	12.695157	-2.248586	-2.978664	0.000000	0.000000	-0.000000	0.000000	3.891300	0.640920	-0.656180	-0.010742	0.981626	0.021362	-1.000000	-1.000000	-1.000000	-1.000000	-1.000000	-1.000000	-1.000000	146.758621	0.000000	-1.000000	-1.000000	533508.000000	1772311726.735090
-20730.465000	-28329.660000	-27710.865000	-15014.205000	0.000000	0.000000	0.000000	0.000000	-0.384371	24.177781	-2.364839	-2.469104	0.000000	0.000000	-0.000000	0.000000	3.891300	0.640920	-0.656180	-0.010742	0.981626	0.021362	-1.000000	-1.000000	-1.000000	-1.000000	-1.000000	-1.000000	-1.000000	146.758621	0.000000	-1.000000	-1.000000	533509.000000	1772311726.735093
-20713.680000	-28350.990000	-27694.395000	-15000.120000	0.000000	0.000000	0.000000	0.000000	0.924252	25.304160	-1.036794	-0.664538	0.000000	0.000000	-0.000000	0.000000	4.150720	0.015260	-0.442540	-0.011230	0.980588	0.020508	-1.000000	-1.000000	-1.000000	-1.000000	-1.000000	-1.000000	-1.000000	146.758621	0.000000	-1.000000	-1.000000	533510.000000	1772311726.739000
-20717.190000	-28333.440000	-27697.365000	-15005.430000	0.000000	0.000000	0.000000	0.000000	2.902959	16.461359	1.711472	2.046126	0.000000	0.000000	-0.000000	0.000000	4.150720	0.015260	-0.442540	-0.011230	0.980588	0.020508	-1.000000	-1.000000	-1.000000	-1.000000	-1.000000	-1.000000	-1.000000	146.758621	0.000000	-1.000000	-1.000000	533511.000000	1772311726.739002
-20739.825000	-28333.170000	-27720.315000	-15030.540000	0.000000	0.000000	0.000000	0.000000	3.848463	4.159486	3.713103	3.463380	0.000000	0.000000	-0.000000	0.000000	4.150720	0.015260	-0.442540	-0.011230	0.980588	0.020508	-1.000000	-1.000000	-1.000000	-1.000000	-1.000000	-1.000000	-1.000000	146.758621	0.000000	-1.000000	-1.000000	533512.000000	1772311726.743132
-20754.585000	-28355.940000	-27732.600000	-15039.900000	0.000000	0.000000	0.000000	0.000000	1.156819	-5.335742	1.951141	1.076304	0.000000	0.000000	-0.000000	0.000000	4.150720	0.015260	-0.442540	-0.011230	0.980588	0.020508	-1.000000	-1.000000	-1.000000	-1.000000	-1.000000	-1.000000	-1.000000	146.758621	0.000000	-1.000000	-1.000000	533513.000000	1772311726.743135
-20742.255000	-28362.870000	-27720.180000	-15028.875000	0.000000	0.000000	0.000000	0.000000	-4.358043	-10.968108	-2.977088	-3.847282	0.000000	0.000000	-0.000000	0.000000	4.150720	0.015260	-0.442540	-0.011230	0.980588	0.020508	-1.000000	-1.000000	-1.000000	-1.000000	-1.000000	-1.000000	-1.000000	146.758621	0.000000	-1.000000	-1.000000	533514.000000	1772311726.746979
-20734.200000	-28335.420000	-27712.170000	-15023.205000	0.000000	0.000000	0.000000	0.000000	-7.700875	-13.266723	-6.192577	-6.367704	0.000000	0.000000	-0.000000	0.000000	4.150720	0.015260	-0.442540	-0.011230	0.980588	0.020508	-1.000000	-1.000000	-1.000000	-1.000000	-1.000000	-1.000000	-1.000000	146.758621	0.000000	-1.000000	-1.000000	533515.000000	1772311726.746982
-20753.325000	-28300.770000	-27733.950000	-15041.430000	0.000000	0.000000	0.000000	0.000000	-5.571189	-10.431671	-4.508459	-3.847633	0.000000	0.000000	-0.000000	0.000000	4.150720	0.015260	-0.442540	-0.011230	0.980588	0.020508	-1.000000	-1.000000	-1.000000	-1.000000	-1.000000	-1.000000	-1.000000	146.758621	0.000000	-1.000000	-1.000000	533516.000000	1772311726.752560
-20747.655000	-28329.930000	-27728.955000	-15034.995000	0.000000	0.000000	0.000000	0.000000	-0.258543	-2.695050	-0.156754	1.129958	0.000000	0.000000	-0.000000	0.000000	4.150720	0.015260	-0.442540	-0.011230	0.980588	0.020508	-1.000000	-1.000000	-1.000000	-1.000000	-1.000000	-1.000000	-1.000000	146.758621	0.000000	-1.000000	-1.000000	533517.000000	1772311726.752564
-20742.795000	-28345.905000	-27721.440000	-15028.065000	0.000000	0.000000	0.000000	0.000000	4.372518	3.513909	3.471367	5.093373	0.000000	0.000000	-0.000000	0.000000	4.150720	0.015260	-0.442540	-0.011230	0.980588	0.020508	-1.000000	-1.000000	-1.000000	-1.000000	-1.000000	-1.000000	-1.000000	146.758621	0.000000	-1.000000	-1.000000	533518.000000	1772311726.755099
-20744.235000	-28379.565000	-27720.405000	-15027.840000	0.000000	0.000000	0.000000	0.000000	6.799245	1.624003	5.572698	7.016176	0.000000	0.000000	-0.000000	0.000000	4.150720	0.015260	-0.442540	-0.011230	0.980588	0.020508	-1.000000	-1.000000	-1.000000	-1.000000	-1.000000	-1.000000	-1.000000	146.758621	0.000000	-1.000000	-1.000000	533519.000000	1772311726.755102
-20752.380000	-28391.805000	-27728.955000	-15036.885000	0.000000	0.000000	0.000000	0.000000	6.699845	-7.363645	6.075378	6.695582	0.000000	0.000000	-0.000000	0.000000	4.761120	0.503580	-0.747740	-0.011475	0.981382	0.020325	-1.000000	-1.000000	-1.000000	-1.000000	-1.000000	-1.000000	-1.000000	146.758621	0.000000	-1.000000	-1.000000	533520.000000	1772311726.759143
-20748.690000	-28376.505000	-27723.510000	-15032.520000	0.000000	0.000000	0.000000	0.000000	4.135949	-15.464315	4.495045	3.945606	0.000000	0.000000	-0.000000	0.000000	4.761120	0.503580	-0.747740	-0.011475	0.981382	0.020325	-1.000000	-1.000000	-1.000000	-1.000000	-1.000000	-1.000000	-1.000000	146.758621	0.000000	-1.000000	-1.000000	533521.000000	1772311726.759147
-20742.255000	-28352.385000	-27716.445000	-15023.430000	0.000000	0.000000	0.000000	0.000000	0.573539	-14.156247	1.569499	0.090423	0.000000	0.000000	-0.000000	0.000000	4.761120	0.503580	-0.747740	-0.011475	0.981382	0.020325	-1.000000	-1.000000	-1.000000	-1.000000	-1.000000	-1.000000	-1.000000	146.758621	0.000000	-1.000000	-1.000000	533522.000000	1772311726.764413
-20744.595000	-28367.370000	-27720.585000	-15027.120000	0.000000	0.000000	0.000000	0.000000	-1.884880	-2.232522	-0.947920	-2.607591	0.000000	0.000000	-0.000000	0.000000	4.761120	0.503580	-0.747740	-0.011475	0.981382	0.020325	-1.000000	-1.000000	-1.000000	-1.000000	-1.000000	-1.000000	-1.000000	146.758621	0.000000	-1.000000	-1.000000	533523.000000	1772311726.764416
-20739.780000	-28418.310000	-27718.245000	-15026.715000	0.000000	0.000000	0.000000	0.000000	-2.510529	11.253358	-2.325065	-3.411356	0.000000	0.000000	-0.000000	0.000000	4.761120	0.503580	-0.747740	-0.011475	0.981382	0.020325	-1.000000	-1.000000	-1.000000	-1.000000	-1.000000	-1.000000	-1.000000	146.758621	0.000000	-1.000000	-1.000000	533524.000000	1772311726.767187
-20740.545000	-28437.570000	-27720.135000	-15026.445000	0.000000	0.000000	0.000000	0.000000	-1.988916	15.000904	-2.924617	-3.181121	0.000000	0.000000	-0.000000	0.000000	4.761120	0.503580	-0.747740	-0.011475	0.981382	0.020325	-1.000000	-1.000000	-1.000000	-1.000000	-1.000000	-1.000000	-1.000000	146.758621	0.000000	-1.000000	-1.000000	533525.000000	1772311726.767190
-20737.215000	-28460.655000	-27714.690000	-15021.765000	0.000000	0.000000	0.000000	0.000000	-1.225802	7.096291	-2.978826	-2.588188	0.000000	0.000000	-0.000000	0.000000	4.761120	0.503580	-0.747740	-0.011475	0.981382	0.020325	-1.000000	-1.000000	-1.000000	-1.000000	-1.000000	-1.000000	-1.000000	146.758621	0.000000	-1.000000	-1.000000	533526.000000	1772311726.772259
-20739.690000	-28486.215000	-27715.365000	-15018.570000	0.000000	0.000000	0.000000	0.000000	-0.795994	-4.581529	-2.387278	-1.621925	0.000000	0.000000	-0.000000	0.000000	4.761120	0.503580	-0.747740	-0.011475	0.981382	0.020325	-1.000000	-1.000000	-1.000000	-1.000000	-1.000000	-1.000000	-1.000000	146.758621	0.000000	-1.000000	-1.000000	533527.000000	1772311726.772261
-20745.990000	-28523.565000	-27722.655000	-15028.695000	0.000000	0.000000	0.000000	0.000000	-1.000610	-11.812255	-1.430877	-0.524437	-0.000000	0.000000	-0.000000	0.000000	4.761120	0.503580	-0.747740	-0.011475	0.981382	0.020325	-1.000000	-1.000000	-1.000000	-1.000000	-1.000000	-1.000000	-1.000000	146.758621	0.000000	-1.000000	-1.000000	533528.000000	1772311726.775222
-20756.160000	-28542.555000	-27732.600000	-15038.775000	0.000000	0.000000	0.000000	0.000000	-1.989445	-11.770153	-1.041316	-0.328295	-0.000000	0.000000	-0.000000	0.000000	4.761120	0.503580	-0.747740	-0.011475	0.981382	0.020325	-1.000000	-1.000000	-1.000000	-1.000000	-1.000000	-1.000000	-1.000000	146.758621	0.000000	-1.000000	-1.000000	533529.000000	1772311726.775225
-20739.240000	-28540.440000	-27715.860000	-15024.015000	0.000000	0.000000	0.000000	0.000000	-3.023526	-5.331112	-1.338524	-1.243738	-0.000000	0.000000	-0.000000	0.000000	4.608520	0.488320	-0.549360	-0.010742	0.981443	0.017883	-1.000000	-1.000000	-1.000000	-1.000000	-1.000000	-1.000000	-1.000000	146.758621	0.000000	-1.000000	-1.000000	533530.000000	1772311726.779230
-20722.005000	-28497.735000	-27697.950000	-15007.590000	0.000000	0.000000	0.000000	0.000000	-2.013742	6.158321	-0.482541	-1.210593	-0.000000	0.000000	-0.000000	0.000000	4.608520	0.488320	-0.549360	-0.010742	0.981443	0.017883	-1.000000	-1.000000	-1.000000	-1.000000	-1.000000	-1.000000	-1.000000	146.758621	0.000000	-1.000000	-1.000000	533531.000000	1772311726.779233
-20739.825000	-28454.805000	-27718.605000	-15027.165000	0.000000	0.000000	0.000000	0.000000	1.660760	20.865104	2.421104	1.122614	-0.000000	0.000000	-0.000000	0.000000	4.608520	0.488320	-0.549360	-0.010742	0.981443	0.017883	-1.000000	-1.000000	-1.000000	-1.000000	-1.000000	-1.000000	-1.000000	146.758621	0.000000	-1.000000	-1.000000	533532.000000	1772311726.783172
-20744.910000	-28443.330000	-27725.130000	-15032.475000	0.000000	0.000000	0.000000	0.000000	4.747673	33.566002	4.492218	3.307103	-0.000000	0.000000	-0.000000	0.000000	4.608520	0.488320	-0.549360	-0.010742	0.981443	0.017883	-1.000000	-1.000000	-1.000000	-1.000000	-1.000000	-1.000000	-1.000000	146.758621	0.000000	-1.000000	-1.000000	533533.000000	1772311726.783175
-20729.475000	-28467.360000	-27706.545000	-15010.020000	0.000000	0.000000	0.000000	0.000000	4.260060	35.301583	3.183626	2.913840	-0.000000	0.000000	-0.000000	0.000000	4.608520	0.488320	-0.549360	-0.010742	0.981443	0.017883	-1.000000	-1.000000	-1.000000	-1.000000	-1.000000	-1.000000	-1.000000	146.758621	0.000000	-1.000000	-1.000000	533534.000000	1772311726.787121
-20750.895000	-28480.095000	-27730.620000	-15031.440000	0.000000	0.000000	0.000000	0.000000	1.204874	20.056596	-0.030135	1.074140	-0.000000	0.000000	-0.000000	0.000000	4.608520	0.488320	-0.549360	-0.010742	0.981443	0.017883	-1.000000	-1.000000	-1.000000	-1.000000	-1.000000	-1.000000	-1.000000	146.758621	0.000000	-1.000000	-1.000000	533535.000000	1772311726.787124
-20753.640000	-28479.690000	-27733.905000	-15037.245000	0.000000	0.000000	0.000000	0.000000	-2.329235	-7.279945	-3.076758	-0.902660	-0.000000	0.000000	-0.000000	0.000000	4.608520	0.488320	-0.549360	-0.010742	0.981443	0.017883	-1.000000	-1.000000	-1.000000	-1.000000	-1.000000	-1.000000	-1.000000	146.758621	0.000000	-1.000000	-1.000000	533536.000000	1772311726.791213
-20750.625000	-28470.420000	-27729.090000	-15034.365000	0.000000	0.000000	0.000000	0.000000	-4.950309	-32.441231	-5.011142	-2.929504	-0.000000	0.000000	-0.000000	0.000000	4.608520	0.488320	-0.549360	-0.010742	0.981443	0.017883	-1.000000	-1.000000	-1.000000	-1.000000	-1.000000	-1.000000	-1.000000	146.758621	0.000000	-1.000000	-1.000000	533537.000000	1772311726.791216
-20751.165000	-28445.535000	-27729.495000	-15035.220000	0.000000	0.000000	0.000000	0.000000	-5.096481	-42.168594	-4.553231	-3.899816	-0.000000	0.000000	-0.000000	0.000000	4.608520	0.488320	-0.549360	-0.010742	0.981443	0.017883	-1.000000	-1.000000	-1.000000	-1.000000	-1.000000	-1.000000	-1.000000	146.758621	0.000000	-1.000000	-1.000000	533538.000000	1772311726.795200
-20747.565000	-28432.755000	-27726.615000	-15032.385000	0.000000	0.000000	0.000000	0.000000	-2.309760	-32.950274	-1.377153	-2.620931	-0.000000	0.000000	-0.000000	0.000000	4.608520	0.488320	-0.549360	-0.010742	0.981443	0.017883	-1.000000	-1.000000	-1.000000	-1.000000	-1.000000	-1.000000	-1.000000	146.758621	0.000000	-1.000000	-1.000000	533539.000000	1772311726.795204
-20742.930000	-28454.670000	-27721.710000	-15027.795000	0.000000	0.000000	0.000000	0.000000	1.963919	-12.668402	2.904797	0.468066	-0.000000	0.000000	-0.000000	0.000000	3.479280	0.427280	-0.625660	-0.011108	0.983152	0.015015	-1.000000	-1.000000	-1.000000	-1.000000	-1.000000	-1.000000	-1.000000	146.758621	0.000000	-1.000000	-1.000000	533540.000000	1772311726.800045
-20745.720000	-28451.295000	-27725.670000	-15029.730000	0.000000	0.000000	0.000000	0.000000	5.502380	5.547490	6.047920	3.717962	-0.000000	0.000000	-0.000000	0.000000	3.479280	0.427280	-0.625660	-0.011108	0.983152	0.015015	-1.000000	-1.000000	-1.000000	-1.000000	-1.000000	-1.000000	-1.000000	146.758621	0.000000	-1.000000	-1.000000	533541.000000	1772311726.800048
-20743.245000	-28454.535000	-27723.330000	-15027.075000	0.000000	0.000000	0.000000	0.000000	6.514101	13.586384	6.451894	5.340383	-0.000000	0.000000	-0.000000	0.000000	3.479280	0.427280	-0.625660	-0.011108	0.983152	0.015015	-1.000000	-1.000000	-1.000000	-1.000000	-1.000000	-1.000000	-1.000000	146.758621	0.000000	-1.000000	-1.000000	533542.000000	1772311726.803063
-20739.780000	-28480.770000	-27717.840000	-15022.395000	0.000000	0.000000	0.000000	0.000000	4.745507	11.817385	4.190782	4.648326	-0.000000	0.000000	-0.000000	0.000000	3.479280	0.427280	-0.625660	-0.011108	0.983152	0.015015	-1.000000	-1.000000	-1.000000	-1.000000	-1.000000	-1.000000	-1.000000	146.758621	0.000000	-1.000000	-1.000000	533543.000000	1772311726.803066
-20740.050000	-28512.720000	-27715.680000	-15018.930000	0.000000	0.000000	0.000000	0.000000	1.521687	4.209307	0.938596	2.462882	-0.000000	0.000000	-0.000000	0.000000	3.479280	0.427280	-0.625660	-0.011108	0.983152	0.015015	-1.000000	-1.000000	-1.000000	-1.000000	-1.000000	-1.000000	-1.000000	146.758621	0.000000	-1.000000	-1.000000	533544.000000	1772311726.807258
-20731.770000	-28521.045000	-27708.120000	-15013.890000	0.000000	0.000000	0.000000	0.000000	-1.453519	-4.658708	-1.567153	0.109692	-0.000000	0.000000	-0.000000	0.000000	3.479280	0.427280	-0.625660	-0.011108	0.983152	0.015015	-1.000000	-1.000000	-1.000000	-1.000000	-1.000000	-1.000000	-1.000000	146.758621	0.000000	-1.000000	-1.000000	533545.000000	1772311726.807261
-20737.440000	-28546.020000	-27713.205000	-15019.830000	0.000000	0.000000	0.000000	0.000000	-3.134717	-9.831211	-2.724900	-1.720220	-0.000000	0.000000	-0.000000	0.000000	3.479280	0.427280	-0.625660	-0.011108	0.983152	0.015015	-1.000000	-1.000000	-1.000000	-1.000000	-1.000000	-1.000000	-1.000000	146.758621	0.000000	-1.000000	-1.000000	533546.000000	1772311726.812267
-20755.395000	-28538.820000	-27732.015000	-15037.965000	0.000000	0.000000	0.000000	0.000000	-3.944269	-8.185605	-3.444283	-3.480455	-0.000000	0.000000	-0.000000	0.000000	3.479280	0.427280	-0.625660	-0.011108	0.983152	0.015015	-1.000000	-1.000000	-1.000000	-1.000000	-1.000000	-1.000000	-1.000000	146.758621	0.000000	-1.000000	-1.000000	533547.000000	1772311726.812270
-20751.795000	-28534.095000	-27728.280000	-15033.240000	0.000000	0.000000	0.000000	0.000000	-4.944522	-0.002213	-4.861269	-5.639831	-0.000000	0.000000	-0.000000	0.000000	3.479280	0.427280	-0.625660	-0.011108	0.983152	0.015015	-1.000000	-1.000000	-1.000000	-1.000000	-1.000000	-1.000000	-1.000000	146.758621	0.000000	-1.000000	-1.000000	533548.000000	1772311726.815270
-20752.155000	-28526.355000	-27729.720000	-15035.355000	0.000000	0.000000	0.000000	0.000000	-5.525884	11.343811	-6.065504	-6.886926	-0.000000	0.000000	-0.000000	0.000000	3.479280	0.427280	-0.625660	-0.011108	0.983152	0.015015	-1.000000	-1.000000	-1.000000	-1.000000	-1.000000	-1.000000	-1.000000	146.758621	0.000000	-1.000000	-1.000000	533549.000000	1772311726.815273
-20748.195000	-28530.315000	-27726.615000	-15033.060000	0.000000	0.000000	0.000000	0.000000	-3.960061	20.299073	-4.964106	-5.326731	-0.000000	0.000000	-0.000000	0.000000	2.945180	-0.015260	-0.900340	-0.010742	0.983213	0.015259	-1.000000	-1.000000	-1.000000	-1.000000	-1.000000	-1.000000	-1.000000	146.758621	0.000000	-1.000000	-1.000000	533550.000000	1772311726.820065
-20741.265000	-28551.960000	-27716.940000	-15022.890000	0.000000	0.000000	0.000000	0.000000	0.044123	21.515016	-0.998554	-0.879359	-0.000000	0.000000	-0.000000	0.000000	2.945180	-0.015260	-0.900340	-0.010742	0.983213	0.015259	-1.000000	-1.000000	-1.000000	-1.000000	-1.000000	-1.000000	-1.000000	146.758621	0.000000	-1.000000	-1.000000	533551.000000	1772311726.820068
-20748.555000	-28540.395000	-27724.860000	-15030.540000	0.000000	0.000000	0.000000	0.000000	4.669822	13.573588	4.132657	4.500747	-0.000000	0.000000	-0.000000	0.000000	2.945180	-0.015260	-0.900340	-0.010742	0.983213	0.015259	-1.000000	-1.000000	-1.000000	-1.000000	-1.000000	-1.000000	-1.000000	146.758621	0.000000	-1.000000	-1.000000	533552.000000	1772311726.823298
-20749.815000	-28527.030000	-27727.380000	-15037.380000	0.000000	0.000000	0.000000	0.000000	7.164652	1.300588	7.417520	7.750321	-0.000000	0.000000	-0.000000	0.000000	2.945180	-0.015260	-0.900340	-0.010742	0.983213	0.015259	-1.000000	-1.000000	-1.000000	-1.000000	-1.000000	-1.000000	-1.000000	146.758621	0.000000	-1.000000	-1.000000	533553.000000	1772311726.823301
-20751.795000	-28516.725000	-27726.840000	-15038.955000	0.000000	0.000000	0.000000	0.000000	6.068379	-7.856753	6.900303	6.837680	-0.000000	0.000000	-0.000000	0.000000	2.945180	-0.015260	-0.900340	-0.010742	0.983213	0.015259	-1.000000	-1.000000	-1.000000	-1.000000	-1.000000	-1.000000	-1.000000	146.758621	0.000000	-1.000000	-1.000000	533554.000000	1772311726.827428
-20757.195000	-28497.285000	-27730.935000	-15038.505000	0.000000	0.000000	0.000000	0.000000	2.365853	-10.155154	3.398915	2.809669	-0.000000	0.000000	-0.000000	0.000000	2.945180	-0.015260	-0.900340	-0.010742	0.983213	0.015259	-1.000000	-1.000000	-1.000000	-1.000000	-1.000000	-1.000000	-1.000000	146.758621	0.000000	-1.000000	-1.000000	533555.000000	1772311726.827432
-20754.360000	-28484.325000	-27728.145000	-15034.905000	0.000000	0.000000	0.000000	0.000000	-1.668371	-6.944787	-0.685686	-1.265590	-0.000000	0.000000	-0.000000	0.000000	2.945180	-0.015260	-0.900340	-0.010742	0.983213	0.015259	-1.000000	-1.000000	-1.000000	-1.000000	-1.000000	-1.000000	-1.000000	146.758621	0.000000	-1.000000	-1.000000	533556.000000	1772311726.831346
-20745.405000	-28468.215000	-27720.045000	-15028.560000	0.000000	0.000000	0.000000	0.000000	-3.800805	-2.050537	-3.116245	-2.944688	-0.000000	0.000000	-0.000000	0.000000	2.945180	-0.015260	-0.900340	-0.010742	0.983213	0.015259	-1.000000	-1.000000	-1.000000	-1.000000	-1.000000	-1.000000	-1.000000	146.758621	0.000000	-1.000000	-1.000000	533557.000000	1772311726.831349
-20748.960000	-28477.035000	-27723.465000	-15030.270000	0.000000	0.000000	0.000000	0.000000	-3.042194	0.683702	-2.945968	-1.940652	-0.000000	0.000000	-0.000000	0.000000	2.945180	-0.015260	-0.900340	-0.010742	0.983213	0.015259	-1.000000	-1.000000	-1.000000	-1.000000	-1.000000	-1.000000	-1.000000	146.758621	0.000000	-1.000000	-1.000000	533558.000000	1772311726.835316
-20747.115000	-28496.700000	-27724.005000	-15032.655000	0.000000	0.000000	0.000000	0.000000	-0.595823	-1.296987	-1.229718	0.013900	-0.000000	0.000000	-0.000000	0.000000	2.945180	-0.015260	-0.900340	-0.010742	0.983213	0.015259	-1.000000	-1.000000	-1.000000	-1.000000	-1.000000	-1.000000	-1.000000	146.758621	0.000000	-1.000000	-1.000000	533559.000000	1772311726.835319
-20739.195000	-28485.855000	-27718.020000	-15029.145000	0.000000	0.000000	0.000000	0.000000	1.519121	-7.393323	0.252262	0.972349	-0.000000	0.000000	-0.000000	0.000000	3.158820	0.183120	-1.144500	-0.010315	0.982419	0.015076	-1.000000	-1.000000	-1.000000	-1.000000	-1.000000	-1.000000	-1.000000	146.758621	0.000000	-1.000000	-1.000000	533560.000000	1772311726.840220
-20736.090000	-28466.370000	-27709.830000	-15020.055000	0.000000	0.000000	0.000000	0.000000	2.461461	-12.490905	0.979345	0.692098	-0.000000	0.000000	-0.000000	0.000000	3.158820	0.183120	-1.144500	-0.010315	0.982419	0.015076	-1.000000	-1.000000	-1.000000	-1.000000	-1.000000	-1.000000	-1.000000	146.758621	0.000000	-1.000000	-1.000000	533561.000000	1772311726.840223
-20742.750000	-28487.115000	-27716.220000	-15022.215000	0.000000	0.000000	0.000000	0.000000	2.148475	-11.539051	1.249026	0.184986	-0.000000	0.000000	-0.000000	0.000000	3.158820	0.183120	-1.144500	-0.010315	0.982419	0.015076	-1.000000	-1.000000	-1.000000	-1.000000	-1.000000	-1.000000	-1.000000	146.758621	0.000000	-1.000000	-1.000000	533562.000000	1772311726.843455
-20751.255000	-28518.030000	-27725.535000	-15032.880000	0.000000	0.000000	0.000000	0.000000	0.292136	-6.057742	0.613101	-0.353788	-0.000000	0.000000	-0.000000	0.000000	3.158820	0.183120	-1.144500	-0.010315	0.982419	0.015076	-1.000000	-1.000000	-1.000000	-1.000000	-1.000000	-1.000000	-1.000000	146.758621	0.000000	-1.000000	-1.000000	533563.000000	1772311726.843458
-20761.830000	-28493.325000	-27735.885000	-15044.175000	0.000000	0.000000	0.000000	0.000000	-2.942052	-0.998366	-1.600292	-1.815569	-0.000000	0.000000	-0.000000	0.000000	3.158820	0.183120	-1.144500	-0.010315	0.982419	0.015076	-1.000000	-1.000000	-1.000000	-1.000000	-1.000000	-1.000000	-1.000000	146.758621	0.000000	-1.000000	-1.000000	533564.000000	1772311726.847376
-20752.920000	-28443.150000	-27727.470000	-15037.875000	0.000000	0.000000	0.000000	0.000000	-5.900193	3.734068	-4.389419	-4.038626	-0.000000	0.000000	-0.000000	0.000000	3.158820	0.183120	-1.144500	-0.010315	0.982419	0.015076	-1.000000	-1.000000	-1.000000	-1.000000	-1.000000	-1.000000	-1.000000	146.758621	0.000000	-1.000000	-1.000000	533565.000000	1772311726.847378
-20752.560000	-28409.895000	-27730.530000	-15042.780000	0.000000	0.000000	0.000000	0.000000	-6.077073	11.759828	-5.256081	-5.033648	-0.000000	0.000000	-0.000000	0.000000	3.158820	0.183120	-1.144500	-0.010315	0.982419	0.015076	-1.000000	-1.000000	-1.000000	-1.000000	-1.000000	-1.000000	-1.000000	146.758621	0.000000	-1.000000	-1.000000	533566.000000	1772311726.851365
-20755.440000	-28383.480000	-27738.000000	-15049.665000	0.000000	0.000000	0.000000	0.000000	-2.717712	21.620858	-3.117649	-3.491197	-0.000000	0.000000	-0.000000	0.000000	3.158820	0.183120	-1.144500	-0.010315	0.982419	0.015076	-1.000000	-1.000000	-1.000000	-1.000000	-1.000000	-1.000000	-1.000000	146.758621	0.000000	-1.000000	-1.000000	533567.000000	1772311726.851367
-20760.975000	-28372.365000	-27740.205000	-15046.245000	0.000000	0.000000	0.000000	0.000000	1.947335	26.060721	0.376129	-0.312749	-0.000000	0.000000	-0.000000	0.000000	3.158820	0.183120	-1.144500	-0.010315	0.982419	0.015076	-1.000000	-1.000000	-1.000000	-1.000000	-1.000000	-1.000000	-1.000000	146.758621	0.000000	-1.000000	-1.000000	533568.000000	1772311726.856862
-20767.275000	-28368.495000	-27746.595000	-15047.955000	0.000000	0.000000	0.000000	0.000000	4.861215	19.291827	3.000407	2.949518	-0.000000	0.000000	-0.000000	0.000000	3.158820	0.183120	-1.144500	-0.010315	0.982419	0.015076	-1.000000	-1.000000	-1.000000	-1.000000	-1.000000	-1.000000	-1.000000	146.758621	0.000000	-1.000000	-1.000000	533569.000000	1772311726.856865
-20762.640000	-28384.470000	-27738.270000	-15041.790000	0.000000	0.000000	0.000000	0.000000	4.872738	2.109341	4.016905	5.311222	-0.000000	0.000000	-0.000000	0.000000	3.723440	0.366240	-0.869820	-0.011169	0.982419	0.015991	-1.000000	-1.000000	-1.000000	-1.000000	-1.000000	-1.000000	-1.000000	146.758621	0.000000	-1.000000	-1.000000	533570.000000	1772311726.859491
-20753.955000	-28412.145000	-27727.335000	-15034.320000	0.000000	0.000000	0.000000	0.000000	3.371185	-19.062542	4.324696	6.398220	-0.000000	0.000000	-0.000000	0.000000	3.723440	0.366240	-0.869820	-0.011169	0.982419	0.015991	-1.000000	-1.000000	-1.000000	-1.000000	-1.000000	-1.000000	-1.000000	146.758621	0.000000	-1.000000	-1.000000	533571.000000	1772311726.859494
-20751.615000	-28440.945000	-27723.015000	-15031.305000	0.000000	0.000000	0.000000	0.000000	2.394151	-36.052879	4.954473	6.217421	-0.000000	0.000000	-0.000000	0.000000	3.723440	0.366240	-0.869820	-0.011169	0.982419	0.015991	-1.000000	-1.000000	-1.000000	-1.000000	-1.000000	-1.000000	-1.000000	146.758621	0.000000	-1.000000	-1.000000	533572.000000	1772311726.863435
-20754.855000	-28424.565000	-27728.100000	-15035.355000	0.000000	0.000000	0.000000	0.000000	2.227176	-41.558667	5.251860	4.561531	-0.000000	0.000000	-0.000000	0.000000	3.723440	0.366240	-0.869820	-0.011169	0.982419	0.015991	-1.000000	-1.000000	-1.000000	-1.000000	-1.000000	-1.000000	-1.000000	146.758621	0.000000	-1.000000	-1.000000	533573.000000	1772311726.863438
-20750.220000	-28413.090000	-27724.815000	-15031.620000	0.000000	0.000000	0.000000	0.000000	1.658374	-31.230444	3.601771	1.285373	-0.000000	0.000000	-0.000000	0.000000	3.723440	0.366240	-0.869820	-0.011169	0.982419	0.015991	-1.000000	-1.000000	-1.000000	-1.000000	-1.000000	-1.000000	-1.000000	146.758621	0.000000	-1.000000	-1.000000	533574.000000	1772311726.867484
-20739.960000	-28423.215000	-27716.265000	-15024.240000	0.000000	0.000000	0.000000	0.000000	0.278601	-8.008402	0.038110	-2.540298	-0.000000	0.000000	-0.000000	0.000000	3.723440	0.366240	-0.869820	-0.011169	0.982419	0.015991	-1.000000	-1.000000	-1.000000	-1.000000	-1.000000	-1.000000	-1.000000	146.758621	0.000000	-1.000000	-1.000000	533575.000000	1772311726.867487
-20740.320000	-28449.675000	-27718.245000	-15029.055000	0.000000	0.000000	0.000000	0.000000	-1.046718	16.578751	-3.486696	-5.131155	-0.000000	0.000000	-0.000000	0.000000	3.723440	0.366240	-0.869820	-0.011169	0.982419	0.015991	-1.000000	-1.000000	-1.000000	-1.000000	-1.000000	-1.000000	-1.000000	146.758621	0.000000	-1.000000	-1.000000	533576.000000	1772311726.871373
-20756.340000	-28468.260000	-27733.860000	-15042.015000	0.000000	0.000000	0.000000	0.000000	-2.159267	29.984576	-5.738900	-6.069255	-0.000000	0.000000	-0.000000	0.000000	3.723440	0.366240	-0.869820	-0.011169	0.982419	0.015991	-1.000000	-1.000000	-1.000000	-1.000000	-1.000000	-1.000000	-1.000000	146.758621	0.000000	-1.000000	-1.000000	533577.000000	1772311726.871376
-20759.670000	-28475.730000	-27733.005000	-15037.965000	0.000000	0.000000	0.000000	0.000000	-3.956968	28.174529	-7.044268	-6.163463	-0.000000	0.000000	-0.000000	0.000000	3.723440	0.366240	-0.869820	-0.011169	0.982419	0.015991	-1.000000	-1.000000	-1.000000	-1.000000	-1.000000	-1.000000	-1.000000	146.758621	0.000000	-1.000000	-1.000000	533578.000000	1772311726.875552
-20763.135000	-28452.555000	-27736.065000	-15041.430000	0.000000	0.000000	0.000000	0.000000	-6.129486	17.401310	-7.267621	-5.396605	-0.000000	0.000000	-0.000000	0.000000	3.723440	0.366240	-0.869820	-0.011169	0.982419	0.015991	-1.000000	-1.000000	-1.000000	-1.000000	-1.000000	-1.000000	-1.000000	146.758621	0.000000	-1.000000	-1.000000	533579.000000	1772311726.875555
-20761.740000	-28436.580000	-27736.020000	-15042.195000	0.000000	0.000000	0.000000	0.000000	-6.701275	7.703240	-5.484275	-3.173632	-0.000000	0.000000	-0.000000	0.000000	3.967600	-0.030520	-0.854560	-0.011230	0.981748	0.016479	-1.000000	-1.000000	-1.000000	-1.000000	-1.000000	-1.000000	-1.000000	146.758621	0.000000	-1.000000	-1.000000	533580.000000	1772311726.879533
-20756.205000	-28411.110000	-27729.180000	-15036.165000	0.000000	0.000000	0.000000	0.000000	-4.204887	4.618750	-1.556047	0.258668	-0.000000	0.000000	-0.000000	0.000000	3.967600	-0.030520	-0.854560	-0.011230	0.981748	0.016479	-1.000000	-1.000000	-1.000000	-1.000000	-1.000000	-1.000000	-1.000000	146.758621	0.000000	-1.000000	-1.000000	533581.000000	1772311726.879536
-20753.370000	-28406.520000	-27726.345000	-15032.115000	0.000000	0.000000	0.000000	0.000000	0.813303	6.262120	3.418545	3.973200	-0.000000	0.000000	-0.000000	0.000000	3.967600	-0.030520	-0.854560	-0.011230	0.981748	0.016479	-1.000000	-1.000000	-1.000000	-1.000000	-1.000000	-1.000000	-1.000000	146.758621	0.000000	-1.000000	-1.000000	533582.000000	1772311726.883456
-20751.840000	-28421.010000	-27727.020000	-15034.815000	0.000000	0.000000	0.000000	0.000000	6.014041	6.462910	7.471984	6.681990	-0.000000	0.000000	-0.000000	0.000000	3.967600	-0.030520	-0.854560	-0.011230	0.981748	0.016479	-1.000000	-1.000000	-1.000000	-1.000000	-1.000000	-1.000000	-1.000000	146.758621	0.000000	-1.000000	-1.000000	533583.000000	1772311726.883458
-20749.950000	-28419.255000	-27725.715000	-15035.625000	0.000000	0.000000	0.000000	0.000000	8.777241	0.607204	8.672294	6.996959	-0.000000	0.000000	-0.000000	0.000000	3.967600	-0.030520	-0.854560	-0.011230	0.981748	0.016479	-1.000000	-1.000000	-1.000000	-1.000000	-1.000000	-1.000000	-1.000000	146.758621	0.000000	-1.000000	-1.000000	533584.000000	1772311726.887524
-20748.510000	-28447.965000	-27725.220000	-15035.265000	0.000000	0.000000	0.000000	0.000000	7.953048	-10.228526	6.547131	4.595211	-0.000000	0.000000	-0.000000	0.000000	3.967600	-0.030520	-0.854560	-0.011230	0.981748	0.016479	-1.000000	-1.000000	-1.000000	-1.000000	-1.000000	-1.000000	-1.000000	146.758621	0.000000	-1.000000	-1.000000	533585.000000	1772311726.887528
-20755.215000	-28458.765000	-27728.865000	-15036.525000	0.000000	0.000000	0.000000	0.000000	4.196171	-20.843495	2.316091	0.754351	-0.000000	0.000000	-0.000000	0.000000	3.967600	-0.030520	-0.854560	-0.011230	0.981748	0.016479	-1.000000	-1.000000	-1.000000	-1.000000	-1.000000	-1.000000	-1.000000	146.758621	0.000000	-1.000000	-1.000000	533586.000000	1772311726.891487
-20757.375000	-28449.090000	-27731.835000	-15041.610000	0.000000	0.000000	0.000000	0.000000	-0.880506	-25.393282	-2.206354	-2.760143	-0.000000	0.000000	-0.000000	0.000000	3.967600	-0.030520	-0.854560	-0.011230	0.981748	0.016479	-1.000000	-1.000000	-1.000000	-1.000000	-1.000000	-1.000000	-1.000000	146.758621	0.000000	-1.000000	-1.000000	533587.000000	1772311726.891489
-20755.440000	-28450.800000	-27728.415000	-15037.605000	0.000000	0.000000	0.000000	0.000000	-5.229443	-20.098503	-5.366249	-4.751097	-0.000000	0.000000	-0.000000	0.000000	3.967600	-0.030520	-0.854560	-0.011230	0.981748	0.016479	-1.000000	-1.000000	-1.000000	-1.000000	-1.000000	-1.000000	-1.000000	146.758621	0.000000	-1.000000	-1.000000	533588.000000	1772311726.895284
-20758.230000	-28438.245000	-27732.690000	-15040.845000	0.000000	0.000000	0.000000	0.000000	-7.017809	-6.361398	-6.088000	-4.705134	-0.000000	0.000000	-0.000000	0.000000	3.967600	-0.030520	-0.854560	-0.011230	0.981748	0.016479	-1.000000	-1.000000	-1.000000	-1.000000	-1.000000	-1.000000	-1.000000	146.758621	0.000000	-1.000000	-1.000000	533589.000000	1772311726.895287
-20762.865000	-28394.640000	-27737.280000	-15044.580000	0.000000	0.000000	0.000000	0.000000	-5.906816	10.286186	-4.610742	-3.033942	-0.000000	0.000000	-0.000000	0.000000	3.998120	0.015260	-0.427280	-0.012634	0.982358	0.015625	-1.000000	-1.000000	-1.000000	-1.000000	-1.000000	-1.000000	-1.000000	146.758621	0.000000	-1.000000	-1.000000	533590.000000	1772311726.899665
-20741.715000	-28362.015000	-27715.545000	-15023.970000	0.000000	0.000000	0.000000	0.000000	-2.753787	24.449695	-1.837776	-0.544617	-0.000000	0.000000	-0.000000	0.000000	3.998120	0.015260	-0.427280	-0.012634	0.982358	0.015625	-1.000000	-1.000000	-1.000000	-1.000000	-1.000000	-1.000000	-1.000000	146.758621	0.000000	-1.000000	-1.000000	533591.000000	1772311726.899668
-20725.830000	-28352.745000	-27700.065000	-15011.010000	0.000000	0.000000	0.000000	0.000000	1.897813	31.466213	2.103302	2.699797	-0.000000	0.000000	-0.000000	0.000000	3.998120	0.015260	-0.427280	-0.012634	0.982358	0.015625	-1.000000	-1.000000	-1.000000	-1.000000	-1.000000	-1.000000	-1.000000	146.758621	0.000000	-1.000000	-1.000000	533592.000000	1772311726.903606
-20741.580000	-28343.700000	-27720.630000	-15030.225000	0.000000	0.000000	0.000000	0.000000	6.615492	27.320780	6.145022	5.787116	-0.000000	0.000000	-0.000000	0.000000	3.998120	0.015260	-0.427280	-0.012634	0.982358	0.015625	-1.000000	-1.000000	-1.000000	-1.000000	-1.000000	-1.000000	-1.000000	146.758621	0.000000	-1.000000	-1.000000	533593.000000	1772311726.903609
-20757.465000	-28322.730000	-27737.190000	-15046.560000	0.000000	0.000000	0.000000	0.000000	7.696712	12.455402	6.644090	5.535180	-0.000000	0.000000	-0.000000	0.000000	3.998120	0.015260	-0.427280	-0.012634	0.982358	0.015625	-1.000000	-1.000000	-1.000000	-1.000000	-1.000000	-1.000000	-1.000000	146.758621	0.000000	-1.000000	-1.000000	533594.000000	1772311726.909675
-20786.940000	-28293.165000	-27760.815000	-15067.395000	0.000000	0.000000	0.000000	0.000000	2.461326	-6.140616	1.177237	0.005710	-0.000000	0.000000	-0.000000	0.000000	3.998120	0.015260	-0.427280	-0.012634	0.982358	0.015625	-1.000000	-1.000000	-1.000000	-1.000000	-1.000000	-1.000000	-1.000000	146.758621	0.000000	-1.000000	-1.000000	533595.000000	1772311726.909679
-20785.905000	-28297.665000	-27761.310000	-15069.780000	0.000000	0.000000	0.000000	0.000000	-6.738543	-19.958477	-7.419011	-7.963990	-0.000000	0.000000	-0.000000	0.000000	3.998120	0.015260	-0.427280	-0.012634	0.982358	0.015625	-1.000000	-1.000000	-1.000000	-1.000000	-1.000000	-1.000000	-1.000000	146.758621	0.000000	-1.000000	-1.000000	533596.000000	1772311726.911609
-20773.665000	-28303.875000	-27749.070000	-15058.800000	0.000000	0.000000	0.000000	0.000000	-13.102103	-25.714338	-12.552932	-12.357951	-0.000000	0.000000	-0.000000	0.000000	3.998120	0.015260	-0.427280	-0.012634	0.982358	0.015625	-1.000000	-1.000000	-1.000000	-1.000000	-1.000000	-1.000000	-1.000000	146.758621	0.000000	-1.000000	-1.000000	533597.000000	1772311726.911612
-20772.045000	-28323.630000	-27748.035000	-15057.315000	0.000000	0.000000	0.000000	0.000000	-10.946382	-25.487062	-9.469436	-9.013274	-0.000000	0.000000	-0.000000	0.000000	3.998120	0.015260	-0.427280	-0.012634	0.982358	0.015625	-1.000000	-1.000000	-1.000000	-1.000000	-1.000000	-1.000000	-1.000000	146.758621	0.000000	-1.000000	-1.000000	533598.000000	1772311726.915590
-20761.155000	-28368.495000	-27738.765000	-15046.245000	0.000000	0.000000	0.000000	0.000000	-1.123162	-22.645047	0.344642	0.604924	-0.000000	0.000000	-0.000000	0.000000	3.998120	0.015260	-0.427280	-0.012634	0.982358	0.015625	-1.000000	-1.000000	-1.000000	-1.000000	-1.000000	-1.000000	-1.000000	146.758621	0.000000	-1.000000	-1.000000	533599.000000	1772311726.915593
-20747.520000	-28382.220000	-27726.165000	-15032.700000	0.000000	0.000000	0.000000	0.000000	10.331899	-18.951004	10.941625	11.010643	-0.000000	0.000000	-0.000000	0.000000	3.280900	0.106820	-0.106820	-0.012329	0.983213	0.013794	-1.000000	-1.000000	-1.000000	-1.000000	-1.000000	-1.000000	-1.000000	146.758621	0.000000	-1.000000	-1.000000	533600.000000	1772311726.921315
-20748.555000	-28392.795000	-27726.840000	-15033.915000	0.000000	0.000000	0.000000	0.000000	17.299695	-13.013234	16.795973	16.916632	-0.000000	0.000000	-0.000000	0.000000	3.280900	0.106820	-0.106820	-0.012329	0.983213	0.013794	-1.000000	-1.000000	-1.000000	-1.000000	-1.000000	-1.000000	-1.000000	146.758621	0.000000	-1.000000	-1.000000	533601.000000	1772311726.921317
-20752.695000	-28394.010000	-27729.945000	-15037.380000	0.000000	0.000000	0.000000	0.000000	16.381997	-2.360736	15.220416	15.439849	-0.000000	0.000000	-0.000000	0.000000	3.280900	0.106820	-0.106820	-0.012329	0.983213	0.013794	-1.000000	-1.000000	-1.000000	-1.000000	-1.000000	-1.000000	-1.000000	146.758621	0.000000	-1.000000	-1.000000	533602.000000	1772311726.923560
-20762.280000	-28357.470000	-27739.530000	-15046.740000	0.000000	0.000000	0.000000	0.000000	7.921298	12.814151	6.907991	7.023685	-0.000000	0.000000	-0.000000	0.000000	3.280900	0.106820	-0.106820	-0.012329	0.983213	0.013794	-1.000000	-1.000000	-1.000000	-1.000000	-1.000000	-1.000000	-1.000000	146.758621	0.000000	-1.000000	-1.000000	533603.000000	1772311726.923562
-20760.345000	-28342.665000	-27735.705000	-15044.535000	0.000000	0.000000	0.000000	0.000000	-3.940073	28.934988	-4.205723	-4.395449	-0.000000	0.000000	-0.000000	0.000000	3.280900	0.106820	-0.106820	-0.012329	0.983213	0.013794	-1.000000	-1.000000	-1.000000	-1.000000	-1.000000	-1.000000	-1.000000	146.758621	0.000000	-1.000000	-1.000000	533604.000000	1772311726.927635
-20745.990000	-28358.010000	-27719.595000	-15028.110000	0.000000	0.000000	0.000000	0.000000	-13.019481	39.154617	-12.409625	-12.937374	-0.000000	0.000000	-0.000000	0.000000	3.280900	0.106820	-0.106820	-0.012329	0.983213	0.013794	-1.000000	-1.000000	-1.000000	-1.000000	-1.000000	-1.000000	-1.000000	146.758621	0.000000	-1.000000	-1.000000	533605.000000	1772311726.927639
-20742.120000	-28353.420000	-27715.500000	-15024.105000	0.000000	0.000000	0.000000	0.000000	-14.716113	36.348565	-13.524986	-14.208978	-0.000000	0.000000	-0.000000	0.000000	3.280900	0.106820	-0.106820	-0.012329	0.983213	0.013794	-1.000000	-1.000000	-1.000000	-1.000000	-1.000000	-1.000000	-1.000000	146.758621	0.000000	-1.000000	-1.000000	533606.000000	1772311726.931740
-20751.840000	-28383.840000	-27727.380000	-15039.135000	0.000000	0.000000	0.000000	0.000000	-9.585474	19.624554	-8.438028	-9.009487	-0.000000	0.000000	-0.000000	0.000000	3.280900	0.106820	-0.106820	-0.012329	0.983213	0.013794	-1.000000	-1.000000	-1.000000	-1.000000	-1.000000	-1.000000	-1.000000	146.758621	0.000000	-1.000000	-1.000000	533607.000000	1772311726.931742
-20770.020000	-28390.995000	-27747.405000	-15059.565000	0.000000	0.000000	0.000000	0.000000	-2.855003	-4.179710	-2.504942	-2.857410	0.000000	0.000000	-0.000000	0.000000	3.280900	0.106820	-0.106820	-0.012329	0.983213	0.013794	-1.000000	-1.000000	-1.000000	-1.000000	-1.000000	-1.000000	-1.000000	146.758621	0.000000	-1.000000	-1.000000	533608.000000	1772311726.935648
-20769.390000	-28368.225000	-27747.765000	-15057.765000	0.000000	0.000000	0.000000	0.000000	0.713155	-24.127348	-0.167738	-0.277698	0.000000	0.000000	-0.000000	0.000000	3.280900	0.106820	-0.106820	-0.012329	0.983213	0.013794	-1.000000	-1.000000	-1.000000	-1.000000	-1.000000	-1.000000	-1.000000	146.758621	0.000000	-1.000000	-1.000000	533609.000000	1772311726.935650
-20762.505000	-28353.240000	-27738.270000	-15045.660000	0.000000	0.000000	0.000000	0.000000	1.106225	-30.486281	-0.684053	-0.325485	0.000000	0.000000	-0.000000	0.000000	2.319520	0.350980	-0.183120	-0.011169	0.984067	0.011536	-1.000000	-1.000000	-1.000000	-1.000000	-1.000000	-1.000000	-1.000000	146.758621	0.000000	-1.000000	-1.000000	533610.000000	1772311726.939633
-20761.155000	-28359.540000	-27736.560000	-15043.320000	0.000000	0.000000	0.000000	0.000000	1.456116	-21.797215	-0.237320	0.862877	0.000000	0.000000	-0.000000	0.000000	2.319520	0.350980	-0.183120	-0.011169	0.984067	0.011536	-1.000000	-1.000000	-1.000000	-1.000000	-1.000000	-1.000000	-1.000000	146.758621	0.000000	-1.000000	-1.000000	533611.000000	1772311726.939636
-20763.450000	-28354.770000	-27736.830000	-15042.870000	0.000000	0.000000	0.000000	0.000000	3.333830	-6.183724	2.743428	4.434227	0.000000	0.000000	-0.000000	0.000000	2.319520	0.350980	-0.183120	-0.011169	0.984067	0.011536	-1.000000	-1.000000	-1.000000	-1.000000	-1.000000	-1.000000	-1.000000	146.758621	0.000000	-1.000000	-1.000000	533612.000000	1772311726.943681
-20769.030000	-28337.265000	-27742.905000	-15050.205000	0.000000	0.000000	0.000000	0.000000	5.323068	6.705948	6.139296	7.732014	0.000000	0.000000	-0.000000	0.000000	2.319520	0.350980	-0.183120	-0.011169	0.984067	0.011536	-1.000000	-1.000000	-1.000000	-1.000000	-1.000000	-1.000000	-1.000000	146.758621	0.000000	-1.000000	-1.000000	533613.000000	1772311726.943683
-20762.190000	-28326.420000	-27736.605000	-15043.815000	0.000000	0.000000	0.000000	0.000000	5.558455	12.738198	7.226510	7.901411	0.000000	0.000000	-0.000000	0.000000	2.319520	0.350980	-0.183120	-0.011169	0.984067	0.011536	-1.000000	-1.000000	-1.000000	-1.000000	-1.000000	-1.000000	-1.000000	146.758621	0.000000	-1.000000	-1.000000	533614.000000	1772311726.947729
-20757.600000	-28313.280000	-27733.005000	-15040.395000	0.000000	0.000000	0.000000	0.000000	4.077770	12.598817	5.589774	4.956127	0.000000	0.000000	-0.000000	0.000000	2.319520	0.350980	-0.183120	-0.011169	0.984067	0.011536	-1.000000	-1.000000	-1.000000	-1.000000	-1.000000	-1.000000	-1.000000	146.758621	0.000000	-1.000000	-1.000000	533615.000000	1772311726.947732
-20750.220000	-28320.030000	-27727.605000	-15035.355000	0.000000	0.000000	0.000000	0.000000	2.268286	8.213351	2.790195	1.132658	0.000000	0.000000	-0.000000	0.000000	2.319520	0.350980	-0.183120	-0.011169	0.984067	0.011536	-1.000000	-1.000000	-1.000000	-1.000000	-1.000000	-1.000000	-1.000000	146.758621	0.000000	-1.000000	-1.000000	533616.000000	1772311726.951656
-20762.190000	-28321.065000	-27740.430000	-15047.055000	0.000000	0.000000	0.000000	0.000000	0.745908	1.197594	0.036739	-1.898777	0.000000	0.000000	-0.000000	0.000000	2.319520	0.350980	-0.183120	-0.011169	0.984067	0.011536	-1.000000	-1.000000	-1.000000	-1.000000	-1.000000	-1.000000	-1.000000	146.758621	0.000000	-1.000000	-1.000000	533617.000000	1772311726.951659
-20761.830000	-28312.920000	-27739.710000	-15046.920000	0.000000	0.000000	0.000000	0.000000	-1.162122	-6.232758	-2.674264	-4.104941	0.000000	0.000000	-0.000000	0.000000	2.319520	0.350980	-0.183120	-0.011169	0.984067	0.011536	-1.000000	-1.000000	-1.000000	-1.000000	-1.000000	-1.000000	-1.000000	146.758621	0.000000	-1.000000	-1.000000	533618.000000	1772311726.956198
-20759.715000	-28305.090000	-27736.065000	-15044.130000	0.000000	0.000000	0.000000	0.000000	-3.548172	-10.777237	-4.983929	-5.498147	0.000000	0.000000	-0.000000	0.000000	2.319520	0.350980	-0.183120	-0.011169	0.984067	0.011536	-1.000000	-1.000000	-1.000000	-1.000000	-1.000000	-1.000000	-1.000000	146.758621	0.000000	-1.000000	-1.000000	533619.000000	1772311726.956200
-20764.395000	-28309.905000	-27737.190000	-15043.635000	0.000000	0.000000	0.000000	0.000000	-5.134998	-10.456110	-5.592740	-5.269117	0.000000	0.000000	-0.000000	0.000000	2.044840	0.152600	-0.701960	-0.010010	0.983518	0.012329	-1.000000	-1.000000	-1.000000	-1.000000	-1.000000	-1.000000	-1.000000	146.758621	0.000000	-1.000000	-1.000000	533620.000000	1772311726.960989
-20757.870000	-28328.895000	-27730.440000	-15037.695000	0.000000	0.000000	0.000000	0.000000	-4.849605	-6.899910	-3.894652	-3.058400	0.000000	0.000000	-0.000000	0.000000	2.044840	0.152600	-0.701960	-0.010010	0.983518	0.012329	-1.000000	-1.000000	-1.000000	-1.000000	-1.000000	-1.000000	-1.000000	146.758621	0.000000	-1.000000	-1.000000	533621.000000	1772311726.960993
-20746.665000	-28344.555000	-27721.395000	-15029.955000	0.000000	0.000000	0.000000	0.000000	-2.501851	-3.739206	-0.559973	0.398536	0.000000	0.000000	-0.000000	0.000000	2.044840	0.152600	-0.701960	-0.010010	0.983518	0.012329	-1.000000	-1.000000	-1.000000	-1.000000	-1.000000	-1.000000	-1.000000	146.758621	0.000000	-1.000000	-1.000000	533622.000000	1772311726.965204
-20756.115000	-28303.695000	-27734.940000	-15047.775000	0.000000	0.000000	0.000000	0.000000	1.070739	-1.832691	2.775387	3.384164	0.000000	0.000000	-0.000000	0.000000	2.044840	0.152600	-0.701960	-0.010010	0.983518	0.012329	-1.000000	-1.000000	-1.000000	-1.000000	-1.000000	-1.000000	-1.000000	146.758621	0.000000	-1.000000	-1.000000	533623.000000	1772311726.965207
-20770.065000	-28251.720000	-27748.305000	-15061.140000	0.000000	0.000000	0.000000	0.000000	3.418080	2.729033	3.666414	3.525792	0.000000	0.000000	-0.000000	0.000000	2.044840	0.152600	-0.701960	-0.010010	0.983518	0.012329	-1.000000	-1.000000	-1.000000	-1.000000	-1.000000	-1.000000	-1.000000	146.758621	0.000000	-1.000000	-1.000000	533624.000000	1772311726.969393
-20768.625000	-28232.055000	-27742.950000	-15049.530000	0.000000	0.000000	0.000000	0.000000	2.479875	12.466848	1.131807	0.425419	0.000000	0.000000	-0.000000	0.000000	2.044840	0.152600	-0.701960	-0.010010	0.983518	0.012329	-1.000000	-1.000000	-1.000000	-1.000000	-1.000000	-1.000000	-1.000000	146.758621	0.000000	-1.000000	-1.000000	533625.000000	1772311726.969396
-20774.745000	-28213.785000	-27749.250000	-15051.870000	0.000000	0.000000	0.000000	0.000000	-0.668351	22.149172	-2.490982	-2.772162	0.000000	0.000000	-0.000000	0.000000	2.044840	0.152600	-0.701960	-0.010010	0.983518	0.012329	-1.000000	-1.000000	-1.000000	-1.000000	-1.000000	-1.000000	-1.000000	146.758621	0.000000	-1.000000	-1.000000	533626.000000	1772311726.971792
-20776.680000	-28198.305000	-27755.280000	-15058.980000	0.000000	0.000000	0.000000	0.000000	-3.144759	23.338956	-4.214968	-3.147772	0.000000	0.000000	-0.000000	0.000000	2.044840	0.152600	-0.701960	-0.010010	0.983518	0.012329	-1.000000	-1.000000	-1.000000	-1.000000	-1.000000	-1.000000	-1.000000	146.758621	0.000000	-1.000000	-1.000000	533627.000000	1772311726.971796
-20775.555000	-28211.940000	-27753.030000	-15058.260000	0.000000	0.000000	0.000000	0.000000	-3.177221	12.809418	-3.252683	-1.150294	0.000000	0.000000	-0.000000	0.000000	2.044840	0.152600	-0.701960	-0.010010	0.983518	0.012329	-1.000000	-1.000000	-1.000000	-1.000000	-1.000000	-1.000000	-1.000000	146.758621	0.000000	-1.000000	-1.000000	533628.000000	1772311726.975843
-20773.575000	-28190.340000	-27748.440000	-15055.515000	0.000000	0.000000	0.000000	0.000000	-0.817287	-5.240926	-0.325568	1.365841	0.000000	0.000000	-0.000000	0.000000	2.044840	0.152600	-0.701960	-0.010010	0.983518	0.012329	-1.000000	-1.000000	-1.000000	-1.000000	-1.000000	-1.000000	-1.000000	146.758621	0.000000	-1.000000	-1.000000	533629.000000	1772311726.975845
-20774.385000	-28170.180000	-27750.915000	-15057.720000	0.000000	0.000000	0.000000	0.000000	2.542313	-21.493448	3.279588	3.252360	0.000000	0.000000	-0.000000	0.000000	1.739640	0.442540	-0.717220	-0.010681	0.982358	0.012878	-1.000000	-1.000000	-1.000000	-1.000000	-1.000000	-1.000000	-1.000000	146.758621	0.000000	-1.000000	-1.000000	533630.000000	1772311726.979912
-20772.000000	-28166.580000	-27747.630000	-15054.930000	0.000000	0.000000	0.000000	0.000000	5.027378	-27.601826	5.828712	3.949188	0.000000	0.000000	-0.000000	0.000000	1.739640	0.442540	-0.717220	-0.010681	0.982358	0.012878	-1.000000	-1.000000	-1.000000	-1.000000	-1.000000	-1.000000	-1.000000	146.758621	0.000000	-1.000000	-1.000000	533631.000000	1772311726.979915
-20767.455000	-28159.335000	-27744.930000	-15054.840000	0.000000	0.000000	0.000000	0.000000	5.537029	-22.522551	6.144846	3.358910	0.000000	0.000000	-0.000000	0.000000	1.739640	0.442540	-0.717220	-0.010681	0.982358	0.012878	-1.000000	-1.000000	-1.000000	-1.000000	-1.000000	-1.000000	-1.000000	146.758621	0.000000	-1.000000	-1.000000	533632.000000	1772311726.983727
-20766.195000	-28171.710000	-27744.075000	-15051.645000	0.000000	0.000000	0.000000	0.000000	4.229644	-11.770662	4.376627	1.922970	0.000000	0.000000	-0.000000	0.000000	1.739640	0.442540	-0.717220	-0.010681	0.982358	0.012878	-1.000000	-1.000000	-1.000000	-1.000000	-1.000000	-1.000000	-1.000000	146.758621	0.000000	-1.000000	-1.000000	533633.000000	1772311726.983730
-20759.445000	-28169.505000	-27738.495000	-15044.310000	0.000000	0.000000	0.000000	0.000000	1.955589	-1.873701	1.539399	0.408761	0.000000	0.000000	-0.000000	0.000000	1.739640	0.442540	-0.717220	-0.010681	0.982358	0.012878	-1.000000	-1.000000	-1.000000	-1.000000	-1.000000	-1.000000	-1.000000	146.758621	0.000000	-1.000000	-1.000000	533634.000000	1772311726.987761
-20757.375000	-28170.765000	-27733.950000	-15041.250000	0.000000	0.000000	0.000000	0.000000	-0.340983	3.997020	-1.103931	-0.489917	0.000000	0.000000	-0.000000	0.000000	1.739640	0.442540	-0.717220	-0.010681	0.982358	0.012878	-1.000000	-1.000000	-1.000000	-1.000000	-1.000000	-1.000000	-1.000000	146.758621	0.000000	-1.000000	-1.000000	533635.000000	1772311726.987764
-20756.970000	-28198.260000	-27731.970000	-15040.215000	0.000000	0.000000	0.000000	0.000000	-2.101917	5.960378	-2.678293	-0.773427	0.000000	0.000000	-0.000000	0.000000	1.739640	0.442540	-0.717220	-0.010681	0.982358	0.012878	-1.000000	-1.000000	-1.000000	-1.000000	-1.000000	-1.000000	-1.000000	146.758621	0.000000	-1.000000	-1.000000	533636.000000	1772311726.991865
-20761.830000	-28178.190000	-27735.030000	-15043.050000	0.000000	0.000000	0.000000	0.000000	-3.407109	5.381028	-3.266331	-1.149375	0.000000	0.000000	-0.000000	0.000000	1.739640	0.442540	-0.717220	-0.010681	0.982358	0.012878	-1.000000	-1.000000	-1.000000	-1.000000	-1.000000	-1.000000	-1.000000	146.758621	0.000000	-1.000000	-1.000000	533637.000000	1772311726.991869
-20770.740000	-28130.895000	-27746.190000	-15055.155000	0.000000	0.000000	0.000000	0.000000	-4.617079	5.694415	-3.721505	-2.341443	0.000000	0.000000	-0.000000	0.000000	1.739640	0.442540	-0.717220	-0.010681	0.982358	0.012878	-1.000000	-1.000000	-1.000000	-1.000000	-1.000000	-1.000000	-1.000000	146.758621	0.000000	-1.000000	-1.000000	533638.000000	1772311726.995597
-20771.055000	-28090.440000	-27747.720000	-15057.180000	0.000000	0.000000	0.000000	0.000000	-5.634130	10.881569	-4.615930	-4.325972	0.000000	0.000000	-0.000000	0.000000	1.739640	0.442540	-0.717220	-0.010681	0.982358	0.012878	-1.000000	-1.000000	-1.000000	-1.000000	-1.000000	-1.000000	-1.000000	146.758621	0.000000	-1.000000	-1.000000	533639.000000	1772311726.995600
-20762.370000	-28076.580000	-27738.225000	-15046.830000	0.000000	0.000000	0.000000	0.000000	-5.356329	19.308261	-5.026876	-5.601918	0.000000	0.000000	-0.000000	0.000000	1.693860	0.335720	-0.763000	-0.010681	0.982358	0.014648	-1.000000	-1.000000	-1.000000	-1.000000	-1.000000	-1.000000	-1.000000	146.758621	0.000000	-1.000000	-1.000000	533640.000000	1772311726.999863
-20764.260000	-28076.895000	-27740.970000	-15048.540000	0.000000	0.000000	0.000000	0.000000	-2.696299	22.969806	-3.331489	-4.187662	0.000000	0.000000	-0.000000	0.000000	1.693860	0.335720	-0.763000	-0.010681	0.982358	0.014648	-1.000000	-1.000000	-1.000000	-1.000000	-1.000000	-1.000000	-1.000000	146.758621	0.000000	-1.000000	-1.000000	533641.000000	1772311726.999865
-20767.590000	-28098.225000	-27745.740000	-15054.255000	0.000000	0.000000	0.000000	0.000000	1.461306	14.895962	0.223560	-0.339563	0.000000	0.000000	-0.000000	0.000000	1.693860	0.335720	-0.763000	-0.010681	0.982358	0.014648	-1.000000	-1.000000	-1.000000	-1.000000	-1.000000	-1.000000	-1.000000	146.758621	0.000000	-1.000000	-1.000000	533642.000000	1772311727.003823
-20766.240000	-28088.460000	-27743.895000	-15051.870000	0.000000	0.000000	0.000000	0.000000	4.710662	-3.598111	3.455884	3.387722	0.000000	0.000000	-0.000000	0.000000	1.693860	0.335720	-0.763000	-0.010681	0.982358	0.014648	-1.000000	-1.000000	-1.000000	-1.000000	-1.000000	-1.000000	-1.000000	146.758621	0.000000	-1.000000	-1.000000	533643.000000	1772311727.003827
-20749.770000	-28105.515000	-27727.560000	-15036.435000	0.000000	0.000000	0.000000	0.000000	5.867024	-23.029576	5.101635	5.337500	0.000000	0.000000	-0.000000	0.000000	1.693860	0.335720	-0.763000	-0.010681	0.982358	0.014648	-1.000000	-1.000000	-1.000000	-1.000000	-1.000000	-1.000000	-1.000000	146.758621	0.000000	-1.000000	-1.000000	533644.000000	1772311727.007930
-20750.670000	-28093.860000	-27725.580000	-15034.860000	0.000000	0.000000	0.000000	0.000000	5.657787	-33.112190	5.709949	5.916675	0.000000	0.000000	-0.000000	0.000000	1.693860	0.335720	-0.763000	-0.010681	0.982358	0.014648	-1.000000	-1.000000	-1.000000	-1.000000	-1.000000	-1.000000	-1.000000	146.758621	0.000000	-1.000000	-1.000000	533645.000000	1772311727.007932
-20775.870000	-28082.520000	-27750.375000	-15057.495000	0.000000	0.000000	0.000000	0.000000	4.114658	-29.219490	5.067041	5.055568	0.000000	0.000000	-0.000000	0.000000	1.693860	0.335720	-0.763000	-0.010681	0.982358	0.014648	-1.000000	-1.000000	-1.000000	-1.000000	-1.000000	-1.000000	-1.000000	146.758621	0.000000	-1.000000	-1.000000	533646.000000	1772311727.011885
-20775.015000	-28071.585000	-27744.930000	-15054.345000	0.000000	0.000000	0.000000	0.000000	0.126545	-13.737612	1.771843	1.614378	0.000000	0.000000	-0.000000	0.000000	1.693860	0.335720	-0.763000	-0.010681	0.982358	0.014648	-1.000000	-1.000000	-1.000000	-1.000000	-1.000000	-1.000000	-1.000000	146.758621	0.000000	-1.000000	-1.000000	533647.000000	1772311727.011888
-20774.295000	-28072.665000	-27749.295000	-15057.945000	0.000000	0.000000	0.000000	0.000000	-5.091861	5.438924	-3.291295	-3.463494	0.000000	0.000000	-0.000000	0.000000	1.693860	0.335720	-0.763000	-0.010681	0.982358	0.014648	-1.000000	-1.000000	-1.000000	-1.000000	-1.000000	-1.000000	-1.000000	146.758621	0.000000	-1.000000	-1.000000	533648.000000	1772311727.015927
-20763.990000	-28133.370000	-27741.015000	-15051.330000	0.000000	0.000000	0.000000	0.000000	-7.698006	18.107101	-6.647018	-6.821002	0.000000	0.000000	-0.000000	0.000000	1.693860	0.335720	-0.763000	-0.010681	0.982358	0.014648	-1.000000	-1.000000	-1.000000	-1.000000	-1.000000	-1.000000	-1.000000	146.758621	0.000000	-1.000000	-1.000000	533649.000000	1772311727.015930
-20768.310000	-28153.575000	-27743.940000	-15052.320000	0.000000	0.000000	0.000000	0.000000	-5.502592	17.190716	-5.994343	-6.176696	0.000000	0.000000	-0.000000	0.000000	2.273740	0.122080	-0.778260	-0.011780	0.981748	0.015869	-1.000000	-1.000000	-1.000000	-1.000000	-1.000000	-1.000000	-1.000000	146.758621	0.000000	-1.000000	-1.000000	533650.000000	1772311727.019986
-20764.215000	-28131.120000	-27739.980000	-15048.045000	0.000000	0.000000	0.000000	0.000000	-0.269442	5.878786	-2.158261	-2.233910	0.000000	0.000000	-0.000000	0.000000	2.273740	0.122080	-0.778260	-0.011780	0.981748	0.015869	-1.000000	-1.000000	-1.000000	-1.000000	-1.000000	-1.000000	-1.000000	146.758621	0.000000	-1.000000	-1.000000	533651.000000	1772311727.019990
-20747.205000	-28126.755000	-27722.205000	-15033.645000	0.000000	0.000000	0.000000	0.000000	4.739122	-3.689057	2.521116	2.651289	0.000000	0.000000	-0.000000	0.000000	2.273740	0.122080	-0.778260	-0.011780	0.981748	0.015869	-1.000000	-1.000000	-1.000000	-1.000000	-1.000000	-1.000000	-1.000000	146.758621	0.000000	-1.000000	-1.000000	533652.000000	1772311727.024039
-20744.640000	-28161.000000	-27712.080000	-15027.930000	0.000000	0.000000	0.000000	0.000000	7.682416	-3.839632	6.405194	6.487743	0.000000	0.000000	-0.000000	0.000000	2.273740	0.122080	-0.778260	-0.011780	0.981748	0.015869	-1.000000	-1.000000	-1.000000	-1.000000	-1.000000	-1.000000	-1.000000	146.758621	0.000000	-1.000000	-1.000000	533653.000000	1772311727.024042
-20770.200000	-28181.835000	-27739.305000	-15051.150000	0.000000	0.000000	0.000000	0.000000	7.300413	1.410298	7.785162	7.430557	0.000000	0.000000	-0.000000	0.000000	2.273740	0.122080	-0.778260	-0.011780	0.981748	0.015869	-1.000000	-1.000000	-1.000000	-1.000000	-1.000000	-1.000000	-1.000000	146.758621	0.000000	-1.000000	-1.000000	533654.000000	1772311727.027950
-20779.065000	-28164.690000	-27752.445000	-15059.835000	0.000000	0.000000	0.000000	0.000000	2.345558	5.150980	4.267096	3.732647	0.000000	0.000000	-0.000000	0.000000	2.273740	0.122080	-0.778260	-0.011780	0.981748	0.015869	-1.000000	-1.000000	-1.000000	-1.000000	-1.000000	-1.000000	-1.000000	146.758621	0.000000	-1.000000	-1.000000	533655.000000	1772311727.027953
-20766.375000	-28170.495000	-27741.240000	-15052.005000	0.000000	0.000000	0.000000	0.000000	-5.204809	6.330913	-3.373067	-3.258737	0.000000	0.000000	-0.000000	0.000000	2.273740	0.122080	-0.778260	-0.011780	0.981748	0.015869	-1.000000	-1.000000	-1.000000	-1.000000	-1.000000	-1.000000	-1.000000	146.758621	0.000000	-1.000000	-1.000000	533656.000000	1772311727.031980
-20762.055000	-28168.740000	-27736.110000	-15047.190000	0.000000	0.000000	0.000000	0.000000	-9.816701	6.831542	-9.520681	-8.488859	0.000000	0.000000	-0.000000	0.000000	2.273740	0.122080	-0.778260	-0.011780	0.981748	0.015869	-1.000000	-1.000000	-1.000000	-1.000000	-1.000000	-1.000000	-1.000000	146.758621	0.000000	-1.000000	-1.000000	533657.000000	1772311727.031984
-20752.110000	-28180.665000	-27726.255000	-15036.660000	0.000000	0.000000	0.000000	0.000000	-7.866795	6.577820	-9.223142	-7.936487	0.000000	0.000000	-0.000000	0.000000	2.273740	0.122080	-0.778260	-0.011780	0.981748	0.015869	-1.000000	-1.000000	-1.000000	-1.000000	-1.000000	-1.000000	-1.000000	146.758621	0.000000	-1.000000	-1.000000	533658.000000	1772311727.035837
-20759.940000	-28180.440000	-27734.580000	-15044.265000	0.000000	0.000000	0.000000	0.000000	-1.237060	4.388417	-3.196417	-2.430335	0.000000	0.000000	-0.000000	0.000000	2.273740	0.122080	-0.778260	-0.011780	0.981748	0.015869	-1.000000	-1.000000	-1.000000	-1.000000	-1.000000	-1.000000	-1.000000	146.758621	0.000000	-1.000000	-1.000000	533659.000000	1772311727.035840
-20769.075000	-28187.325000	-27740.790000	-15048.585000	0.000000	0.000000	0.000000	0.000000	4.767364	0.396292	3.448233	3.474628	0.000000	0.000000	-0.000000	0.000000	2.929920	-0.122080	-0.656180	-0.012451	0.982419	0.016724	-1.000000	-1.000000	-1.000000	-1.000000	-1.000000	-1.000000	-1.000000	146.758621	0.000000	-1.000000	-1.000000	533660.000000	1772311727.039962
-20758.995000	-28233.945000	-27728.550000	-15038.460000	0.000000	0.000000	0.000000	0.000000	6.337707	-4.554337	6.428739	5.960867	0.000000	0.000000	-0.000000	0.000000	2.929920	-0.122080	-0.656180	-0.012451	0.982419	0.016724	-1.000000	-1.000000	-1.000000	-1.000000	-1.000000	-1.000000	-1.000000	146.758621	0.000000	-1.000000	-1.000000	533661.000000	1772311727.039965
-20754.720000	-28268.235000	-27724.905000	-15037.200000	0.000000	0.000000	0.000000	0.000000	4.245061	-10.502032	5.757815	5.013457	0.000000	0.000000	-0.000000	0.000000	2.929920	-0.122080	-0.656180	-0.012451	0.982419	0.016724	-1.000000	-1.000000	-1.000000	-1.000000	-1.000000	-1.000000	-1.000000	146.758621	0.000000	-1.000000	-1.000000	533662.000000	1772311727.044079
-20758.455000	-28273.455000	-27729.405000	-15043.095000	0.000000	0.000000	0.000000	0.000000	1.472166	-15.923843	3.599779	2.556675	0.000000	0.000000	-0.000000	0.000000	2.929920	-0.122080	-0.656180	-0.012451	0.982419	0.016724	-1.000000	-1.000000	-1.000000	-1.000000	-1.000000	-1.000000	-1.000000	146.758621	0.000000	-1.000000	-1.000000	533663.000000	1772311727.044082
-20752.020000	-28259.865000	-27724.095000	-15041.655000	0.000000	0.000000	0.000000	0.000000	-0.405459	-15.730706	1.144413	-0.212403	0.000000	0.000000	-0.000000	0.000000	2.929920	-0.122080	-0.656180	-0.012451	0.982419	0.016724	-1.000000	-1.000000	-1.000000	-1.000000	-1.000000	-1.000000	-1.000000	146.758621	0.000000	-1.000000	-1.000000	533664.000000	1772311727.048010
-20750.895000	-28244.790000	-27723.420000	-15038.910000	0.000000	0.000000	0.000000	0.000000	-1.228319	-6.020307	-1.074788	-2.480560	0.000000	0.000000	-0.000000	0.000000	2.929920	-0.122080	-0.656180	-0.012451	0.982419	0.016724	-1.000000	-1.000000	-1.000000	-1.000000	-1.000000	-1.000000	-1.000000	146.758621	0.000000	-1.000000	-1.000000	533665.000000	1772311727.048013
-20758.770000	-28239.390000	-27728.910000	-15037.695000	0.000000	0.000000	0.000000	0.000000	-1.420190	10.165859	-2.597228	-3.324261	0.000000	0.000000	-0.000000	0.000000	2.929920	-0.122080	-0.656180	-0.012451	0.982419	0.016724	-1.000000	-1.000000	-1.000000	-1.000000	-1.000000	-1.000000	-1.000000	146.758621	0.000000	-1.000000	-1.000000	533666.000000	1772311727.051940
-20765.070000	-28207.755000	-27736.245000	-15046.425000	0.000000	0.000000	0.000000	0.000000	-1.894239	24.461798	-3.566860	-2.719967	0.000000	0.000000	-0.000000	0.000000	2.929920	-0.122080	-0.656180	-0.012451	0.982419	0.016724	-1.000000	-1.000000	-1.000000	-1.000000	-1.000000	-1.000000	-1.000000	146.758621	0.000000	-1.000000	-1.000000	533667.000000	1772311727.051942
-20768.580000	-28174.185000	-27741.600000	-15053.805000	0.000000	0.000000	0.000000	0.000000	-3.008020	30.324978	-4.297398	-1.851062	0.000000	0.000000	-0.000000	0.000000	2.929920	-0.122080	-0.656180	-0.012451	0.982419	0.016724	-1.000000	-1.000000	-1.000000	-1.000000	-1.000000	-1.000000	-1.000000	146.758621	0.000000	-1.000000	-1.000000	533668.000000	1772311727.058614
-20759.175000	-28140.345000	-27730.665000	-15045.480000	0.000000	0.000000	0.000000	0.000000	-3.638070	26.712076	-4.201924	-1.462134	0.000000	0.000000	-0.000000	0.000000	2.929920	-0.122080	-0.656180	-0.012451	0.982419	0.016724	-1.000000	-1.000000	-1.000000	-1.000000	-1.000000	-1.000000	-1.000000	146.758621	0.000000	-1.000000	-1.000000	533669.000000	1772311727.058617
-20756.655000	-28124.730000	-27728.955000	-15043.680000	0.000000	0.000000	0.000000	0.000000	-2.211977	15.862112	-2.124647	-0.725718	0.000000	0.000000	-0.000000	0.000000	4.303320	-0.503580	-0.579880	-0.012268	0.982541	0.016357	-1.000000	-1.000000	-1.000000	-1.000000	-1.000000	-1.000000	-1.000000	146.758621	0.000000	-1.000000	-1.000000	533670.000000	1772311727.059954
-20766.870000	-28136.115000	-27739.395000	-15052.725000	0.000000	0.000000	0.000000	0.000000	0.979996	0.275123	1.505029	0.940289	0.000000	0.000000	-0.000000	0.000000	4.303320	-0.503580	-0.579880	-0.012268	0.982541	0.016357	-1.000000	-1.000000	-1.000000	-1.000000	-1.000000	-1.000000	-1.000000	146.758621	0.000000	-1.000000	-1.000000	533671.000000	1772311727.059957
-20768.985000	-28158.975000	-27740.385000	-15053.310000	0.000000	0.000000	0.000000	0.000000	3.498181	-17.727224	4.208384	2.396172	0.000000	0.000000	-0.000000	0.000000	4.303320	-0.503580	-0.579880	-0.012268	0.982541	0.016357	-1.000000	-1.000000	-1.000000	-1.000000	-1.000000	-1.000000	-1.000000	146.758621	0.000000	-1.000000	-1.000000	533672.000000	1772311727.064091
-20764.485000	-28155.555000	-27736.470000	-15049.170000	0.000000	0.000000	0.000000	0.000000	3.690217	-33.816662	4.390602	2.603500	0.000000	0.000000	-0.000000	0.000000	4.303320	-0.503580	-0.579880	-0.012268	0.982541	0.016357	-1.000000	-1.000000	-1.000000	-1.000000	-1.000000	-1.000000	-1.000000	146.758621	0.000000	-1.000000	-1.000000	533673.000000	1772311727.064094
-20759.895000	-28137.510000	-27732.870000	-15048.180000	0.000000	0.000000	0.000000	0.000000	2.458363	-40.765313	2.996819	2.056350	0.000000	0.000000	-0.000000	0.000000	4.303320	-0.503580	-0.579880	-0.012268	0.982541	0.016357	-1.000000	-1.000000	-1.000000	-1.000000	-1.000000	-1.000000	-1.000000	146.758621	0.000000	-1.000000	-1.000000	533674.000000	1772311727.067999
-20765.745000	-28098.045000	-27739.215000	-15056.865000	0.000000	0.000000	0.000000	0.000000	1.331563	-32.687553	1.537834	1.389261	0.000000	0.000000	-0.000000	0.000000	4.303320	-0.503580	-0.579880	-0.012268	0.982541	0.016357	-1.000000	-1.000000	-1.000000	-1.000000	-1.000000	-1.000000	-1.000000	146.758621	0.000000	-1.000000	-1.000000	533675.000000	1772311727.068002
-20777.715000	-28064.880000	-27750.825000	-15066.990000	0.000000	0.000000	0.000000	0.000000	0.290153	-10.841921	0.095287	0.205701	0.000000	0.000000	-0.000000	0.000000	4.303320	-0.503580	-0.579880	-0.012268	0.982541	0.016357	-1.000000	-1.000000	-1.000000	-1.000000	-1.000000	-1.000000	-1.000000	146.758621	0.000000	-1.000000	-1.000000	533676.000000	1772311727.072021
-20770.065000	-28086.435000	-27740.790000	-15053.445000	0.000000	0.000000	0.000000	0.000000	-1.266329	14.458390	-1.659713	-1.506466	0.000000	0.000000	-0.000000	0.000000	4.303320	-0.503580	-0.579880	-0.012268	0.982541	0.016357	-1.000000	-1.000000	-1.000000	-1.000000	-1.000000	-1.000000	-1.000000	146.758621	0.000000	-1.000000	-1.000000	533677.000000	1772311727.072023
-20765.430000	-28091.070000	-27732.645000	-15044.850000	0.000000	0.000000	0.000000	0.000000	-2.432791	29.030695	-2.565438	-2.049282	0.000000	0.000000	-0.000000	0.000000	4.303320	-0.503580	-0.579880	-0.012268	0.982541	0.016357	-1.000000	-1.000000	-1.000000	-1.000000	-1.000000	-1.000000	-1.000000	146.758621	0.000000	-1.000000	-1.000000	533678.000000	1772311727.076180
-20760.480000	-28080.900000	-27728.505000	-15042.420000	0.000000	0.000000	0.000000	0.000000	-1.724707	26.105701	-1.227385	-0.143099	0.000000	0.000000	-0.000000	0.000000	4.303320	-0.503580	-0.579880	-0.012268	0.982541	0.016357	-1.000000	-1.000000	-1.000000	-1.000000	-1.000000	-1.000000	-1.000000	146.758621	0.000000	-1.000000	-1.000000	533679.000000	1772311727.076183
-20768.310000	-28072.350000	-27737.730000	-15049.440000	0.000000	0.000000	0.000000	0.000000	0.452055	11.672401	1.366647	2.622452	0.000000	0.000000	-0.000000	0.000000	4.333840	-0.549360	-0.763000	-0.012573	0.982297	0.015076	-1.000000	-1.000000	-1.000000	-1.000000	-1.000000	-1.000000	-1.000000	146.758621	0.000000	-1.000000	-1.000000	533680.000000	1772311727.080067
-20779.650000	-28079.280000	-27747.675000	-15060.420000	0.000000	0.000000	0.000000	0.000000	1.794988	-3.187403	2.396338	3.190127	0.000000	0.000000	-0.000000	0.000000	4.333840	-0.549360	-0.763000	-0.012573	0.982297	0.015076	-1.000000	-1.000000	-1.000000	-1.000000	-1.000000	-1.000000	-1.000000	146.758621	0.000000	-1.000000	-1.000000	533681.000000	1772311727.080070
-20767.095000	-28072.530000	-27735.165000	-15047.235000	0.000000	0.000000	0.000000	0.000000	0.921646	-11.598491	0.669308	0.649403	0.000000	0.000000	-0.000000	0.000000	4.333840	-0.549360	-0.763000	-0.012573	0.982297	0.015076	-1.000000	-1.000000	-1.000000	-1.000000	-1.000000	-1.000000	-1.000000	146.758621	0.000000	-1.000000	-1.000000	533682.000000	1772311727.084195
-20765.565000	-28082.520000	-27735.615000	-15045.435000	0.000000	0.000000	0.000000	0.000000	-0.683478	-12.595699	-1.744500	-2.477473	0.000000	0.000000	-0.000000	0.000000	4.333840	-0.549360	-0.763000	-0.012573	0.982297	0.015076	-1.000000	-1.000000	-1.000000	-1.000000	-1.000000	-1.000000	-1.000000	146.758621	0.000000	-1.000000	-1.000000	533683.000000	1772311727.084197
-20765.520000	-28071.000000	-27736.380000	-15048.000000	0.000000	0.000000	0.000000	0.000000	-0.958832	-8.520656	-2.446005	-3.456133	0.000000	0.000000	-0.000000	0.000000	4.333840	-0.549360	-0.763000	-0.012573	0.982297	0.015076	-1.000000	-1.000000	-1.000000	-1.000000	-1.000000	-1.000000	-1.000000	146.758621	0.000000	-1.000000	-1.000000	533684.000000	1772311727.088116
-20765.520000	-28068.975000	-27734.850000	-15047.955000	0.000000	0.000000	0.000000	0.000000	0.016858	-2.262844	-1.406697	-2.338998	0.000000	0.000000	-0.000000	0.000000	4.333840	-0.549360	-0.763000	-0.012573	0.982297	0.015076	-1.000000	-1.000000	-1.000000	-1.000000	-1.000000	-1.000000	-1.000000	146.758621	0.000000	-1.000000	-1.000000	533685.000000	1772311727.088119
-20758.545000	-28110.375000	-27723.645000	-15039.990000	0.000000	0.000000	0.000000	0.000000	1.026592	3.009145	0.286214	-0.580084	0.000000	0.000000	-0.000000	0.000000	4.333840	-0.549360	-0.763000	-0.012573	0.982297	0.015076	-1.000000	-1.000000	-1.000000	-1.000000	-1.000000	-1.000000	-1.000000	146.758621	0.000000	-1.000000	-1.000000	533686.000000	1772311727.093410
-20768.265000	-28153.665000	-27735.210000	-15047.955000	0.000000	0.000000	0.000000	0.000000	1.287460	3.236715	1.745468	0.860833	0.000000	0.000000	-0.000000	0.000000	4.333840	-0.549360	-0.763000	-0.012573	0.982297	0.015076	-1.000000	-1.000000	-1.000000	-1.000000	-1.000000	-1.000000	-1.000000	146.758621	0.000000	-1.000000	-1.000000	533687.000000	1772311727.093414
-20766.060000	-28174.140000	-27733.680000	-15047.190000	0.000000	0.000000	0.000000	0.000000	0.441173	-2.668389	1.933668	1.317096	0.000000	0.000000	-0.000000	0.000000	4.333840	-0.549360	-0.763000	-0.012573	0.982297	0.015076	-1.000000	-1.000000	-1.000000	-1.000000	-1.000000	-1.000000	-1.000000	146.758621	0.000000	-1.000000	-1.000000	533688.000000	1772311727.096118
-20764.170000	-28158.975000	-27730.755000	-15046.920000	0.000000	0.000000	0.000000	0.000000	-1.094504	-8.894708	0.560614	0.629863	0.000000	0.000000	-0.000000	0.000000	4.333840	-0.549360	-0.763000	-0.012573	0.982297	0.015076	-1.000000	-1.000000	-1.000000	-1.000000	-1.000000	-1.000000	-1.000000	146.758621	0.000000	-1.000000	-1.000000	533689.000000	1772311727.096121
-20767.320000	-28137.195000	-27733.140000	-15046.065000	0.000000	0.000000	0.000000	0.000000	-2.157476	-6.961373	-1.163507	-0.389996	-0.000000	0.000000	-0.000000	0.000000	6.256600	-1.327620	-0.366240	-0.013611	0.981748	0.016540	-1.000000	-1.000000	-1.000000	-1.000000	-1.000000	-1.000000	-1.000000	146.758621	0.000000	-1.000000	-1.000000	533690.000000	1772311727.101673
-20767.185000	-28140.570000	-27732.330000	-15046.110000	0.000000	0.000000	0.000000	0.000000	-2.138328	5.065252	-2.025430	-0.833923	-0.000000	0.000000	-0.000000	0.000000	6.256600	-1.327620	-0.366240	-0.013611	0.981748	0.016540	-1.000000	-1.000000	-1.000000	-1.000000	-1.000000	-1.000000	-1.000000	146.758621	0.000000	-1.000000	-1.000000	533691.000000	1772311727.101676
-20764.485000	-28121.895000	-27726.165000	-15044.985000	0.000000	0.000000	0.000000	0.000000	-1.249186	19.741766	-1.690014	-0.505886	-0.000000	0.000000	-0.000000	0.000000	6.256600	-1.327620	-0.366240	-0.013611	0.981748	0.016540	-1.000000	-1.000000	-1.000000	-1.000000	-1.000000	-1.000000	-1.000000	146.758621	0.000000	-1.000000	-1.000000	533692.000000	1772311727.104187
-20762.640000	-28116.900000	-27722.655000	-15046.065000	0.000000	0.000000	0.000000	0.000000	0.144091	27.514643	-0.284906	0.206522	-0.000000	0.000000	-0.000000	0.000000	6.256600	-1.327620	-0.366240	-0.013611	0.981748	0.016540	-1.000000	-1.000000	-1.000000	-1.000000	-1.000000	-1.000000	-1.000000	146.758621	0.000000	-1.000000	-1.000000	533693.000000	1772311727.104191
-20757.195000	-28106.730000	-27716.220000	-15042.465000	0.000000	0.000000	0.000000	0.000000	1.638571	24.167304	1.608484	0.816130	-0.000000	0.000000	-0.000000	0.000000	6.256600	-1.327620	-0.366240	-0.013611	0.981748	0.016540	-1.000000	-1.000000	-1.000000	-1.000000	-1.000000	-1.000000	-1.000000	146.758621	0.000000	-1.000000	-1.000000	533694.000000	1772311727.108205
-20752.200000	-28135.395000	-27704.340000	-15025.905000	0.000000	0.000000	0.000000	0.000000	2.802793	11.242750	3.192524	1.406387	-0.000000	0.000000	-0.000000	0.000000	6.256600	-1.327620	-0.366240	-0.013611	0.981748	0.016540	-1.000000	-1.000000	-1.000000	-1.000000	-1.000000	-1.000000	-1.000000	146.758621	0.000000	-1.000000	-1.000000	533695.000000	1772311727.108208
-20751.840000	-28156.410000	-27699.750000	-15013.215000	0.000000	0.000000	0.000000	0.000000	3.202053	-6.816748	3.932445	2.619544	-0.000000	0.000000	-0.000000	0.000000	6.256600	-1.327620	-0.366240	-0.013611	0.981748	0.016540	-1.000000	-1.000000	-1.000000	-1.000000	-1.000000	-1.000000	-1.000000	146.758621	0.000000	-1.000000	-1.000000	533696.000000	1772311727.112092
-20735.820000	-28133.820000	-27684.945000	-15002.640000	0.000000	0.000000	0.000000	0.000000	2.680826	-23.129510	3.579535	4.343851	-0.000000	0.000000	-0.000000	0.000000	6.256600	-1.327620	-0.366240	-0.013611	0.981748	0.016540	-1.000000	-1.000000	-1.000000	-1.000000	-1.000000	-1.000000	-1.000000	146.758621	0.000000	-1.000000	-1.000000	533697.000000	1772311727.112095
-20767.995000	-28081.080000	-27716.220000	-15031.530000	0.000000	0.000000	0.000000	0.000000	1.119911	-28.542965	1.593940	4.493338	-0.000000	0.000000	-0.000000	0.000000	6.256600	-1.327620	-0.366240	-0.013611	0.981748	0.016540	-1.000000	-1.000000	-1.000000	-1.000000	-1.000000	-1.000000	-1.000000	146.758621	0.000000	-1.000000	-1.000000	533698.000000	1772311727.116218
-20778.795000	-28072.575000	-27731.790000	-15050.610000	0.000000	0.000000	0.000000	0.000000	-2.357950	-18.325463	-3.124203	0.216257	-0.000000	0.000000	-0.000000	0.000000	6.256600	-1.327620	-0.366240	-0.013611	0.981748	0.016540	-1.000000	-1.000000	-1.000000	-1.000000	-1.000000	-1.000000	-1.000000	146.758621	0.000000	-1.000000	-1.000000	533699.000000	1772311727.116222
-20769.120000	-28060.740000	-27726.300000	-15046.515000	0.000000	0.000000	0.000000	0.000000	-7.073056	0.776278	-9.538598	-7.800257	-0.000000	0.000000	-0.000000	0.000000	7.996240	-1.220800	0.518840	-0.012573	0.983762	0.015991	-1.000000	-1.000000	-1.000000	-1.000000	-1.000000	-1.000000	-1.000000	146.758621	0.000000	-1.000000	-1.000000	533700.000000	1772311727.120290
-20765.790000	-28026.990000	-27726.345000	-15049.665000	0.000000	0.000000	0.000000	0.000000	-9.095389	16.112866	-12.960748	-13.884769	-0.000000	0.000000	-0.000000	0.000000	7.996240	-1.220800	0.518840	-0.012573	0.983762	0.015991	-1.000000	-1.000000	-1.000000	-1.000000	-1.000000	-1.000000	-1.000000	146.758621	0.000000	-1.000000	-1.000000	533701.000000	1772311727.120336
-20768.850000	-27972.495000	-27733.275000	-15061.590000	0.000000	0.000000	0.000000	0.000000	-5.731438	21.231677	-9.878514	-13.138321	-0.000000	0.000000	-0.000000	0.000000	7.996240	-1.220800	0.518840	-0.012573	0.983762	0.015991	-1.000000	-1.000000	-1.000000	-1.000000	-1.000000	-1.000000	-1.000000	146.758621	0.000000	-1.000000	-1.000000	533702.000000	1772311727.124404
-20789.910000	-27934.740000	-27750.735000	-15075.900000	0.000000	0.000000	0.000000	0.000000	0.571367	18.286583	-2.271801	-6.481370	-0.000000	0.000000	-0.000000	0.000000	7.996240	-1.220800	0.518840	-0.012573	0.983762	0.015991	-1.000000	-1.000000	-1.000000	-1.000000	-1.000000	-1.000000	-1.000000	146.758621	0.000000	-1.000000	-1.000000	533703.000000	1772311727.124422
-20793.780000	-27913.005000	-27754.380000	-15075.630000	0.000000	0.000000	0.000000	0.000000	4.942799	11.134977	4.843254	1.640423	-0.000000	0.000000	-0.000000	0.000000	7.996240	-1.220800	0.518840	-0.012573	0.983762	0.015991	-1.000000	-1.000000	-1.000000	-1.000000	-1.000000	-1.000000	-1.000000	146.758621	0.000000	-1.000000	-1.000000	533704.000000	1772311727.130236
-20791.845000	-27899.865000	-27759.915000	-15078.420000	0.000000	0.000000	0.000000	0.000000	5.406249	1.112123	8.392028	7.930820	-0.000000	0.000000	-0.000000	0.000000	7.996240	-1.220800	0.518840	-0.012573	0.983762	0.015991	-1.000000	-1.000000	-1.000000	-1.000000	-1.000000	-1.000000	-1.000000	146.758621	0.000000	-1.000000	-1.000000	533705.000000	1772311727.130242
-20784.015000	-27876.555000	-27754.245000	-15073.965000	0.000000	0.000000	0.000000	0.000000	4.094623	-10.610808	8.776893	11.421377	-0.000000	0.000000	-0.000000	0.000000	7.996240	-1.220800	0.518840	-0.012573	0.983762	0.015991	-1.000000	-1.000000	-1.000000	-1.000000	-1.000000	-1.000000	-1.000000	146.758621	0.000000	-1.000000	-1.000000	533706.000000	1772311727.132257
-20770.245000	-27864.180000	-27742.185000	-15069.465000	0.000000	0.000000	0.000000	0.000000	3.893494	-20.547592	8.076676	12.265621	-0.000000	0.000000	-0.000000	0.000000	7.996240	-1.220800	0.518840	-0.012573	0.983762	0.015991	-1.000000	-1.000000	-1.000000	-1.000000	-1.000000	-1.000000	-1.000000	146.758621	0.000000	-1.000000	-1.000000	533707.000000	1772311727.132260
-20777.760000	-27852.030000	-27752.490000	-15078.510000	0.000000	0.000000	0.000000	0.000000	5.201082	-24.853151	7.477232	10.629591	-0.000000	0.000000	-0.000000	0.000000	7.996240	-1.220800	0.518840	-0.012573	0.983762	0.015991	-1.000000	-1.000000	-1.000000	-1.000000	-1.000000	-1.000000	-1.000000	146.758621	0.000000	-1.000000	-1.000000	533708.000000	1772311727.136230
-20773.665000	-27862.470000	-27749.025000	-15080.130000	0.000000	0.000000	0.000000	0.000000	5.753297	-22.602442	6.046564	6.430412	-0.000000	0.000000	-0.000000	0.000000	7.996240	-1.220800	0.518840	-0.012573	0.983762	0.015991	-1.000000	-1.000000	-1.000000	-1.000000	-1.000000	-1.000000	-1.000000	146.758621	0.000000	-1.000000	-1.000000	533709.000000	1772311727.136233
-20776.500000	-27867.015000	-27736.065000	-15044.940000	0.000000	0.000000	0.000000	0.000000	3.546834	-16.182236	2.972471	1.123794	-0.000000	0.000000	-0.000000	0.000000	10.376800	-1.159760	3.830260	-0.016296	0.992734	0.013489	-1.000000	-1.000000	-1.000000	-1.000000	-1.000000	-1.000000	-1.000000	146.758621	0.000000	-1.000000	-1.000000	533710.000000	1772311727.140358
-20799.315000	-27880.290000	-27748.395000	-15028.740000	0.000000	0.000000	0.000000	0.000000	-1.307087	-8.742994	-0.770354	-1.771844	-0.000000	0.000000	-0.000000	0.000000	10.376800	-1.159760	3.830260	-0.016296	0.992734	0.013489	-1.000000	-1.000000	-1.000000	-1.000000	-1.000000	-1.000000	-1.000000	146.758621	0.000000	-1.000000	-1.000000	533711.000000	1772311727.140362
-20811.780000	-27900.765000	-27738.450000	-14997.195000	0.000000	0.000000	0.000000	0.000000	-7.456072	-2.211960	-4.090507	-0.457316	-0.000000	0.000000	-0.000000	0.000000	10.376800	-1.159760	3.830260	-0.016296	0.992734	0.013489	-1.000000	-1.000000	-1.000000	-1.000000	-1.000000	-1.000000	-1.000000	146.758621	0.000000	-1.000000	-1.000000	533712.000000	1772311727.144190
-20778.885000	-27900.045000	-27723.465000	-15014.565000	0.000000	0.000000	0.000000	0.000000	-11.724113	2.971579	-5.985742	2.290682	-0.000000	0.000000	-0.000000	0.000000	10.376800	-1.159760	3.830260	-0.016296	0.992734	0.013489	-1.000000	-1.000000	-1.000000	-1.000000	-1.000000	-1.000000	-1.000000	146.758621	0.000000	-1.000000	-1.000000	533713.000000	1772311727.144193
-20749.455000	-27916.020000	-27747.630000	-15098.220000	0.000000	0.000000	0.000000	0.000000	-9.293345	7.509957	-5.801313	-0.103613	-0.000000	0.000000	-0.000000	0.000000	10.376800	-1.159760	3.830260	-0.016296	0.992734	0.013489	-1.000000	-1.000000	-1.000000	-1.000000	-1.000000	-1.000000	-1.000000	146.758621	0.000000	-1.000000	-1.000000	533714.000000	1772311727.148337
-20758.950000	-27909.765000	-27732.015000	-15058.395000	0.000000	0.000000	0.000000	0.000000	0.453562	11.896658	-4.710681	-11.095587	-0.000000	0.000000	-0.000000	0.000000	10.376800	-1.159760	3.830260	-0.016296	0.992734	0.013489	-1.000000	-1.000000	-1.000000	-1.000000	-1.000000	-1.000000	-1.000000	146.758621	0.000000	-1.000000	-1.000000	533715.000000	1772311727.148340
-20806.650000	-27914.490000	-27747.090000	-15039.225000	0.000000	0.000000	0.000000	0.000000	9.658237	15.580510	-3.922941	-22.276839	-0.000000	0.000000	-0.000000	0.000000	10.376800	-1.159760	3.830260	-0.016296	0.992734	0.013489	-1.000000	-1.000000	-1.000000	-1.000000	-1.000000	-1.000000	-1.000000	146.758621	0.000000	-1.000000	-1.000000	533716.000000	1772311727.152245
-20805.030000	-27925.695000	-27761.940000	-15070.545000	0.000000	0.000000	0.000000	0.000000	9.263059	17.114638	-3.598820	-21.821211	-0.000000	0.000000	-0.000000	0.000000	10.376800	-1.159760	3.830260	-0.016296	0.992734	0.013489	-1.000000	-1.000000	-1.000000	-1.000000	-1.000000	-1.000000	-1.000000	146.758621	0.000000	-1.000000	-1.000000	533717.000000	1772311727.152248
-20774.790000	-27917.955000	-27749.025000	-15084.090000	0.000000	0.000000	0.000000	0.000000	0.622532	15.102296	-3.465399	-10.273221	-0.000000	0.000000	-0.000000	0.000000	10.376800	-1.159760	3.830260	-0.016296	0.992734	0.013489	-1.000000	-1.000000	-1.000000	-1.000000	-1.000000	-1.000000	-1.000000	146.758621	0.000000	-1.000000	-1.000000	533718.000000	1772311727.156421
-20768.220000	-27898.740000	-27748.215000	-15096.150000	0.000000	0.000000	0.000000	0.000000	-6.102504	10.440551	-2.057155	2.790733	-0.000000	0.000000	-0.000000	0.000000	10.376800	-1.159760	3.830260	-0.016296	0.992734	0.013489	-1.000000	-1.000000	-1.000000	-1.000000	-1.000000	-1.000000	-1.000000	146.758621	0.000000	-1.000000	-1.000000	533719.000000	1772311727.156424
-20782.935000	-27867.330000	-27752.895000	-15090.975000	0.000000	0.000000	0.000000	0.000000	-5.191415	6.308118	1.466691	11.049220	-0.000000	0.000000	-0.000000	0.000000	17.793160	-3.280900	8.896580	-0.019958	0.999387	0.024109	-1.000000	-1.000000	-1.000000	-1.000000	-1.000000	-1.000000	-1.000000	146.758621	0.000000	-1.000000	-1.000000	533720.000000	1772311727.160344
-20778.705000	-27883.305000	-27746.865000	-15082.245000	0.000000	0.000000	0.000000	0.000000	-0.276498	4.155799	5.375142	14.449926	-0.000000	0.000000	-0.000000	0.000000	17.793160	-3.280900	8.896580	-0.019958	0.999387	0.024109	-1.000000	-1.000000	-1.000000	-1.000000	-1.000000	-1.000000	-1.000000	146.758621	0.000000	-1.000000	-1.000000	533721.000000	1772311727.160348
-20719.980000	-27921.375000	-27701.370000	-15066.315000	0.000000	0.000000	0.000000	0.000000	4.164572	0.661095	8.285710	15.462629	-0.000000	0.000000	-0.000000	0.000000	17.793160	-3.280900	8.896580	-0.019958	0.999387	0.024109	-1.000000	-1.000000	-1.000000	-1.000000	-1.000000	-1.000000	-1.000000	146.758621	0.000000	-1.000000	-1.000000	533722.000000	1772311727.165622
-20679.795000	-27919.755000	-27659.790000	-15081.255000	0.000000	0.000000	0.000000	0.000000	8.791999	-7.739663	11.395444	14.936891	-0.000000	0.000000	-0.000000	0.000000	17.793160	-3.280900	8.896580	-0.019958	0.999387	0.024109	-1.000000	-1.000000	-1.000000	-1.000000	-1.000000	-1.000000	-1.000000	146.758621	0.000000	-1.000000	-1.000000	533723.000000	1772311727.165625
-20670.435000	-27909.045000	-27636.705000	-15069.465000	0.000000	0.000000	0.000000	0.000000	13.891433	-17.494445	14.985537	11.471643	-0.000000	0.000000	-0.000000	0.000000	17.793160	-3.280900	8.896580	-0.019958	0.999387	0.024109	-1.000000	-1.000000	-1.000000	-1.000000	-1.000000	-1.000000	-1.000000	146.758621	0.000000	-1.000000	-1.000000	533724.000000	1772311727.168334
-20714.535000	-27904.365000	-27677.070000	-15082.875000	0.000000	0.000000	0.000000	0.000000	13.778260	-20.571888	14.467531	4.532642	-0.000000	0.000000	-0.000000	0.000000	17.793160	-3.280900	8.896580	-0.019958	0.999387	0.024109	-1.000000	-1.000000	-1.000000	-1.000000	-1.000000	-1.000000	-1.000000	146.758621	0.000000	-1.000000	-1.000000	533725.000000	1772311727.168337
-20758.770000	-27883.575000	-27720.450000	-15097.680000	0.000000	0.000000	0.000000	0.000000	1.882548	-13.493132	3.439000	-4.246020	-0.000000	0.000000	-0.000000	0.000000	17.793160	-3.280900	8.896580	-0.019958	0.999387	0.024109	-1.000000	-1.000000	-1.000000	-1.000000	-1.000000	-1.000000	-1.000000	146.758621	0.000000	-1.000000	-1.000000	533726.000000	1772311727.174331
-20817.495000	-27838.440000	-27764.595000	-15101.865000	0.000000	0.000000	0.000000	0.000000	-20.116947	0.656727	-17.774314	-12.241575	-0.000000	0.000000	-0.000000	0.000000	17.793160	-3.280900	8.896580	-0.019958	0.999387	0.024109	-1.000000	-1.000000	-1.000000	-1.000000	-1.000000	-1.000000	-1.000000	146.758621	0.000000	-1.000000	-1.000000	533727.000000	1772311727.174334
-20833.065000	-27819.450000	-27760.185000	-15061.680000	0.000000	0.000000	0.000000	0.000000	-40.658735	15.740637	-38.215799	-15.565668	-0.000000	0.000000	-0.000000	0.000000	17.793160	-3.280900	8.896580	-0.019958	0.999387	0.024109	-1.000000	-1.000000	-1.000000	-1.000000	-1.000000	-1.000000	-1.000000	146.758621	0.000000	-1.000000	-1.000000	533728.000000	1772311727.176295
-20816.955000	-27853.605000	-27732.510000	-15012.720000	0.000000	0.000000	0.000000	0.000000	-45.264926	23.812063	-42.869970	-10.021100	-0.000000	0.000000	-0.000000	0.000000	17.793160	-3.280900	8.896580	-0.019958	0.999387	0.024109	-1.000000	-1.000000	-1.000000	-1.000000	-1.000000	-1.000000	-1.000000	146.758621	0.000000	-1.000000	-1.000000	533729.000000	1772311727.176300
-20824.740000	-27885.555000	-27724.680000	-14987.250000	0.000000	0.000000	0.000000	0.000000	-27.237360	17.698923	-25.068923	3.819907	-0.000000	0.000000	-0.000000	0.000000	26.354020	-7.553700	11.490780	-0.028198	0.967466	0.037170	-1.000000	-1.000000	-1.000000	-1.000000	-1.000000	-1.000000	-1.000000	146.758621	0.000000	-1.000000	-1.000000	533730.000000	1772311727.180495
-20808.630000	-27893.970000	-27705.105000	-14943.555000	0.000000	0.000000	0.000000	0.000000	5.762833	-1.486326	6.674215	18.289760	-0.000000	0.000000	-0.000000	0.000000	26.354020	-7.553700	11.490780	-0.028198	0.967466	0.037170	-1.000000	-1.000000	-1.000000	-1.000000	-1.000000	-1.000000	-1.000000	146.758621	0.000000	-1.000000	-1.000000	533731.000000	1772311727.180499
-20782.080000	-27915.705000	-27690.885000	-14932.170000	0.000000	0.000000	0.000000	0.000000	37.606644	-22.345272	35.338523	24.235285	-0.000000	0.000000	-0.000000	0.000000	26.354020	-7.553700	11.490780	-0.028198	0.967466	0.037170	-1.000000	-1.000000	-1.000000	-1.000000	-1.000000	-1.000000	-1.000000	146.758621	0.000000	-1.000000	-1.000000	533732.000000	1772311727.184359
-20768.895000	-27940.770000	-27705.195000	-14968.980000	0.000000	0.000000	0.000000	0.000000	55.053983	-32.674364	47.232079	16.574788	-0.000000	0.000000	-0.000000	0.000000	26.354020	-7.553700	11.490780	-0.028198	0.967466	0.037170	-1.000000	-1.000000	-1.000000	-1.000000	-1.000000	-1.000000	-1.000000	146.758621	0.000000	-1.000000	-1.000000	533733.000000	1772311727.184363
-20754.000000	-27983.340000	-27768.240000	-15142.005000	0.000000	0.000000	0.000000	0.000000	52.846301	-28.877259	37.170851	-6.523245	-0.000000	0.000000	-0.000000	0.000000	26.354020	-7.553700	11.490780	-0.028198	0.967466	0.037170	-1.000000	-1.000000	-1.000000	-1.000000	-1.000000	-1.000000	-1.000000	146.758621	0.000000	-1.000000	-1.000000	533734.000000	1772311727.188377
-20734.470000	-28012.320000	-27733.635000	-15140.205000	0.000000	0.000000	0.000000	0.000000	33.939901	-15.757541	10.508408	-40.355239	-0.000000	0.000000	-0.000000	0.000000	26.354020	-7.553700	11.490780	-0.028198	0.967466	0.037170	-1.000000	-1.000000	-1.000000	-1.000000	-1.000000	-1.000000	-1.000000	146.758621	0.000000	-1.000000	-1.000000	533735.000000	1772311727.188380
-20647.890000	-28023.975000	-27635.265000	-15060.915000	0.000000	0.000000	0.000000	0.000000	8.665165	-0.037804	-15.094685	-64.096207	-0.000000	0.000000	-0.000000	0.000000	26.354020	-7.553700	11.490780	-0.028198	0.967466	0.037170	-1.000000	-1.000000	-1.000000	-1.000000	-1.000000	-1.000000	-1.000000	146.758621	0.000000	-1.000000	-1.000000	533736.000000	1772311727.192527
-20604.645000	-28007.505000	-27573.750000	-15052.365000	0.000000	0.000000	0.000000	0.000000	-10.247705	14.666898	-20.463559	-52.844380	-0.000000	0.000000	-0.000000	0.000000	26.354020	-7.553700	11.490780	-0.028198	0.967466	0.037170	-1.000000	-1.000000	-1.000000	-1.000000	-1.000000	-1.000000	-1.000000	146.758621	0.000000	-1.000000	-1.000000	533737.000000	1772311727.192530
-20670.165000	-27994.275000	-27639.270000	-15137.595000	0.000000	0.000000	0.000000	0.000000	-19.164708	27.254357	-6.046865	-9.330626	-0.000000	0.000000	-0.000000	0.000000	26.354020	-7.553700	11.490780	-0.028198	0.967466	0.037170	-1.000000	-1.000000	-1.000000	-1.000000	-1.000000	-1.000000	-1.000000	146.758621	0.000000	-1.000000	-1.000000	533738.000000	1772311727.196494
-20694.915000	-27964.395000	-27655.830000	-15132.555000	0.000000	0.000000	0.000000	0.000000	-26.669543	35.934937	6.816617	35.272063	-0.000000	0.000000	-0.000000	0.000000	26.354020	-7.553700	11.490780	-0.028198	0.967466	0.037170	-1.000000	-1.000000	-1.000000	-1.000000	-1.000000	-1.000000	-1.000000	146.758621	0.000000	-1.000000	-1.000000	533739.000000	1772311727.196497
-20711.205000	-27962.640000	-27668.115000	-15064.470000	0.000000	0.000000	0.000000	0.000000	-38.306013	37.403676	1.790683	56.819917	-0.000000	0.000000	-0.000000	0.000000	40.759460	-9.583280	17.854200	-0.027832	0.973447	0.043762	-1.000000	-1.000000	-1.000000	-1.000000	-1.000000	-1.000000	-1.000000	146.758621	0.000000	-1.000000	-1.000000	533740.000000	1772311727.200524
-20796.390000	-27942.840000	-27797.805000	-15156.585000	0.000000	0.000000	0.000000	0.000000	-48.094085	29.065021	-17.934543	54.396987	-0.000000	0.000000	-0.000000	0.000000	40.759460	-9.583280	17.854200	-0.027832	0.973447	0.043762	-1.000000	-1.000000	-1.000000	-1.000000	-1.000000	-1.000000	-1.000000	146.758621	0.000000	-1.000000	-1.000000	533741.000000	1772311727.200528
-20846.520000	-27934.965000	-27824.580000	-15161.490000	0.000000	0.000000	0.000000	0.000000	-48.568900	12.219988	-39.915725	34.738547	-0.000000	0.000000	-0.000000	0.000000	40.759460	-9.583280	17.854200	-0.027832	0.973447	0.043762	-1.000000	-1.000000	-1.000000	-1.000000	-1.000000	-1.000000	-1.000000	146.758621	0.000000	-1.000000	-1.000000	533742.000000	1772311727.204513
-20817.945000	-27933.165000	-27771.975000	-15104.745000	0.000000	0.000000	0.000000	0.000000	-35.819464	-7.692271	-48.653098	7.274795	-0.000000	0.000000	-0.000000	0.000000	40.759460	-9.583280	17.854200	-0.027832	0.973447	0.043762	-1.000000	-1.000000	-1.000000	-1.000000	-1.000000	-1.000000	-1.000000	146.758621	0.000000	-1.000000	-1.000000	533743.000000	1772311727.204516
-20781.405000	-27931.545000	-27748.080000	-15107.625000	0.000000	0.000000	0.000000	0.000000	-7.445642	-24.370410	-30.545660	-13.020405	-0.000000	0.000000	-0.000000	0.000000	40.759460	-9.583280	17.854200	-0.027832	0.973447	0.043762	-1.000000	-1.000000	-1.000000	-1.000000	-1.000000	-1.000000	-1.000000	146.758621	0.000000	-1.000000	-1.000000	533744.000000	1772311727.208939
-20766.240000	-27928.980000	-27751.770000	-15146.910000	0.000000	0.000000	0.000000	0.000000	31.618332	-33.258083	10.411127	-18.953016	-0.000000	0.000000	-0.000000	0.000000	40.759460	-9.583280	17.854200	-0.027832	0.973447	0.043762	-1.000000	-1.000000	-1.000000	-1.000000	-1.000000	-1.000000	-1.000000	146.758621	0.000000	-1.000000	-1.000000	533745.000000	1772311727.208942
-20698.290000	-27913.905000	-27666.180000	-15104.565000	0.000000	0.000000	0.000000	0.000000	66.319925	-32.361777	52.380899	-16.306976	-0.000000	0.000000	-0.000000	0.000000	40.759460	-9.583280	17.854200	-0.027832	0.973447	0.043762	-1.000000	-1.000000	-1.000000	-1.000000	-1.000000	-1.000000	-1.000000	146.758621	0.000000	-1.000000	-1.000000	533746.000000	1772311727.212601
-20652.390000	-27909.225000	-27601.695000	-15040.080000	0.000000	0.000000	0.000000	0.000000	81.889321	-22.724032	76.059763	-9.999527	-0.000000	0.000000	-0.000000	0.000000	40.759460	-9.583280	17.854200	-0.027832	0.973447	0.043762	-1.000000	-1.000000	-1.000000	-1.000000	-1.000000	-1.000000	-1.000000	146.758621	0.000000	-1.000000	-1.000000	533747.000000	1772311727.212604
-20692.170000	-27940.005000	-27659.115000	-15103.305000	0.000000	0.000000	0.000000	0.000000	71.288279	-9.205897	73.153680	-1.304467	-0.000000	0.000000	-0.000000	0.000000	40.759460	-9.583280	17.854200	-0.027832	0.973447	0.043762	-1.000000	-1.000000	-1.000000	-1.000000	-1.000000	-1.000000	-1.000000	146.758621	0.000000	-1.000000	-1.000000	533748.000000	1772311727.216387
-20665.710000	-27963.405000	-27660.330000	-15149.565000	0.000000	0.000000	0.000000	0.000000	35.838477	1.006492	42.105192	2.670755	-0.000000	0.000000	-0.000000	0.000000	40.759460	-9.583280	17.854200	-0.027832	0.973447	0.043762	-1.000000	-1.000000	-1.000000	-1.000000	-1.000000	-1.000000	-1.000000	146.758621	0.000000	-1.000000	-1.000000	533749.000000	1772311727.216390
-20561.265000	-27968.130000	-27534.690000	-15022.890000	0.000000	0.000000	0.000000	0.000000	-9.728882	4.214420	-4.763518	-2.376059	-0.000000	0.000000	-0.000000	0.000000	45.993640	-11.582340	24.492300	-0.031555	1.007810	0.011230	-1.000000	-1.000000	-1.000000	-1.000000	-1.000000	-1.000000	-1.000000	146.758621	0.000000	-1.000000	-1.000000	533750.000000	1772311727.220734
-20403.945000	-27982.215000	-27313.560000	-14828.715000	0.000000	0.000000	0.000000	0.000000	-39.696759	3.266311	-37.575712	-3.032175	-0.000000	0.000000	-0.000000	0.000000	45.993640	-11.582340	24.492300	-0.031555	1.007810	0.011230	-1.000000	-1.000000	-1.000000	-1.000000	-1.000000	-1.000000	-1.000000	146.758621	0.000000	-1.000000	-1.000000	533751.000000	1772311727.220736
-20445.030000	-28013.580000	-27439.065000	-14944.680000	0.000000	0.000000	0.000000	0.000000	-40.226516	2.589852	-37.330244	12.073154	-0.000000	0.000000	-0.000000	0.000000	45.993640	-11.582340	24.492300	-0.031555	1.007810	0.011230	-1.000000	-1.000000	-1.000000	-1.000000	-1.000000	-1.000000	-1.000000	146.758621	0.000000	-1.000000	-1.000000	533752.000000	1772311727.224493
-20689.920000	-28064.520000	-27709.155000	-15171.390000	0.000000	0.000000	0.000000	0.000000	-30.208534	2.692084	-27.167601	21.810058	-0.000000	0.000000	-0.000000	0.000000	45.993640	-11.582340	24.492300	-0.031555	1.007810	0.011230	-1.000000	-1.000000	-1.000000	-1.000000	-1.000000	-1.000000	-1.000000	146.758621	0.000000	-1.000000	-1.000000	533753.000000	1772311727.224496
-20683.035000	-28073.430000	-27600.165000	-15060.015000	0.000000	0.000000	0.000000	0.000000	-39.810583	1.986831	-41.226190	-0.865345	-0.000000	0.000000	-0.000000	0.000000	45.993640	-11.582340	24.492300	-0.031555	1.007810	0.011230	-1.000000	-1.000000	-1.000000	-1.000000	-1.000000	-1.000000	-1.000000	146.758621	0.000000	-1.000000	-1.000000	533754.000000	1772311727.228597
-20693.520000	-28033.920000	-27642.060000	-15167.205000	0.000000	0.000000	0.000000	0.000000	-65.118457	2.559807	-68.508486	-41.856160	-0.000000	0.000000	-0.000000	0.000000	45.993640	-11.582340	24.492300	-0.031555	1.007810	0.011230	-1.000000	-1.000000	-1.000000	-1.000000	-1.000000	-1.000000	-1.000000	146.758621	0.000000	-1.000000	-1.000000	533755.000000	1772311727.228600
-20652.480000	-27983.070000	-27613.845000	-15220.665000	0.000000	0.000000	0.000000	0.000000	-71.398585	9.658731	-70.458870	-65.759016	-0.000000	0.000000	-0.000000	0.000000	45.993640	-11.582340	24.492300	-0.031555	1.007810	0.011230	-1.000000	-1.000000	-1.000000	-1.000000	-1.000000	-1.000000	-1.000000	146.758621	0.000000	-1.000000	-1.000000	533756.000000	1772311727.232527
-20550.150000	-27956.880000	-27499.680000	-15043.680000	0.000000	0.000000	0.000000	0.000000	-36.484415	23.383911	-31.617688	-54.278984	-0.000000	0.000000	-0.000000	0.000000	45.993640	-11.582340	24.492300	-0.031555	1.007810	0.011230	-1.000000	-1.000000	-1.000000	-1.000000	-1.000000	-1.000000	-1.000000	146.758621	0.000000	-1.000000	-1.000000	533757.000000	1772311727.232530
-20566.710000	-27952.110000	-27489.510000	-14930.955000	0.000000	0.000000	0.000000	0.000000	27.812636	34.507394	32.145483	-5.814488	-0.000000	0.000000	-0.000000	0.000000	45.993640	-11.582340	24.492300	-0.031555	1.007810	0.011230	-1.000000	-1.000000	-1.000000	-1.000000	-1.000000	-1.000000	-1.000000	146.758621	0.000000	-1.000000	-1.000000	533758.000000	1772311727.236649
-20666.340000	-27969.480000	-27583.380000	-15025.680000	0.000000	0.000000	0.000000	0.000000	83.262946	31.516374	85.415856	59.198667	-0.000000	0.000000	-0.000000	0.000000	45.993640	-11.582340	24.492300	-0.031555	1.007810	0.011230	-1.000000	-1.000000	-1.000000	-1.000000	-1.000000	-1.000000	-1.000000	146.758621	0.000000	-1.000000	-1.000000	533759.000000	1772311727.236652
-20643.120000	-27975.510000	-27656.415000	-15126.615000	0.000000	0.000000	0.000000	0.000000	94.506814	11.301244	93.494384	95.817438	-0.000000	0.000000	-0.000000	0.000000	35.784700	-11.078760	26.079340	-0.022217	1.078061	-0.024231	-1.000000	-1.000000	-1.000000	-1.000000	-1.000000	-1.000000	-1.000000	146.758621	0.000000	-1.000000	-1.000000	533760.000000	1772311727.240559
-20679.030000	-27976.005000	-27717.705000	-15152.805000	0.000000	0.000000	0.000000	0.000000	60.283434	-17.122401	51.135641	73.592230	-0.000000	0.000000	-0.000000	0.000000	35.784700	-11.078760	26.079340	-0.022217	1.078061	-0.024231	-1.000000	-1.000000	-1.000000	-1.000000	-1.000000	-1.000000	-1.000000	146.758621	0.000000	-1.000000	-1.000000	533761.000000	1772311727.240562
-20699.865000	-27962.370000	-27708.255000	-15080.535000	0.000000	0.000000	0.000000	0.000000	8.275621	-38.814582	-11.638023	11.356980	-0.000000	0.000000	-0.000000	0.000000	35.784700	-11.078760	26.079340	-0.022217	1.078061	-0.024231	-1.000000	-1.000000	-1.000000	-1.000000	-1.000000	-1.000000	-1.000000	146.758621	0.000000	-1.000000	-1.000000	533762.000000	1772311727.244569
-20826.540000	-27957.240000	-27780.615000	-15113.430000	0.000000	0.000000	0.000000	0.000000	-34.884343	-43.318214	-55.670088	-43.345491	-0.000000	0.000000	-0.000000	0.000000	35.784700	-11.078760	26.079340	-0.022217	1.078061	-0.024231	-1.000000	-1.000000	-1.000000	-1.000000	-1.000000	-1.000000	-1.000000	146.758621	0.000000	-1.000000	-1.000000	533763.000000	1772311727.244572
-20723.040000	-27939.195000	-27655.560000	-15099.075000	0.000000	0.000000	0.000000	0.000000	-55.777197	-30.567189	-59.802247	-60.742214	-0.000000	0.000000	-0.000000	0.000000	35.784700	-11.078760	26.079340	-0.022217	1.078061	-0.024231	-1.000000	-1.000000	-1.000000	-1.000000	-1.000000	-1.000000	-1.000000	146.758621	0.000000	-1.000000	-1.000000	533764.000000	1772311727.248617
-20501.145000	-27925.965000	-27476.010000	-15107.715000	0.000000	0.000000	0.000000	0.000000	-43.730697	-8.764975	-23.130052	-44.264659	-0.000000	0.000000	-0.000000	0.000000	35.784700	-11.078760	26.079340	-0.022217	1.078061	-0.024231	-1.000000	-1.000000	-1.000000	-1.000000	-1.000000	-1.000000	-1.000000	146.758621	0.000000	-1.000000	-1.000000	533765.000000	1772311727.248620
-20314.620000	-27919.350000	-27330.885000	-15115.545000	0.000000	0.000000	0.000000	0.000000	6.449666	11.568837	39.593727	-13.922275	-0.000000	0.000000	-0.000000	0.000000	35.784700	-11.078760	26.079340	-0.022217	1.078061	-0.024231	-1.000000	-1.000000	-1.000000	-1.000000	-1.000000	-1.000000	-1.000000	146.758621	0.000000	-1.000000	-1.000000	533766.000000	1772311727.252667
-20097.405000	-27909.855000	-27193.005000	-15011.370000	0.000000	0.000000	0.000000	0.000000	75.276826	22.653485	97.268250	13.291536	-0.000000	0.000000	-0.000000	0.000000	35.784700	-11.078760	26.079340	-0.022217	1.078061	-0.024231	-1.000000	-1.000000	-1.000000	-1.000000	-1.000000	-1.000000	-1.000000	146.758621	0.000000	-1.000000	-1.000000	533767.000000	1772311727.252670
-20178.090000	-27902.520000	-27311.310000	-14988.645000	0.000000	0.000000	0.000000	0.000000	118.966571	22.374401	112.459630	31.764129	-0.000000	0.000000	-0.000000	0.000000	35.784700	-11.078760	26.079340	-0.022217	1.078061	-0.024231	-1.000000	-1.000000	-1.000000	-1.000000	-1.000000	-1.000000	-1.000000	146.758621	0.000000	-1.000000	-1.000000	533768.000000	1772311727.256630
-20614.095000	-27902.655000	-27575.415000	-15090.030000	0.000000	0.000000	0.000000	0.000000	89.222988	13.830858	59.245159	37.645605	-0.000000	0.000000	-0.000000	0.000000	35.784700	-11.078760	26.079340	-0.022217	1.078061	-0.024231	-1.000000	-1.000000	-1.000000	-1.000000	-1.000000	-1.000000	-1.000000	146.758621	0.000000	-1.000000	-1.000000	533769.000000	1772311727.256635
-20850.480000	-27900.855000	-27856.710000	-15217.155000	0.000000	0.000000	0.000000	0.000000	-30.595141	2.268605	-56.380721	21.208747	0.000000	0.000000	-0.000000	0.000000	7.004340	-11.261880	49.442400	-0.013794	1.187192	-0.052551	-1.000000	-1.000000	-1.000000	-1.000000	-1.000000	-1.000000	-1.000000	146.758621	0.000000	-1.000000	-1.000000	533770.000000	1772311727.261969
-20658.420000	-27879.795000	-27718.200000	-15097.005000	0.000000	0.000000	0.000000	0.000000	-180.004298	-7.135120	-178.307856	-14.633105	0.000000	0.000000	-0.000000	0.000000	7.004340	-11.261880	49.442400	-0.013794	1.187192	-0.052551	-1.000000	-1.000000	-1.000000	-1.000000	-1.000000	-1.000000	-1.000000	146.758621	0.000000	-1.000000	-1.000000	533771.000000	1772311727.261971
-20442.285000	-27878.310000	-27373.185000	-15049.080000	0.000000	0.000000	0.000000	0.000000	-243.151513	-10.773572	-216.560107	-41.586829	0.000000	0.000000	-0.000000	0.000000	7.004340	-11.261880	49.442400	-0.013794	1.187192	-0.052551	-1.000000	-1.000000	-1.000000	-1.000000	-1.000000	-1.000000	-1.000000	146.758621	0.000000	-1.000000	-1.000000	533772.000000	1772311727.264746
-20341.935000	-27911.520000	-27433.215000	-15159.105000	0.000000	0.000000	0.000000	0.000000	-156.280504	-9.369292	-123.509920	-37.156907	0.000000	0.000000	-0.000000	0.000000	7.004340	-11.261880	49.442400	-0.013794	1.187192	-0.052551	-1.000000	-1.000000	-1.000000	-1.000000	-1.000000	-1.000000	-1.000000	146.758621	0.000000	-1.000000	-1.000000	533773.000000	1772311727.264748
-20700.180000	-27952.065000	-27867.150000	-15236.145000	0.000000	0.000000	0.000000	0.000000	18.743988	-7.988056	34.935359	-14.422412	0.000000	0.000000	-0.000000	0.000000	7.004340	-11.261880	49.442400	-0.013794	1.187192	-0.052551	-1.000000	-1.000000	-1.000000	-1.000000	-1.000000	-1.000000	-1.000000	146.758621	0.000000	-1.000000	-1.000000	533774.000000	1772311727.268627
-20973.915000	-27961.470000	-28016.595000	-15238.485000	0.000000	0.000000	0.000000	0.000000	146.696103	-9.857392	131.656169	1.248673	0.000000	0.000000	-0.000000	0.000000	7.004340	-11.261880	49.442400	-0.013794	1.187192	-0.052551	-1.000000	-1.000000	-1.000000	-1.000000	-1.000000	-1.000000	-1.000000	146.758621	0.000000	-1.000000	-1.000000	533775.000000	1772311727.268629
-20799.765000	-27936.405000	-27827.460000	-15156.630000	0.000000	0.000000	0.000000	0.000000	151.647748	-11.115925	117.043894	6.561143	0.000000	0.000000	-0.000000	0.000000	7.004340	-11.261880	49.442400	-0.013794	1.187192	-0.052551	-1.000000	-1.000000	-1.000000	-1.000000	-1.000000	-1.000000	-1.000000	146.758621	0.000000	-1.000000	-1.000000	533776.000000	1772311727.272685
-20596.410000	-27888.255000	-27626.040000	-15055.560000	0.000000	0.000000	0.000000	0.000000	83.309418	-4.447168	58.304232	16.323218	0.000000	0.000000	-0.000000	0.000000	7.004340	-11.261880	49.442400	-0.013794	1.187192	-0.052551	-1.000000	-1.000000	-1.000000	-1.000000	-1.000000	-1.000000	-1.000000	146.758621	0.000000	-1.000000	-1.000000	533777.000000	1772311727.272688
-20595.960000	-27880.380000	-27651.330000	-15035.580000	0.000000	0.000000	0.000000	0.000000	34.338564	11.454525	35.432993	36.894744	0.000000	0.000000	-0.000000	0.000000	7.004340	-11.261880	49.442400	-0.013794	1.187192	-0.052551	-1.000000	-1.000000	-1.000000	-1.000000	-1.000000	-1.000000	-1.000000	146.758621	0.000000	-1.000000	-1.000000	533778.000000	1772311727.276591
-20668.545000	-27904.005000	-27783.180000	-15122.250000	0.000000	0.000000	0.000000	0.000000	30.828898	27.086414	49.801481	52.374380	0.000000	0.000000	-0.000000	0.000000	7.004340	-11.261880	49.442400	-0.013794	1.187192	-0.052551	-1.000000	-1.000000	-1.000000	-1.000000	-1.000000	-1.000000	-1.000000	146.758621	0.000000	-1.000000	-1.000000	533779.000000	1772311727.276596
-20652.075000	-27927.810000	-27766.710000	-15146.640000	0.000000	0.000000	0.000000	0.000000	35.569136	29.425109	51.868985	40.457795	0.000000	0.000000	-0.000000	0.000000	-55.988940	-15.565200	85.593340	0.030029	1.368649	-0.087829	-1.000000	-1.000000	-1.000000	-1.000000	-1.000000	-1.000000	-1.000000	146.758621	0.000000	-1.000000	-1.000000	533780.000000	1772311727.280757
-20575.755000	-27914.130000	-27695.025000	-15135.165000	0.000000	0.000000	0.000000	0.000000	18.919587	15.228222	19.291984	0.999712	0.000000	0.000000	-0.000000	0.000000	-55.988940	-15.565200	85.593340	0.030029	1.368649	-0.087829	-1.000000	-1.000000	-1.000000	-1.000000	-1.000000	-1.000000	-1.000000	146.758621	0.000000	-1.000000	-1.000000	533781.000000	1772311727.280760
-20304.945000	-27891.945000	-27398.430000	-14970.105000	0.000000	0.000000	0.000000	0.000000	-7.786724	-5.040252	-19.979238	-37.885212	0.000000	0.000000	-0.000000	0.000000	-55.988940	-15.565200	85.593340	0.030029	1.368649	-0.087829	-1.000000	-1.000000	-1.000000	-1.000000	-1.000000	-1.000000	-1.000000	146.758621	0.000000	-1.000000	-1.000000	533782.000000	1772311727.284715
-20221.740000	-27875.475000	-27320.535000	-14865.795000	0.000000	0.000000	0.000000	0.000000	-17.122693	-17.500394	-28.505335	-44.567230	0.000000	0.000000	-0.000000	0.000000	-55.988940	-15.565200	85.593340	0.030029	1.368649	-0.087829	-1.000000	-1.000000	-1.000000	-1.000000	-1.000000	-1.000000	-1.000000	146.758621	0.000000	-1.000000	-1.000000	533783.000000	1772311727.284717
-20390.130000	-27880.020000	-27406.305000	-14796.315000	0.000000	0.000000	0.000000	0.000000	-10.271183	-17.136890	-9.021066	-14.917704	0.000000	0.000000	-0.000000	0.000000	-55.988940	-15.565200	85.593340	0.030029	1.368649	-0.087829	-1.000000	-1.000000	-1.000000	-1.000000	-1.000000	-1.000000	-1.000000	146.758621	0.000000	-1.000000	-1.000000	533784.000000	1772311727.288725
-20563.965000	-27884.970000	-27536.805000	-14960.835000	0.000000	0.000000	0.000000	0.000000	-21.681435	-9.431750	-3.044904	20.112175	0.000000	0.000000	-0.000000	0.000000	-55.988940	-15.565200	85.593340	0.030029	1.368649	-0.087829	-1.000000	-1.000000	-1.000000	-1.000000	-1.000000	-1.000000	-1.000000	146.758621	0.000000	-1.000000	-1.000000	533785.000000	1772311727.288728
-20612.745000	-27883.170000	-27683.505000	-15312.735000	0.000000	0.000000	0.000000	0.000000	-68.645098	-2.463694	-38.910086	16.490209	0.000000	0.000000	-0.000000	0.000000	-55.988940	-15.565200	85.593340	0.030029	1.368649	-0.087829	-1.000000	-1.000000	-1.000000	-1.000000	-1.000000	-1.000000	-1.000000	146.758621	0.000000	-1.000000	-1.000000	533786.000000	1772311727.292714
-20609.190000	-27852.255000	-27729.045000	-15513.885000	0.000000	0.000000	0.000000	0.000000	-118.855637	0.763895	-97.987871	-43.288855	0.000000	0.000000	-0.000000	0.000000	-55.988940	-15.565200	85.593340	0.030029	1.368649	-0.087829	-1.000000	-1.000000	-1.000000	-1.000000	-1.000000	-1.000000	-1.000000	146.758621	0.000000	-1.000000	-1.000000	533787.000000	1772311727.292718
-20602.395000	-27821.295000	-27688.455000	-15263.685000	0.000000	0.000000	0.000000	0.000000	-123.457947	2.867794	-131.334876	-115.515942	0.000000	0.000000	-0.000000	0.000000	-55.988940	-15.565200	85.593340	0.030029	1.368649	-0.087829	-1.000000	-1.000000	-1.000000	-1.000000	-1.000000	-1.000000	-1.000000	146.758621	0.000000	-1.000000	-1.000000	533788.000000	1772311727.296824
-20658.870000	-27803.385000	-27773.730000	-15119.280000	0.000000	0.000000	0.000000	0.000000	-68.022412	6.443568	-104.078860	-119.483302	0.000000	0.000000	-0.000000	0.000000	-55.988940	-15.565200	85.593340	0.030029	1.368649	-0.087829	-1.000000	-1.000000	-1.000000	-1.000000	-1.000000	-1.000000	-1.000000	146.758621	0.000000	-1.000000	-1.000000	533789.000000	1772311727.296827
-20428.830000	-27801.315000	-27665.910000	-15036.570000	0.000000	0.000000	0.000000	0.000000	21.640701	9.606528	-24.696940	-24.044479	0.000000	0.000000	-0.000000	0.000000	-137.065320	4.165980	65.984240	0.058288	1.391903	-0.130676	-1.000000	-1.000000	-1.000000	-1.000000	-1.000000	-1.000000	-1.000000	146.758621	0.000000	-1.000000	-1.000000	533790.000000	1772311727.300675
-20312.505000	-27773.100000	-27526.230000	-14942.250000	0.000000	0.000000	0.000000	0.000000	110.762571	8.630662	71.160969	112.917708	0.000000	0.000000	-0.000000	0.000000	-137.065320	4.165980	65.984240	0.058288	1.391903	-0.130676	-1.000000	-1.000000	-1.000000	-1.000000	-1.000000	-1.000000	-1.000000	146.758621	0.000000	-1.000000	-1.000000	533791.000000	1772311727.300678
-20375.235000	-27738.540000	-27576.630000	-14860.440000	0.000000	0.000000	0.000000	0.000000	166.622009	3.644757	145.603402	203.311915	0.000000	0.000000	-0.000000	0.000000	-137.065320	4.165980	65.984240	0.058288	1.391903	-0.130676	-1.000000	-1.000000	-1.000000	-1.000000	-1.000000	-1.000000	-1.000000	146.758621	0.000000	-1.000000	-1.000000	533792.000000	1772311727.304671
-20443.230000	-27716.580000	-27667.665000	-14981.445000	0.000000	0.000000	0.000000	0.000000	157.420634	-1.528072	163.821160	196.470164	0.000000	0.000000	-0.000000	0.000000	-137.065320	4.165980	65.984240	0.058288	1.391903	-0.130676	-1.000000	-1.000000	-1.000000	-1.000000	-1.000000	-1.000000	-1.000000	146.758621	0.000000	-1.000000	-1.000000	533793.000000	1772311727.304674
-20503.215000	-27699.705000	-27755.685000	-15205.725000	0.000000	0.000000	0.000000	0.000000	77.822802	-4.489641	110.770367	93.676331	0.000000	0.000000	-0.000000	0.000000	-137.065320	4.165980	65.984240	0.058288	1.391903	-0.130676	-1.000000	-1.000000	-1.000000	-1.000000	-1.000000	-1.000000	-1.000000	146.758621	0.000000	-1.000000	-1.000000	533794.000000	1772311727.308824
