Channel1	Channel2	Channel3	Channel4	Channel5	Channel6	Channel7	Channel8	FilteredChannel1	FilteredChannel2	FilteredChannel3	FilteredChannel4	FilteredChannel5	FilteredChannel6	FilteredChannel7	FilteredChannel8	GyroX	GyroY	GyroZ	AccX	AccY	AccZ	PPG1	PPG2	rawPPG1	rawPPG2	rawPPG3	Hr	Hrv	Battery	Trigger	PhysicalTrigger	AutoTrigger	NumMeasurements	Timestamp
-23104.170000	-31763.565000	-30351.690000	-15301.665000	0.000000	0.000000	0.000000	0.000000	-2.194986	40.499927	-3.027016	-2.944885	0.000000	0.000000	-0.000000	0.000000	2.304260	0.091560	0.488320	0.004822	0.980649	-0.031921	-1.000000	-1.000000	-1.000000	-1.000000	-1.000000	-1.000000	-1.000000	146.827586	0.000000	-1.000000	-1.000000	563188.000000	1772311786.276855
-23107.545000	-31755.825000	-30363.120000	-15320.070000	0.000000	0.000000	0.000000	0.000000	-1.409196	41.326296	-1.486733	-1.325228	0.000000	0.000000	-0.000000	0.000000	2.304260	0.091560	0.488320	0.004822	0.980649	-0.031921	-1.000000	-1.000000	-1.000000	-1.000000	-1.000000	-1.000000	-1.000000	146.827586	0.000000	-1.000000	-1.000000	563189.000000	1772311786.276858
-23106.465000	-31771.755000	-30361.905000	-15315.795000	0.000000	0.000000	0.000000	0.000000	-0.951328	33.325680	-0.911767	-0.825174	0.000000	0.000000	-0.000000	0.000000	2.304260	0.091560	0.488320	0.004822	0.980649	-0.031921	-1.000000	-1.000000	-1.000000	-1.000000	-1.000000	-1.000000	-1.000000	146.827586	0.000000	-1.000000	-1.000000	563190.000000	1772311786.283973
-23110.875000	-31775.940000	-30364.290000	-15311.115000	0.000000	0.000000	0.000000	0.000000	-0.204034	16.193680	-0.755991	-0.890845	0.000000	0.000000	-0.000000	0.000000	2.304260	0.091560	0.488320	0.004822	0.980649	-0.031921	-1.000000	-1.000000	-1.000000	-1.000000	-1.000000	-1.000000	-1.000000	146.827586	0.000000	-1.000000	-1.000000	563191.000000	1772311786.283975
-23103.000000	-31741.200000	-30357.495000	-15302.970000	0.000000	0.000000	0.000000	0.000000	1.078772	-4.932540	0.131619	0.303792	0.000000	0.000000	-0.000000	0.000000	2.304260	0.091560	0.488320	0.004822	0.980649	-0.031921	-1.000000	-1.000000	-1.000000	-1.000000	-1.000000	-1.000000	-1.000000	146.827586	0.000000	-1.000000	-1.000000	563192.000000	1772311786.284778
-23104.980000	-31721.625000	-30361.905000	-15306.165000	0.000000	0.000000	0.000000	0.000000	2.707526	-20.174035	2.100223	3.111280	0.000000	0.000000	-0.000000	0.000000	2.304260	0.091560	0.488320	0.004822	0.980649	-0.031921	-1.000000	-1.000000	-1.000000	-1.000000	-1.000000	-1.000000	-1.000000	146.827586	0.000000	-1.000000	-1.000000	563193.000000	1772311786.284781
-23112.180000	-31719.915000	-30369.240000	-15317.955000	0.000000	0.000000	0.000000	0.000000	3.849457	-23.505692	3.955500	5.366414	0.000000	0.000000	-0.000000	0.000000	2.304260	0.091560	0.488320	0.004822	0.980649	-0.031921	-1.000000	-1.000000	-1.000000	-1.000000	-1.000000	-1.000000	-1.000000	146.827586	0.000000	-1.000000	-1.000000	563194.000000	1772311786.289067
-23112.180000	-31720.860000	-30370.950000	-15326.730000	0.000000	0.000000	0.000000	0.000000	3.395813	-17.974303	4.066171	4.536307	0.000000	0.000000	-0.000000	0.000000	2.304260	0.091560	0.488320	0.004822	0.980649	-0.031921	-1.000000	-1.000000	-1.000000	-1.000000	-1.000000	-1.000000	-1.000000	146.827586	0.000000	-1.000000	-1.000000	563195.000000	1772311786.289070
-23105.160000	-31729.365000	-30358.890000	-15310.980000	0.000000	0.000000	0.000000	0.000000	1.562041	-10.861639	2.539405	0.963886	0.000000	0.000000	-0.000000	0.000000	2.304260	0.091560	0.488320	0.004822	0.980649	-0.031921	-1.000000	-1.000000	-1.000000	-1.000000	-1.000000	-1.000000	-1.000000	146.827586	0.000000	-1.000000	-1.000000	563196.000000	1772311786.293657
-23105.655000	-31733.955000	-30356.280000	-15304.140000	0.000000	0.000000	0.000000	0.000000	-0.077951	-6.789726	1.226924	-1.880849	0.000000	0.000000	-0.000000	0.000000	2.304260	0.091560	0.488320	0.004822	0.980649	-0.031921	-1.000000	-1.000000	-1.000000	-1.000000	-1.000000	-1.000000	-1.000000	146.827586	0.000000	-1.000000	-1.000000	563197.000000	1772311786.293664
-23109.705000	-31728.195000	-30362.760000	-15313.545000	0.000000	0.000000	0.000000	0.000000	-0.693077	-5.512009	1.000681	-1.682550	-0.000000	0.000000	-0.000000	0.000000	3.418240	-0.091560	0.595140	0.005127	0.979246	-0.031616	-1.000000	-1.000000	-1.000000	-1.000000	-1.000000	-1.000000	-1.000000	146.827586	0.000000	-1.000000	-1.000000	563198.000000	1772311786.297372
-23104.890000	-31744.845000	-30360.015000	-15316.605000	0.000000	0.000000	0.000000	0.000000	-0.787646	-4.333848	0.761413	-0.054421	-0.000000	0.000000	-0.000000	0.000000	3.418240	-0.091560	0.595140	0.005127	0.979246	-0.031616	-1.000000	-1.000000	-1.000000	-1.000000	-1.000000	-1.000000	-1.000000	146.827586	0.000000	-1.000000	-1.000000	563199.000000	1772311786.297376
-23098.410000	-31764.960000	-30351.645000	-15300.495000	0.000000	0.000000	0.000000	0.000000	-0.684121	-2.198541	-0.217120	0.714158	-0.000000	0.000000	-0.000000	0.000000	3.418240	-0.091560	0.595140	0.005127	0.979246	-0.031616	-1.000000	-1.000000	-1.000000	-1.000000	-1.000000	-1.000000	-1.000000	146.827586	0.000000	-1.000000	-1.000000	563200.000000	1772311786.301785
-23094.495000	-31817.070000	-30348.405000	-15293.250000	0.000000	0.000000	0.000000	0.000000	-0.115825	-0.885462	-1.117819	0.919262	-0.000000	0.000000	-0.000000	0.000000	3.418240	-0.091560	0.595140	0.005127	0.979246	-0.031616	-1.000000	-1.000000	-1.000000	-1.000000	-1.000000	-1.000000	-1.000000	146.827586	0.000000	-1.000000	-1.000000	563201.000000	1772311786.301788
-23102.595000	-31798.845000	-30362.490000	-15318.045000	0.000000	0.000000	0.000000	0.000000	0.557208	-1.425680	-1.519746	1.063519	-0.000000	0.000000	-0.000000	0.000000	3.418240	-0.091560	0.595140	0.005127	0.979246	-0.031616	-1.000000	-1.000000	-1.000000	-1.000000	-1.000000	-1.000000	-1.000000	146.827586	0.000000	-1.000000	-1.000000	563202.000000	1772311786.304961
-23100.930000	-31790.970000	-30359.340000	-15316.380000	0.000000	0.000000	0.000000	0.000000	0.275864	-0.439149	-2.233017	-0.252141	-0.000000	0.000000	-0.000000	0.000000	3.418240	-0.091560	0.595140	0.005127	0.979246	-0.031616	-1.000000	-1.000000	-1.000000	-1.000000	-1.000000	-1.000000	-1.000000	146.827586	0.000000	-1.000000	-1.000000	563203.000000	1772311786.304964
-23097.960000	-31814.640000	-30356.235000	-15310.620000	0.000000	0.000000	0.000000	0.000000	-1.058740	5.348230	-3.251286	-3.088312	-0.000000	0.000000	-0.000000	0.000000	3.418240	-0.091560	0.595140	0.005127	0.979246	-0.031616	-1.000000	-1.000000	-1.000000	-1.000000	-1.000000	-1.000000	-1.000000	146.827586	0.000000	-1.000000	-1.000000	563204.000000	1772311786.311689
-23098.725000	-31830.345000	-30354.345000	-15304.320000	0.000000	0.000000	0.000000	0.000000	-2.220110	12.555713	-3.215941	-4.649072	-0.000000	0.000000	-0.000000	0.000000	3.418240	-0.091560	0.595140	0.005127	0.979246	-0.031616	-1.000000	-1.000000	-1.000000	-1.000000	-1.000000	-1.000000	-1.000000	146.827586	0.000000	-1.000000	-1.000000	563205.000000	1772311786.311692
-23101.650000	-31839.795000	-30360.690000	-15307.200000	0.000000	0.000000	0.000000	0.000000	-2.336130	15.109421	-1.633977	-3.052428	-0.000000	0.000000	-0.000000	0.000000	3.418240	-0.091560	0.595140	0.005127	0.979246	-0.031616	-1.000000	-1.000000	-1.000000	-1.000000	-1.000000	-1.000000	-1.000000	146.827586	0.000000	-1.000000	-1.000000	563206.000000	1772311786.315463
-23097.375000	-31857.975000	-30359.925000	-15306.930000	0.000000	0.000000	0.000000	0.000000	-1.567399	11.327661	0.353148	0.363519	-0.000000	0.000000	-0.000000	0.000000	3.418240	-0.091560	0.595140	0.005127	0.979246	-0.031616	-1.000000	-1.000000	-1.000000	-1.000000	-1.000000	-1.000000	-1.000000	146.827586	0.000000	-1.000000	-1.000000	563207.000000	1772311786.315466
-23092.290000	-31869.495000	-30354.570000	-15302.205000	0.000000	0.000000	0.000000	0.000000	-0.221504	3.932353	1.700857	3.109044	-0.000000	0.000000	-0.000000	0.000000	4.791640	-0.030520	0.915600	0.004517	0.978879	-0.031616	-1.000000	-1.000000	-1.000000	-1.000000	-1.000000	-1.000000	-1.000000	146.827586	0.000000	-1.000000	-1.000000	563208.000000	1772311786.316960
-23085.090000	-31894.335000	-30349.530000	-15306.930000	0.000000	0.000000	0.000000	0.000000	1.551873	-3.357429	2.527994	3.907434	-0.000000	0.000000	-0.000000	0.000000	4.791640	-0.030520	0.915600	0.004517	0.978879	-0.031616	-1.000000	-1.000000	-1.000000	-1.000000	-1.000000	-1.000000	-1.000000	146.827586	0.000000	-1.000000	-1.000000	563209.000000	1772311786.316963
-23084.640000	-31903.110000	-30345.345000	-15303.690000	0.000000	0.000000	0.000000	0.000000	3.201853	-7.951973	3.201405	2.825922	-0.000000	0.000000	-0.000000	0.000000	4.791640	-0.030520	0.915600	0.004517	0.978879	-0.031616	-1.000000	-1.000000	-1.000000	-1.000000	-1.000000	-1.000000	-1.000000	146.827586	0.000000	-1.000000	-1.000000	563210.000000	1772311786.320978
-23087.295000	-31899.555000	-30346.515000	-15302.340000	0.000000	0.000000	0.000000	0.000000	3.630943	-8.373367	3.386442	0.798235	-0.000000	0.000000	-0.000000	0.000000	4.791640	-0.030520	0.915600	0.004517	0.978879	-0.031616	-1.000000	-1.000000	-1.000000	-1.000000	-1.000000	-1.000000	-1.000000	146.827586	0.000000	-1.000000	-1.000000	563211.000000	1772311786.320980
-23086.935000	-31904.685000	-30347.820000	-15299.640000	0.000000	0.000000	0.000000	0.000000	2.108848	-4.274723	2.370669	-0.891996	-0.000000	0.000000	-0.000000	0.000000	4.791640	-0.030520	0.915600	0.004517	0.978879	-0.031616	-1.000000	-1.000000	-1.000000	-1.000000	-1.000000	-1.000000	-1.000000	146.827586	0.000000	-1.000000	-1.000000	563212.000000	1772311786.328690
-23089.590000	-31890.105000	-30345.165000	-15294.015000	0.000000	0.000000	0.000000	0.000000	-0.759079	2.591703	0.118159	-1.444043	-0.000000	0.000000	-0.000000	0.000000	4.791640	-0.030520	0.915600	0.004517	0.978879	-0.031616	-1.000000	-1.000000	-1.000000	-1.000000	-1.000000	-1.000000	-1.000000	146.827586	0.000000	-1.000000	-1.000000	563213.000000	1772311786.328693
-23079.645000	-31881.825000	-30336.075000	-15290.190000	0.000000	0.000000	0.000000	0.000000	-3.249704	9.159995	-2.153658	-0.845103	-0.000000	0.000000	-0.000000	0.000000	4.791640	-0.030520	0.915600	0.004517	0.978879	-0.031616	-1.000000	-1.000000	-1.000000	-1.000000	-1.000000	-1.000000	-1.000000	146.827586	0.000000	-1.000000	-1.000000	563214.000000	1772311786.328970
-23088.240000	-31887.495000	-30349.530000	-15308.505000	0.000000	0.000000	0.000000	0.000000	-3.889431	12.425669	-3.208716	-0.114839	-0.000000	0.000000	-0.000000	0.000000	4.791640	-0.030520	0.915600	0.004517	0.978879	-0.031616	-1.000000	-1.000000	-1.000000	-1.000000	-1.000000	-1.000000	-1.000000	146.827586	0.000000	-1.000000	-1.000000	563215.000000	1772311786.328973
-23130.630000	-31890.015000	-30386.205000	-15338.655000	0.000000	0.000000	0.000000	0.000000	-3.594641	10.184241	-3.978392	-1.322184	-0.000000	0.000000	-0.000000	0.000000	4.791640	-0.030520	0.915600	0.004517	0.978879	-0.031616	-1.000000	-1.000000	-1.000000	-1.000000	-1.000000	-1.000000	-1.000000	146.827586	0.000000	-1.000000	-1.000000	563216.000000	1772311786.333021
-23125.680000	-31880.295000	-30383.550000	-15326.595000	0.000000	0.000000	0.000000	0.000000	-4.662881	3.018641	-6.132973	-4.941728	-0.000000	0.000000	-0.000000	0.000000	4.791640	-0.030520	0.915600	0.004517	0.978879	-0.031616	-1.000000	-1.000000	-1.000000	-1.000000	-1.000000	-1.000000	-1.000000	146.827586	0.000000	-1.000000	-1.000000	563217.000000	1772311786.333023
-23103.270000	-31878.630000	-30362.895000	-15308.685000	0.000000	0.000000	0.000000	0.000000	-5.676973	-5.174179	-7.587688	-7.108334	-0.000000	0.000000	-0.000000	0.000000	5.569900	-0.183120	1.022420	0.005432	0.979734	-0.032226	-1.000000	-1.000000	-1.000000	-1.000000	-1.000000	-1.000000	-1.000000	146.827586	0.000000	-1.000000	-1.000000	563218.000000	1772311786.337047
-23097.555000	-31863.870000	-30358.755000	-15309.405000	0.000000	0.000000	0.000000	0.000000	-2.257446	-10.190995	-4.010083	-3.559006	-0.000000	0.000000	-0.000000	0.000000	5.569900	-0.183120	1.022420	0.005432	0.979734	-0.032226	-1.000000	-1.000000	-1.000000	-1.000000	-1.000000	-1.000000	-1.000000	146.827586	0.000000	-1.000000	-1.000000	563219.000000	1772311786.337050
-23094.855000	-31867.380000	-30353.940000	-15307.290000	0.000000	0.000000	0.000000	0.000000	5.690011	-10.460787	4.441293	4.228149	-0.000000	0.000000	-0.000000	0.000000	5.569900	-0.183120	1.022420	0.005432	0.979734	-0.032226	-1.000000	-1.000000	-1.000000	-1.000000	-1.000000	-1.000000	-1.000000	146.827586	0.000000	-1.000000	-1.000000	563220.000000	1772311786.341106
-23101.515000	-31858.425000	-30358.215000	-15311.565000	0.000000	0.000000	0.000000	0.000000	12.659462	-7.414810	12.282144	10.487872	-0.000000	0.000000	-0.000000	0.000000	5.569900	-0.183120	1.022420	0.005432	0.979734	-0.032226	-1.000000	-1.000000	-1.000000	-1.000000	-1.000000	-1.000000	-1.000000	146.827586	0.000000	-1.000000	-1.000000	563221.000000	1772311786.341108
-23105.565000	-31840.335000	-30361.365000	-15311.340000	0.000000	0.000000	0.000000	0.000000	13.350437	-3.299897	14.166352	11.088701	-0.000000	0.000000	-0.000000	0.000000	5.569900	-0.183120	1.022420	0.005432	0.979734	-0.032226	-1.000000	-1.000000	-1.000000	-1.000000	-1.000000	-1.000000	-1.000000	146.827586	0.000000	-1.000000	-1.000000	563222.000000	1772311786.345137
-23108.130000	-31815.720000	-30364.830000	-15313.365000	0.000000	0.000000	0.000000	0.000000	7.237897	1.000383	9.076857	6.282956	-0.000000	0.000000	-0.000000	0.000000	5.569900	-0.183120	1.022420	0.005432	0.979734	-0.032226	-1.000000	-1.000000	-1.000000	-1.000000	-1.000000	-1.000000	-1.000000	146.827586	0.000000	-1.000000	-1.000000	563223.000000	1772311786.345140
-23111.100000	-31806.765000	-30369.690000	-15317.190000	0.000000	0.000000	0.000000	0.000000	-1.750806	5.027188	0.270084	-0.670252	-0.000000	0.000000	-0.000000	0.000000	5.569900	-0.183120	1.022420	0.005432	0.979734	-0.032226	-1.000000	-1.000000	-1.000000	-1.000000	-1.000000	-1.000000	-1.000000	146.827586	0.000000	-1.000000	-1.000000	563224.000000	1772311786.349130
-23107.230000	-31804.650000	-30366.495000	-15315.030000	0.000000	0.000000	0.000000	0.000000	-8.640040	6.951045	-7.486481	-6.219652	-0.000000	0.000000	-0.000000	0.000000	5.569900	-0.183120	1.022420	0.005432	0.979734	-0.032226	-1.000000	-1.000000	-1.000000	-1.000000	-1.000000	-1.000000	-1.000000	146.827586	0.000000	-1.000000	-1.000000	563225.000000	1772311786.349133
-23107.905000	-31815.675000	-30369.780000	-15319.890000	0.000000	0.000000	0.000000	0.000000	-10.485630	4.536916	-10.768171	-8.300576	-0.000000	0.000000	-0.000000	0.000000	5.569900	-0.183120	1.022420	0.005432	0.979734	-0.032226	-1.000000	-1.000000	-1.000000	-1.000000	-1.000000	-1.000000	-1.000000	146.827586	0.000000	-1.000000	-1.000000	563226.000000	1772311786.353018
-23104.350000	-31806.855000	-30366.765000	-15319.170000	0.000000	0.000000	0.000000	0.000000	-7.503868	-1.966927	-9.019387	-6.915109	-0.000000	0.000000	-0.000000	0.000000	5.569900	-0.183120	1.022420	0.005432	0.979734	-0.032226	-1.000000	-1.000000	-1.000000	-1.000000	-1.000000	-1.000000	-1.000000	146.827586	0.000000	-1.000000	-1.000000	563227.000000	1772311786.353021
-23100.705000	-31794.255000	-30363.255000	-15316.155000	0.000000	0.000000	0.000000	0.000000	-2.128293	-8.577736	-4.074912	-3.431928	-0.000000	0.000000	-0.000000	0.000000	4.928980	0.061040	1.022420	0.006531	0.980832	-0.034729	-1.000000	-1.000000	-1.000000	-1.000000	-1.000000	-1.000000	-1.000000	146.827586	0.000000	-1.000000	-1.000000	563228.000000	1772311786.357742
-23094.990000	-31794.345000	-30355.020000	-15312.690000	0.000000	0.000000	0.000000	0.000000	2.915760	-10.710390	1.561828	0.619310	-0.000000	0.000000	-0.000000	0.000000	4.928980	0.061040	1.022420	0.006531	0.980832	-0.034729	-1.000000	-1.000000	-1.000000	-1.000000	-1.000000	-1.000000	-1.000000	146.827586	0.000000	-1.000000	-1.000000	563229.000000	1772311786.357745
-23104.845000	-31787.460000	-30363.075000	-15320.340000	0.000000	0.000000	0.000000	0.000000	5.600940	-7.498715	5.635050	3.754236	-0.000000	0.000000	-0.000000	0.000000	4.928980	0.061040	1.022420	0.006531	0.980832	-0.034729	-1.000000	-1.000000	-1.000000	-1.000000	-1.000000	-1.000000	-1.000000	146.827586	0.000000	-1.000000	-1.000000	563230.000000	1772311786.362706
-23106.195000	-31769.325000	-30368.925000	-15321.735000	0.000000	0.000000	0.000000	0.000000	4.868942	-1.380804	6.335745	4.618453	-0.000000	0.000000	-0.000000	0.000000	4.928980	0.061040	1.022420	0.006531	0.980832	-0.034729	-1.000000	-1.000000	-1.000000	-1.000000	-1.000000	-1.000000	-1.000000	146.827586	0.000000	-1.000000	-1.000000	563231.000000	1772311786.362709
-23098.590000	-31776.345000	-30362.130000	-15311.835000	0.000000	0.000000	0.000000	0.000000	1.600468	4.615889	3.565305	3.258224	-0.000000	0.000000	-0.000000	0.000000	4.928980	0.061040	1.022420	0.006531	0.980832	-0.034729	-1.000000	-1.000000	-1.000000	-1.000000	-1.000000	-1.000000	-1.000000	146.827586	0.000000	-1.000000	-1.000000	563232.000000	1772311786.365155
-23090.175000	-31776.390000	-30352.140000	-15301.350000	0.000000	0.000000	0.000000	0.000000	-1.399174	7.621221	-0.143251	1.588862	-0.000000	0.000000	-0.000000	0.000000	4.928980	0.061040	1.022420	0.006531	0.980832	-0.034729	-1.000000	-1.000000	-1.000000	-1.000000	-1.000000	-1.000000	-1.000000	146.827586	0.000000	-1.000000	-1.000000	563233.000000	1772311786.365157
-23102.865000	-31773.105000	-30368.340000	-15314.850000	0.000000	0.000000	0.000000	0.000000	-2.233370	6.287852	-2.195462	0.963342	-0.000000	0.000000	-0.000000	0.000000	4.928980	0.061040	1.022420	0.006531	0.980832	-0.034729	-1.000000	-1.000000	-1.000000	-1.000000	-1.000000	-1.000000	-1.000000	146.827586	0.000000	-1.000000	-1.000000	563234.000000	1772311786.372866
-23105.070000	-31773.240000	-30370.545000	-15316.290000	0.000000	0.000000	0.000000	0.000000	-1.854688	2.212695	-2.783762	0.335782	-0.000000	0.000000	-0.000000	0.000000	4.928980	0.061040	1.022420	0.006531	0.980832	-0.034729	-1.000000	-1.000000	-1.000000	-1.000000	-1.000000	-1.000000	-1.000000	146.827586	0.000000	-1.000000	-1.000000	563235.000000	1772311786.372869
-23104.665000	-31757.400000	-30368.115000	-15315.300000	0.000000	0.000000	0.000000	0.000000	-1.824264	-1.466187	-3.086137	-1.425699	-0.000000	0.000000	-0.000000	0.000000	4.928980	0.061040	1.022420	0.006531	0.980832	-0.034729	-1.000000	-1.000000	-1.000000	-1.000000	-1.000000	-1.000000	-1.000000	146.827586	0.000000	-1.000000	-1.000000	563236.000000	1772311786.372874
-23122.305000	-31714.605000	-30388.140000	-15340.140000	0.000000	0.000000	0.000000	0.000000	-2.289008	-1.732485	-3.158269	-3.793563	-0.000000	0.000000	-0.000000	0.000000	4.928980	0.061040	1.022420	0.006531	0.980832	-0.034729	-1.000000	-1.000000	-1.000000	-1.000000	-1.000000	-1.000000	-1.000000	146.827586	0.000000	-1.000000	-1.000000	563237.000000	1772311786.372876
-23123.970000	-31700.880000	-30390.075000	-15346.530000	0.000000	0.000000	0.000000	0.000000	-2.864018	2.573619	-2.977154	-5.996688	-0.000000	0.000000	-0.000000	0.000000	3.189340	0.396760	1.052940	0.007141	0.982847	-0.036865	-1.000000	-1.000000	-1.000000	-1.000000	-1.000000	-1.000000	-1.000000	146.827586	0.000000	-1.000000	-1.000000	563238.000000	1772311786.379860
-23119.155000	-31704.570000	-30384.360000	-15332.445000	0.000000	0.000000	0.000000	0.000000	-2.747109	8.026800	-2.264981	-6.707671	-0.000000	0.000000	-0.000000	0.000000	3.189340	0.396760	1.052940	0.007141	0.982847	-0.036865	-1.000000	-1.000000	-1.000000	-1.000000	-1.000000	-1.000000	-1.000000	146.827586	0.000000	-1.000000	-1.000000	563239.000000	1772311786.379864
-23109.210000	-31690.530000	-30373.425000	-15315.795000	0.000000	0.000000	0.000000	0.000000	-0.603254	8.765273	0.156292	-3.531157	-0.000000	0.000000	-0.000000	0.000000	3.189340	0.396760	1.052940	0.007141	0.982847	-0.036865	-1.000000	-1.000000	-1.000000	-1.000000	-1.000000	-1.000000	-1.000000	146.827586	0.000000	-1.000000	-1.000000	563240.000000	1772311786.381150
-23107.545000	-31679.235000	-30372.975000	-15317.730000	0.000000	0.000000	0.000000	0.000000	3.589096	3.168134	4.384741	3.629111	-0.000000	0.000000	-0.000000	0.000000	3.189340	0.396760	1.052940	0.007141	0.982847	-0.036865	-1.000000	-1.000000	-1.000000	-1.000000	-1.000000	-1.000000	-1.000000	146.827586	0.000000	-1.000000	-1.000000	563241.000000	1772311786.381153
-23102.190000	-31689.585000	-30369.330000	-15314.445000	0.000000	0.000000	0.000000	0.000000	7.622187	-5.196515	8.176059	10.584547	-0.000000	0.000000	-0.000000	0.000000	3.189340	0.396760	1.052940	0.007141	0.982847	-0.036865	-1.000000	-1.000000	-1.000000	-1.000000	-1.000000	-1.000000	-1.000000	146.827586	0.000000	-1.000000	-1.000000	563242.000000	1772311786.385143
-23105.475000	-31702.095000	-30373.380000	-15321.420000	0.000000	0.000000	0.000000	0.000000	8.799584	-12.506025	8.795660	12.455125	-0.000000	0.000000	-0.000000	0.000000	3.189340	0.396760	1.052940	0.007141	0.982847	-0.036865	-1.000000	-1.000000	-1.000000	-1.000000	-1.000000	-1.000000	-1.000000	146.827586	0.000000	-1.000000	-1.000000	563243.000000	1772311786.385146
-23115.240000	-31692.015000	-30382.515000	-15332.310000	0.000000	0.000000	0.000000	0.000000	5.883000	-16.402146	5.252776	7.755594	-0.000000	0.000000	-0.000000	0.000000	3.189340	0.396760	1.052940	0.007141	0.982847	-0.036865	-1.000000	-1.000000	-1.000000	-1.000000	-1.000000	-1.000000	-1.000000	146.827586	0.000000	-1.000000	-1.000000	563244.000000	1772311786.389121
-23086.080000	-31667.265000	-30354.615000	-15308.415000	0.000000	0.000000	0.000000	0.000000	0.377093	-14.449465	-0.549403	-0.532971	-0.000000	0.000000	-0.000000	0.000000	3.189340	0.396760	1.052940	0.007141	0.982847	-0.036865	-1.000000	-1.000000	-1.000000	-1.000000	-1.000000	-1.000000	-1.000000	146.827586	0.000000	-1.000000	-1.000000	563245.000000	1772311786.389124
-23099.670000	-31664.430000	-30367.170000	-15322.005000	0.000000	0.000000	0.000000	0.000000	-4.082121	-5.791862	-4.816451	-7.052364	-0.000000	0.000000	-0.000000	0.000000	3.189340	0.396760	1.052940	0.007141	0.982847	-0.036865	-1.000000	-1.000000	-1.000000	-1.000000	-1.000000	-1.000000	-1.000000	146.827586	0.000000	-1.000000	-1.000000	563246.000000	1772311786.393249
-23149.440000	-31667.670000	-30416.130000	-15366.960000	0.000000	0.000000	0.000000	0.000000	-6.557895	5.585267	-6.739707	-9.748988	-0.000000	0.000000	-0.000000	0.000000	3.189340	0.396760	1.052940	0.007141	0.982847	-0.036865	-1.000000	-1.000000	-1.000000	-1.000000	-1.000000	-1.000000	-1.000000	146.827586	0.000000	-1.000000	-1.000000	563247.000000	1772311786.393252
-23135.355000	-31655.970000	-30403.170000	-15350.760000	0.000000	0.000000	0.000000	0.000000	-9.334625	13.250558	-8.885432	-10.688605	-0.000000	0.000000	-0.000000	0.000000	2.578940	0.534100	1.632820	0.007263	0.982786	-0.037781	-1.000000	-1.000000	-1.000000	-1.000000	-1.000000	-1.000000	-1.000000	146.827586	0.000000	-1.000000	-1.000000	563248.000000	1772311786.397162
-23102.820000	-31678.290000	-30369.600000	-15314.490000	0.000000	0.000000	0.000000	0.000000	-10.679314	13.704101	-9.860832	-9.095549	-0.000000	0.000000	-0.000000	0.000000	2.578940	0.534100	1.632820	0.007263	0.982786	-0.037781	-1.000000	-1.000000	-1.000000	-1.000000	-1.000000	-1.000000	-1.000000	146.827586	0.000000	-1.000000	-1.000000	563249.000000	1772311786.397165
-23107.140000	-31683.960000	-30374.955000	-15321.780000	0.000000	0.000000	0.000000	0.000000	-5.730431	7.519639	-4.973753	-1.850278	-0.000000	0.000000	-0.000000	0.000000	2.578940	0.534100	1.632820	0.007263	0.982786	-0.037781	-1.000000	-1.000000	-1.000000	-1.000000	-1.000000	-1.000000	-1.000000	146.827586	0.000000	-1.000000	-1.000000	563250.000000	1772311786.401137
-23108.220000	-31715.505000	-30374.910000	-15325.470000	0.000000	0.000000	0.000000	0.000000	4.260815	-2.090798	4.633433	8.332931	-0.000000	0.000000	-0.000000	0.000000	2.578940	0.534100	1.632820	0.007263	0.982786	-0.037781	-1.000000	-1.000000	-1.000000	-1.000000	-1.000000	-1.000000	-1.000000	146.827586	0.000000	-1.000000	-1.000000	563251.000000	1772311786.401141
-23098.590000	-31738.320000	-30361.545000	-15313.860000	0.000000	0.000000	0.000000	0.000000	12.329890	-10.960181	12.324337	14.369409	-0.000000	0.000000	-0.000000	0.000000	2.578940	0.534100	1.632820	0.007263	0.982786	-0.037781	-1.000000	-1.000000	-1.000000	-1.000000	-1.000000	-1.000000	-1.000000	146.827586	0.000000	-1.000000	-1.000000	563252.000000	1772311786.405245
-23103.045000	-31716.405000	-30361.635000	-15313.635000	0.000000	0.000000	0.000000	0.000000	13.790157	-14.826627	13.812003	13.066294	-0.000000	0.000000	-0.000000	0.000000	2.578940	0.534100	1.632820	0.007263	0.982786	-0.037781	-1.000000	-1.000000	-1.000000	-1.000000	-1.000000	-1.000000	-1.000000	146.827586	0.000000	-1.000000	-1.000000	563253.000000	1772311786.405248
-23106.915000	-31712.040000	-30363.840000	-15314.355000	0.000000	0.000000	0.000000	0.000000	8.791597	-10.104348	9.300714	6.451651	-0.000000	0.000000	-0.000000	0.000000	2.578940	0.534100	1.632820	0.007263	0.982786	-0.037781	-1.000000	-1.000000	-1.000000	-1.000000	-1.000000	-1.000000	-1.000000	146.827586	0.000000	-1.000000	-1.000000	563254.000000	1772311786.409232
-23108.535000	-31703.715000	-30371.175000	-15323.355000	0.000000	0.000000	0.000000	0.000000	0.416288	2.250055	1.243226	-1.897960	-0.000000	0.000000	-0.000000	0.000000	2.578940	0.534100	1.632820	0.007263	0.982786	-0.037781	-1.000000	-1.000000	-1.000000	-1.000000	-1.000000	-1.000000	-1.000000	146.827586	0.000000	-1.000000	-1.000000	563255.000000	1772311786.409234
-23111.730000	-31695.795000	-30373.065000	-15322.410000	0.000000	0.000000	0.000000	0.000000	-7.204230	15.538192	-7.004101	-8.843344	-0.000000	0.000000	-0.000000	0.000000	2.578940	0.534100	1.632820	0.007263	0.982786	-0.037781	-1.000000	-1.000000	-1.000000	-1.000000	-1.000000	-1.000000	-1.000000	146.827586	0.000000	-1.000000	-1.000000	563256.000000	1772311786.413305
-23114.025000	-31700.205000	-30370.815000	-15315.705000	0.000000	0.000000	0.000000	0.000000	-10.941079	22.335594	-12.051690	-11.891648	-0.000000	0.000000	-0.000000	0.000000	2.578940	0.534100	1.632820	0.007263	0.982786	-0.037781	-1.000000	-1.000000	-1.000000	-1.000000	-1.000000	-1.000000	-1.000000	146.827586	0.000000	-1.000000	-1.000000	563257.000000	1772311786.413308
-23105.970000	-31730.895000	-30367.620000	-15311.520000	0.000000	0.000000	0.000000	0.000000	-9.847522	18.717152	-11.844763	-9.842060	-0.000000	0.000000	-0.000000	0.000000	2.884140	0.030520	1.617560	0.008240	0.982175	-0.036865	-1.000000	-1.000000	-1.000000	-1.000000	-1.000000	-1.000000	-1.000000	146.827586	0.000000	-1.000000	-1.000000	563258.000000	1772311786.417290
-23098.860000	-31752.270000	-30362.400000	-15307.740000	0.000000	0.000000	0.000000	0.000000	-4.805654	5.535967	-6.831339	-3.945738	-0.000000	0.000000	-0.000000	0.000000	2.884140	0.030520	1.617560	0.008240	0.982175	-0.036865	-1.000000	-1.000000	-1.000000	-1.000000	-1.000000	-1.000000	-1.000000	146.827586	0.000000	-1.000000	-1.000000	563259.000000	1772311786.417292
-23092.245000	-31760.685000	-30361.545000	-15319.755000	0.000000	0.000000	0.000000	0.000000	1.932983	-11.022975	0.264722	2.321688	-0.000000	0.000000	-0.000000	0.000000	2.884140	0.030520	1.617560	0.008240	0.982175	-0.036865	-1.000000	-1.000000	-1.000000	-1.000000	-1.000000	-1.000000	-1.000000	146.827586	0.000000	-1.000000	-1.000000	563260.000000	1772311786.424362
-23088.015000	-31768.155000	-30360.195000	-15324.255000	0.000000	0.000000	0.000000	0.000000	7.367204	-22.023448	6.017302	5.390422	-0.000000	0.000000	-0.000000	0.000000	2.884140	0.030520	1.617560	0.008240	0.982175	-0.036865	-1.000000	-1.000000	-1.000000	-1.000000	-1.000000	-1.000000	-1.000000	146.827586	0.000000	-1.000000	-1.000000	563261.000000	1772311786.424385
-23088.780000	-31773.555000	-30360.285000	-15315.615000	0.000000	0.000000	0.000000	0.000000	9.105040	-21.861613	8.159840	4.479567	-0.000000	0.000000	-0.000000	0.000000	2.884140	0.030520	1.617560	0.008240	0.982175	-0.036865	-1.000000	-1.000000	-1.000000	-1.000000	-1.000000	-1.000000	-1.000000	146.827586	0.000000	-1.000000	-1.000000	563262.000000	1772311786.425396
-23103.045000	-31745.205000	-30378.195000	-15314.130000	0.000000	0.000000	0.000000	0.000000	6.323800	-11.229008	6.244820	2.079524	-0.000000	0.000000	-0.000000	0.000000	2.884140	0.030520	1.617560	0.008240	0.982175	-0.036865	-1.000000	-1.000000	-1.000000	-1.000000	-1.000000	-1.000000	-1.000000	146.827586	0.000000	-1.000000	-1.000000	563263.000000	1772311786.425407
-23108.490000	-31733.910000	-30393.045000	-15334.965000	0.000000	0.000000	0.000000	0.000000	0.062233	4.925043	1.084124	0.373880	-0.000000	0.000000	-0.000000	0.000000	2.884140	0.030520	1.617560	0.008240	0.982175	-0.036865	-1.000000	-1.000000	-1.000000	-1.000000	-1.000000	-1.000000	-1.000000	146.827586	0.000000	-1.000000	-1.000000	563264.000000	1772311786.431849
-23104.485000	-31729.950000	-30386.610000	-15337.035000	0.000000	0.000000	0.000000	0.000000	-6.518809	19.358628	-4.881335	-1.005297	-0.000000	0.000000	-0.000000	0.000000	2.884140	0.030520	1.617560	0.008240	0.982175	-0.036865	-1.000000	-1.000000	-1.000000	-1.000000	-1.000000	-1.000000	-1.000000	146.827586	0.000000	-1.000000	-1.000000	563265.000000	1772311786.431853
-23109.435000	-31762.260000	-30378.915000	-15325.965000	0.000000	0.000000	0.000000	0.000000	-9.581981	24.375876	-7.611822	-2.226222	-0.000000	0.000000	-0.000000	0.000000	2.884140	0.030520	1.617560	0.008240	0.982175	-0.036865	-1.000000	-1.000000	-1.000000	-1.000000	-1.000000	-1.000000	-1.000000	146.827586	0.000000	-1.000000	-1.000000	563266.000000	1772311786.433503
-23102.010000	-31798.935000	-30369.915000	-15315.480000	0.000000	0.000000	0.000000	0.000000	-7.561464	15.826450	-4.586343	-1.550451	-0.000000	0.000000	-0.000000	0.000000	2.884140	0.030520	1.617560	0.008240	0.982175	-0.036865	-1.000000	-1.000000	-1.000000	-1.000000	-1.000000	-1.000000	-1.000000	146.827586	0.000000	-1.000000	-1.000000	563267.000000	1772311786.433507
-23084.460000	-31809.330000	-30349.530000	-15304.455000	0.000000	0.000000	0.000000	0.000000	-1.644463	-2.644870	2.716471	1.912967	-0.000000	0.000000	-0.000000	0.000000	4.272800	0.152600	1.495480	0.009277	0.981565	-0.035217	-1.000000	-1.000000	-1.000000	-1.000000	-1.000000	-1.000000	-1.000000	146.827586	0.000000	-1.000000	-1.000000	563268.000000	1772311786.437797
-23075.820000	-31836.555000	-30340.530000	-15297.705000	0.000000	0.000000	0.000000	0.000000	5.671776	-20.436060	10.207870	6.262508	-0.000000	0.000000	-0.000000	0.000000	4.272800	0.152600	1.495480	0.009277	0.981565	-0.035217	-1.000000	-1.000000	-1.000000	-1.000000	-1.000000	-1.000000	-1.000000	146.827586	0.000000	-1.000000	-1.000000	563269.000000	1772311786.437801
-23074.515000	-31842.315000	-30336.435000	-15294.285000	0.000000	0.000000	0.000000	0.000000	11.031008	-27.615916	13.642686	8.350175	-0.000000	0.000000	-0.000000	0.000000	4.272800	0.152600	1.495480	0.009277	0.981565	-0.035217	-1.000000	-1.000000	-1.000000	-1.000000	-1.000000	-1.000000	-1.000000	146.827586	0.000000	-1.000000	-1.000000	563270.000000	1772311786.441438
-23088.015000	-31836.825000	-30348.045000	-15300.000000	0.000000	0.000000	0.000000	0.000000	11.105588	-21.028160	10.443359	6.183881	-0.000000	0.000000	-0.000000	0.000000	4.272800	0.152600	1.495480	0.009277	0.981565	-0.035217	-1.000000	-1.000000	-1.000000	-1.000000	-1.000000	-1.000000	-1.000000	146.827586	0.000000	-1.000000	-1.000000	563271.000000	1772311786.441441
-23109.480000	-31835.970000	-30375.315000	-15321.195000	0.000000	0.000000	0.000000	0.000000	4.682496	-4.420029	0.861787	-0.132837	-0.000000	0.000000	-0.000000	0.000000	4.272800	0.152600	1.495480	0.009277	0.981565	-0.035217	-1.000000	-1.000000	-1.000000	-1.000000	-1.000000	-1.000000	-1.000000	146.827586	0.000000	-1.000000	-1.000000	563272.000000	1772311786.449499
-23098.905000	-31866.570000	-30360.150000	-15316.425000	0.000000	0.000000	0.000000	0.000000	-5.397321	13.394103	-11.179993	-8.235544	-0.000000	0.000000	-0.000000	0.000000	4.272800	0.152600	1.495480	0.009277	0.981565	-0.035217	-1.000000	-1.000000	-1.000000	-1.000000	-1.000000	-1.000000	-1.000000	146.827586	0.000000	-1.000000	-1.000000	563273.000000	1772311786.449503
-23089.680000	-31877.370000	-30351.600000	-15312.240000	0.000000	0.000000	0.000000	0.000000	-12.671876	22.831023	-18.589496	-13.626286	-0.000000	0.000000	-0.000000	0.000000	4.272800	0.152600	1.495480	0.009277	0.981565	-0.035217	-1.000000	-1.000000	-1.000000	-1.000000	-1.000000	-1.000000	-1.000000	146.827586	0.000000	-1.000000	-1.000000	563274.000000	1772311786.449507
-23091.390000	-31862.205000	-30354.030000	-15309.630000	0.000000	0.000000	0.000000	0.000000	-12.170344	20.784342	-16.378904	-12.529896	-0.000000	0.000000	-0.000000	0.000000	4.272800	0.152600	1.495480	0.009277	0.981565	-0.035217	-1.000000	-1.000000	-1.000000	-1.000000	-1.000000	-1.000000	-1.000000	146.827586	0.000000	-1.000000	-1.000000	563275.000000	1772311786.449509
-23097.870000	-31853.340000	-30360.735000	-15307.290000	0.000000	0.000000	0.000000	0.000000	-5.253972	12.590693	-6.799977	-5.475715	-0.000000	0.000000	-0.000000	0.000000	4.272800	0.152600	1.495480	0.009277	0.981565	-0.035217	-1.000000	-1.000000	-1.000000	-1.000000	-1.000000	-1.000000	-1.000000	146.827586	0.000000	-1.000000	-1.000000	563276.000000	1772311786.453570
-23108.940000	-31819.005000	-30376.845000	-15323.265000	0.000000	0.000000	0.000000	0.000000	2.311535	5.634148	3.138562	3.016574	-0.000000	0.000000	-0.000000	0.000000	4.272800	0.152600	1.495480	0.009277	0.981565	-0.035217	-1.000000	-1.000000	-1.000000	-1.000000	-1.000000	-1.000000	-1.000000	146.827586	0.000000	-1.000000	-1.000000	563277.000000	1772311786.453573
-23111.100000	-31853.565000	-30382.605000	-15335.730000	0.000000	0.000000	0.000000	0.000000	5.964134	2.359949	7.969896	7.797514	0.000000	0.000000	-0.000000	0.000000	6.165040	-0.091560	1.892240	0.010071	0.979307	-0.035034	-1.000000	-1.000000	-1.000000	-1.000000	-1.000000	-1.000000	-1.000000	146.827586	0.000000	-1.000000	-1.000000	563278.000000	1772311786.457384
-23091.435000	-31877.955000	-30357.090000	-15315.705000	0.000000	0.000000	0.000000	0.000000	5.728643	-1.176923	7.743302	7.319952	0.000000	0.000000	-0.000000	0.000000	6.165040	-0.091560	1.892240	0.010071	0.979307	-0.035034	-1.000000	-1.000000	-1.000000	-1.000000	-1.000000	-1.000000	-1.000000	146.827586	0.000000	-1.000000	-1.000000	563279.000000	1772311786.457387
-23075.325000	-31891.500000	-30339.900000	-15289.875000	0.000000	0.000000	0.000000	0.000000	5.023712	-8.891581	6.857587	5.231470	0.000000	0.000000	-0.000000	0.000000	6.165040	-0.091560	1.892240	0.010071	0.979307	-0.035034	-1.000000	-1.000000	-1.000000	-1.000000	-1.000000	-1.000000	-1.000000	146.827586	0.000000	-1.000000	-1.000000	563280.000000	1772311786.461514
-23089.005000	-31893.570000	-30357.630000	-15299.055000	0.000000	0.000000	0.000000	0.000000	5.683370	-17.803407	7.740101	5.340057	0.000000	0.000000	-0.000000	0.000000	6.165040	-0.091560	1.892240	0.010071	0.979307	-0.035034	-1.000000	-1.000000	-1.000000	-1.000000	-1.000000	-1.000000	-1.000000	146.827586	0.000000	-1.000000	-1.000000	563281.000000	1772311786.461517
-23105.295000	-31910.445000	-30373.380000	-15321.870000	0.000000	0.000000	0.000000	0.000000	5.196661	-21.233847	7.330727	5.872123	0.000000	0.000000	-0.000000	0.000000	6.165040	-0.091560	1.892240	0.010071	0.979307	-0.035034	-1.000000	-1.000000	-1.000000	-1.000000	-1.000000	-1.000000	-1.000000	146.827586	0.000000	-1.000000	-1.000000	563282.000000	1772311786.465476
-23079.150000	-31884.480000	-30356.325000	-15318.045000	0.000000	0.000000	0.000000	0.000000	1.304590	-15.768524	2.651038	2.644833	0.000000	0.000000	-0.000000	0.000000	6.165040	-0.091560	1.892240	0.010071	0.979307	-0.035034	-1.000000	-1.000000	-1.000000	-1.000000	-1.000000	-1.000000	-1.000000	146.827586	0.000000	-1.000000	-1.000000	563283.000000	1772311786.465479
-23055.075000	-31855.545000	-30348.945000	-15329.790000	0.000000	0.000000	0.000000	0.000000	-2.972203	-2.469099	-3.576637	-4.024137	0.000000	0.000000	-0.000000	0.000000	6.165040	-0.091560	1.892240	0.010071	0.979307	-0.035034	-1.000000	-1.000000	-1.000000	-1.000000	-1.000000	-1.000000	-1.000000	146.827586	0.000000	-1.000000	-1.000000	563284.000000	1772311786.478578
-23068.755000	-31846.680000	-30352.230000	-15352.155000	0.000000	0.000000	0.000000	0.000000	-3.615389	13.865834	-6.722553	-10.149458	0.000000	0.000000	-0.000000	0.000000	6.165040	-0.091560	1.892240	0.010071	0.979307	-0.035034	-1.000000	-1.000000	-1.000000	-1.000000	-1.000000	-1.000000	-1.000000	146.827586	0.000000	-1.000000	-1.000000	563285.000000	1772311786.478581
-23109.120000	-31828.185000	-30368.385000	-15330.555000	0.000000	0.000000	0.000000	0.000000	-2.626525	25.496508	-6.285840	-12.341764	0.000000	0.000000	-0.000000	0.000000	6.165040	-0.091560	1.892240	0.010071	0.979307	-0.035034	-1.000000	-1.000000	-1.000000	-1.000000	-1.000000	-1.000000	-1.000000	146.827586	0.000000	-1.000000	-1.000000	563286.000000	1772311786.478585
-23138.145000	-31758.840000	-30395.430000	-15328.440000	0.000000	0.000000	0.000000	0.000000	-5.331063	27.464469	-5.418626	-8.582894	0.000000	0.000000	-0.000000	0.000000	6.165040	-0.091560	1.892240	0.010071	0.979307	-0.035034	-1.000000	-1.000000	-1.000000	-1.000000	-1.000000	-1.000000	-1.000000	146.827586	0.000000	-1.000000	-1.000000	563287.000000	1772311786.478588
-23141.925000	-31672.395000	-30416.355000	-15350.130000	0.000000	0.000000	0.000000	0.000000	-11.789621	22.743073	-6.563642	-0.245381	0.000000	0.000000	-0.000000	0.000000	5.783540	0.763000	2.395820	0.010620	0.981626	-0.037842	-1.000000	-1.000000	-1.000000	-1.000000	-1.000000	-1.000000	-1.000000	146.827586	0.000000	-1.000000	-1.000000	563288.000000	1772311786.478591
-23131.755000	-31639.140000	-30429.315000	-15350.985000	0.000000	0.000000	0.000000	0.000000	-15.209164	16.831826	-8.650990	7.154608	0.000000	0.000000	-0.000000	0.000000	5.783540	0.763000	2.395820	0.010620	0.981626	-0.037842	-1.000000	-1.000000	-1.000000	-1.000000	-1.000000	-1.000000	-1.000000	146.827586	0.000000	-1.000000	-1.000000	563289.000000	1772311786.478594
-23130.180000	-31633.785000	-30421.215000	-15355.350000	0.000000	0.000000	0.000000	0.000000	-9.536780	8.874793	-7.967779	9.441524	0.000000	0.000000	-0.000000	0.000000	5.783540	0.763000	2.395820	0.010620	0.981626	-0.037842	-1.000000	-1.000000	-1.000000	-1.000000	-1.000000	-1.000000	-1.000000	146.827586	0.000000	-1.000000	-1.000000	563290.000000	1772311786.481511
-23120.550000	-31628.430000	-30412.350000	-15348.510000	0.000000	0.000000	0.000000	0.000000	3.801422	-5.842577	-1.671389	7.395287	0.000000	0.000000	-0.000000	0.000000	5.783540	0.763000	2.395820	0.010620	0.981626	-0.037842	-1.000000	-1.000000	-1.000000	-1.000000	-1.000000	-1.000000	-1.000000	146.827586	0.000000	-1.000000	-1.000000	563291.000000	1772311786.481515
-23125.320000	-31605.840000	-30417.300000	-15354.225000	0.000000	0.000000	0.000000	0.000000	17.309377	-25.824497	8.726352	4.095877	0.000000	0.000000	-0.000000	0.000000	5.783540	0.763000	2.395820	0.010620	0.981626	-0.037842	-1.000000	-1.000000	-1.000000	-1.000000	-1.000000	-1.000000	-1.000000	146.827586	0.000000	-1.000000	-1.000000	563292.000000	1772311786.486024
-23119.695000	-31571.370000	-30411.090000	-15360.165000	0.000000	0.000000	0.000000	0.000000	23.583052	-41.230282	17.614208	1.354109	0.000000	0.000000	-0.000000	0.000000	5.783540	0.763000	2.395820	0.010620	0.981626	-0.037842	-1.000000	-1.000000	-1.000000	-1.000000	-1.000000	-1.000000	-1.000000	146.827586	0.000000	-1.000000	-1.000000	563293.000000	1772311786.486027
-23112.630000	-31565.655000	-30397.905000	-15358.320000	0.000000	0.000000	0.000000	0.000000	20.238492	-42.687531	20.192865	-0.722175	0.000000	0.000000	-0.000000	0.000000	5.783540	0.763000	2.395820	0.010620	0.981626	-0.037842	-1.000000	-1.000000	-1.000000	-1.000000	-1.000000	-1.000000	-1.000000	146.827586	0.000000	-1.000000	-1.000000	563294.000000	1772311786.489504
-23102.955000	-31566.555000	-30385.305000	-15362.055000	0.000000	0.000000	0.000000	0.000000	10.486457	-30.192139	16.162795	-2.142161	0.000000	0.000000	-0.000000	0.000000	5.783540	0.763000	2.395820	0.010620	0.981626	-0.037842	-1.000000	-1.000000	-1.000000	-1.000000	-1.000000	-1.000000	-1.000000	146.827586	0.000000	-1.000000	-1.000000	563295.000000	1772311786.489508
-23101.695000	-31587.705000	-30374.415000	-15354.405000	0.000000	0.000000	0.000000	0.000000	-0.390778	-12.286182	8.346981	-2.534987	0.000000	0.000000	-0.000000	0.000000	5.783540	0.763000	2.395820	0.010620	0.981626	-0.037842	-1.000000	-1.000000	-1.000000	-1.000000	-1.000000	-1.000000	-1.000000	146.827586	0.000000	-1.000000	-1.000000	563296.000000	1772311786.493455
-23111.145000	-31600.665000	-30373.110000	-15338.070000	0.000000	0.000000	0.000000	0.000000	-8.880455	1.879785	-0.322103	-1.419186	0.000000	0.000000	-0.000000	0.000000	5.783540	0.763000	2.395820	0.010620	0.981626	-0.037842	-1.000000	-1.000000	-1.000000	-1.000000	-1.000000	-1.000000	-1.000000	146.827586	0.000000	-1.000000	-1.000000	563297.000000	1772311786.493458
-23093.640000	-31571.640000	-30364.560000	-15303.780000	0.000000	0.000000	0.000000	0.000000	-13.672832	9.502757	-7.936853	1.721898	0.000000	0.000000	-0.000000	0.000000	7.889420	1.220800	3.647140	0.009766	0.981443	-0.035828	-1.000000	-1.000000	-1.000000	-1.000000	-1.000000	-1.000000	-1.000000	146.827586	0.000000	-1.000000	-1.000000	563298.000000	1772311786.497671
-23077.305000	-31546.080000	-30366.855000	-15299.730000	0.000000	0.000000	0.000000	0.000000	-13.720097	14.555374	-13.182478	6.174458	0.000000	0.000000	-0.000000	0.000000	7.889420	1.220800	3.647140	0.009766	0.981443	-0.035828	-1.000000	-1.000000	-1.000000	-1.000000	-1.000000	-1.000000	-1.000000	146.827586	0.000000	-1.000000	-1.000000	563299.000000	1772311786.497673
-23115.915000	-31575.240000	-30411.045000	-15342.480000	0.000000	0.000000	0.000000	0.000000	-9.635580	19.971948	-16.058453	7.849123	0.000000	0.000000	-0.000000	0.000000	7.889420	1.220800	3.647140	0.009766	0.981443	-0.035828	-1.000000	-1.000000	-1.000000	-1.000000	-1.000000	-1.000000	-1.000000	146.827586	0.000000	-1.000000	-1.000000	563300.000000	1772311786.501533
-23134.005000	-31584.330000	-30436.470000	-15364.755000	0.000000	0.000000	0.000000	0.000000	-5.813070	22.043390	-18.205320	1.644945	0.000000	0.000000	-0.000000	0.000000	7.889420	1.220800	3.647140	0.009766	0.981443	-0.035828	-1.000000	-1.000000	-1.000000	-1.000000	-1.000000	-1.000000	-1.000000	146.827586	0.000000	-1.000000	-1.000000	563301.000000	1772311786.501536
-23106.555000	-31564.305000	-30412.935000	-15346.395000	0.000000	0.000000	0.000000	0.000000	-4.928382	17.073948	-18.799497	-10.663684	0.000000	0.000000	-0.000000	0.000000	7.889420	1.220800	3.647140	0.009766	0.981443	-0.035828	-1.000000	-1.000000	-1.000000	-1.000000	-1.000000	-1.000000	-1.000000	146.827586	0.000000	-1.000000	-1.000000	563302.000000	1772311786.508446
-23088.555000	-31525.920000	-30391.425000	-15323.805000	0.000000	0.000000	0.000000	0.000000	-3.220217	8.838921	-12.807217	-18.949963	0.000000	0.000000	-0.000000	0.000000	7.889420	1.220800	3.647140	0.009766	0.981443	-0.035828	-1.000000	-1.000000	-1.000000	-1.000000	-1.000000	-1.000000	-1.000000	146.827586	0.000000	-1.000000	-1.000000	563303.000000	1772311786.508451
-23090.175000	-31516.155000	-30383.370000	-15316.020000	0.000000	0.000000	0.000000	0.000000	2.933052	3.901929	1.829884	-15.124769	0.000000	0.000000	-0.000000	0.000000	7.889420	1.220800	3.647140	0.009766	0.981443	-0.035828	-1.000000	-1.000000	-1.000000	-1.000000	-1.000000	-1.000000	-1.000000	146.827586	0.000000	-1.000000	-1.000000	563304.000000	1772311786.509529
-23126.445000	-31525.785000	-30413.745000	-15356.340000	0.000000	0.000000	0.000000	0.000000	9.838162	2.870064	18.098236	-2.530773	0.000000	0.000000	-0.000000	0.000000	7.889420	1.220800	3.647140	0.009766	0.981443	-0.035828	-1.000000	-1.000000	-1.000000	-1.000000	-1.000000	-1.000000	-1.000000	146.827586	0.000000	-1.000000	-1.000000	563305.000000	1772311786.509533
-23123.970000	-31497.435000	-30421.665000	-15388.830000	0.000000	0.000000	0.000000	0.000000	10.730122	1.389079	25.147714	7.347336	0.000000	0.000000	-0.000000	0.000000	7.889420	1.220800	3.647140	0.009766	0.981443	-0.035828	-1.000000	-1.000000	-1.000000	-1.000000	-1.000000	-1.000000	-1.000000	146.827586	0.000000	-1.000000	-1.000000	563306.000000	1772311786.513580
-23102.820000	-31460.265000	-30406.140000	-15382.080000	0.000000	0.000000	0.000000	0.000000	5.239485	-1.791754	19.386781	7.484080	0.000000	0.000000	-0.000000	0.000000	7.889420	1.220800	3.647140	0.009766	0.981443	-0.035828	-1.000000	-1.000000	-1.000000	-1.000000	-1.000000	-1.000000	-1.000000	146.827586	0.000000	-1.000000	-1.000000	563307.000000	1772311786.513583
-23107.725000	-31461.030000	-30401.415000	-15364.440000	0.000000	0.000000	0.000000	0.000000	-0.417591	-4.098229	7.409081	2.352342	0.000000	0.000000	-0.000000	0.000000	11.582340	0.030520	6.180300	0.005920	0.982053	-0.033020	-1.000000	-1.000000	-1.000000	-1.000000	-1.000000	-1.000000	-1.000000	146.827586	0.000000	-1.000000	-1.000000	563308.000000	1772311786.521585
-23116.590000	-31487.805000	-30398.310000	-15345.180000	0.000000	0.000000	0.000000	0.000000	-2.264656	-5.732948	-2.296356	0.926381	0.000000	0.000000	-0.000000	0.000000	11.582340	0.030520	6.180300	0.005920	0.982053	-0.033020	-1.000000	-1.000000	-1.000000	-1.000000	-1.000000	-1.000000	-1.000000	146.827586	0.000000	-1.000000	-1.000000	563309.000000	1772311786.521588
-23110.965000	-31498.290000	-30400.245000	-15356.250000	0.000000	0.000000	0.000000	0.000000	-1.648883	-9.786725	-6.556940	5.768140	0.000000	0.000000	-0.000000	0.000000	11.582340	0.030520	6.180300	0.005920	0.982053	-0.033020	-1.000000	-1.000000	-1.000000	-1.000000	-1.000000	-1.000000	-1.000000	146.827586	0.000000	-1.000000	-1.000000	563310.000000	1772311786.521760
-23107.140000	-31529.610000	-30411.540000	-15372.765000	0.000000	0.000000	0.000000	0.000000	-0.636176	-16.207309	-7.078591	11.049005	0.000000	0.000000	-0.000000	0.000000	11.582340	0.030520	6.180300	0.005920	0.982053	-0.033020	-1.000000	-1.000000	-1.000000	-1.000000	-1.000000	-1.000000	-1.000000	146.827586	0.000000	-1.000000	-1.000000	563311.000000	1772311786.521763
-23118.480000	-31552.650000	-30423.240000	-15360.840000	0.000000	0.000000	0.000000	0.000000	0.049618	-20.977913	-6.874080	10.351305	0.000000	0.000000	-0.000000	0.000000	11.582340	0.030520	6.180300	0.005920	0.982053	-0.033020	-1.000000	-1.000000	-1.000000	-1.000000	-1.000000	-1.000000	-1.000000	146.827586	0.000000	-1.000000	-1.000000	563312.000000	1772311786.525740
-23081.940000	-31571.055000	-30374.820000	-15301.620000	0.000000	0.000000	0.000000	0.000000	0.491586	-19.997515	-6.343659	5.004209	0.000000	0.000000	-0.000000	0.000000	11.582340	0.030520	6.180300	0.005920	0.982053	-0.033020	-1.000000	-1.000000	-1.000000	-1.000000	-1.000000	-1.000000	-1.000000	146.827586	0.000000	-1.000000	-1.000000	563313.000000	1772311786.525743
-23110.785000	-31587.525000	-30385.890000	-15301.080000	0.000000	0.000000	0.000000	0.000000	1.251261	-11.788554	-3.058349	1.554446	0.000000	0.000000	-0.000000	0.000000	11.582340	0.030520	6.180300	0.005920	0.982053	-0.033020	-1.000000	-1.000000	-1.000000	-1.000000	-1.000000	-1.000000	-1.000000	146.827586	0.000000	-1.000000	-1.000000	563314.000000	1772311786.529583
-23130.270000	-31593.465000	-30413.520000	-15339.330000	0.000000	0.000000	0.000000	0.000000	0.987464	1.627938	2.022373	0.841484	0.000000	0.000000	-0.000000	0.000000	11.582340	0.030520	6.180300	0.005920	0.982053	-0.033020	-1.000000	-1.000000	-1.000000	-1.000000	-1.000000	-1.000000	-1.000000	146.827586	0.000000	-1.000000	-1.000000	563315.000000	1772311786.529585
-23117.130000	-31590.045000	-30403.080000	-15345.900000	0.000000	0.000000	0.000000	0.000000	-2.074440	15.935050	3.855640	-3.024307	0.000000	0.000000	-0.000000	0.000000	11.582340	0.030520	6.180300	0.005920	0.982053	-0.033020	-1.000000	-1.000000	-1.000000	-1.000000	-1.000000	-1.000000	-1.000000	146.827586	0.000000	-1.000000	-1.000000	563316.000000	1772311786.533621
-23110.605000	-31595.895000	-30400.740000	-15337.710000	0.000000	0.000000	0.000000	0.000000	-5.386597	26.551809	1.292653	-11.438065	0.000000	0.000000	-0.000000	0.000000	11.582340	0.030520	6.180300	0.005920	0.982053	-0.033020	-1.000000	-1.000000	-1.000000	-1.000000	-1.000000	-1.000000	-1.000000	146.827586	0.000000	-1.000000	-1.000000	563317.000000	1772311786.533624
-23079.645000	-31636.980000	-30374.415000	-15321.195000	0.000000	0.000000	0.000000	0.000000	-4.389905	29.196895	-1.347234	-17.594035	0.000000	0.000000	-0.000000	0.000000	14.008680	-1.999060	10.254720	0.002197	0.983701	-0.032410	-1.000000	-1.000000	-1.000000	-1.000000	-1.000000	-1.000000	-1.000000	146.827586	0.000000	-1.000000	-1.000000	563318.000000	1772311786.537629
-23060.790000	-31673.385000	-30365.595000	-15365.340000	0.000000	0.000000	0.000000	0.000000	2.002987	21.056972	-0.293809	-15.990737	0.000000	0.000000	-0.000000	0.000000	14.008680	-1.999060	10.254720	0.002197	0.983701	-0.032410	-1.000000	-1.000000	-1.000000	-1.000000	-1.000000	-1.000000	-1.000000	146.827586	0.000000	-1.000000	-1.000000	563319.000000	1772311786.537633
-23063.535000	-31670.415000	-30370.095000	-15383.070000	0.000000	0.000000	0.000000	0.000000	9.810068	4.952320	3.491668	-9.410138	0.000000	0.000000	-0.000000	0.000000	14.008680	-1.999060	10.254720	0.002197	0.983701	-0.032410	-1.000000	-1.000000	-1.000000	-1.000000	-1.000000	-1.000000	-1.000000	146.827586	0.000000	-1.000000	-1.000000	563320.000000	1772311786.541619
-23077.260000	-31671.720000	-30375.720000	-15333.120000	0.000000	0.000000	0.000000	0.000000	12.392027	-9.733337	5.492875	-2.340598	0.000000	0.000000	-0.000000	0.000000	14.008680	-1.999060	10.254720	0.002197	0.983701	-0.032410	-1.000000	-1.000000	-1.000000	-1.000000	-1.000000	-1.000000	-1.000000	146.827586	0.000000	-1.000000	-1.000000	563321.000000	1772311786.541622
-23097.735000	-31654.350000	-30404.205000	-15342.885000	0.000000	0.000000	0.000000	0.000000	5.927370	-14.282048	2.298844	5.701900	0.000000	0.000000	-0.000000	0.000000	14.008680	-1.999060	10.254720	0.002197	0.983701	-0.032410	-1.000000	-1.000000	-1.000000	-1.000000	-1.000000	-1.000000	-1.000000	146.827586	0.000000	-1.000000	-1.000000	563322.000000	1772311786.545599
-23043.915000	-31614.075000	-30334.365000	-15321.870000	0.000000	0.000000	0.000000	0.000000	-5.666573	-7.086294	-3.967009	14.612346	0.000000	0.000000	-0.000000	0.000000	14.008680	-1.999060	10.254720	0.002197	0.983701	-0.032410	-1.000000	-1.000000	-1.000000	-1.000000	-1.000000	-1.000000	-1.000000	146.827586	0.000000	-1.000000	-1.000000	563323.000000	1772311786.545602
-23041.170000	-31594.905000	-30324.240000	-15345.045000	0.000000	0.000000	0.000000	0.000000	-12.796438	6.690202	-6.119148	19.751348	0.000000	0.000000	-0.000000	0.000000	14.008680	-1.999060	10.254720	0.002197	0.983701	-0.032410	-1.000000	-1.000000	-1.000000	-1.000000	-1.000000	-1.000000	-1.000000	146.827586	0.000000	-1.000000	-1.000000	563324.000000	1772311786.549773
-23072.805000	-31595.715000	-30362.130000	-15357.915000	0.000000	0.000000	0.000000	0.000000	-11.089619	17.846091	-1.720993	16.504770	0.000000	0.000000	-0.000000	0.000000	14.008680	-1.999060	10.254720	0.002197	0.983701	-0.032410	-1.000000	-1.000000	-1.000000	-1.000000	-1.000000	-1.000000	-1.000000	146.827586	0.000000	-1.000000	-1.000000	563325.000000	1772311786.549777
-23155.740000	-31613.085000	-30435.615000	-15351.840000	0.000000	0.000000	0.000000	0.000000	-7.414326	17.728514	0.902098	5.447419	0.000000	0.000000	-0.000000	0.000000	14.008680	-1.999060	10.254720	0.002197	0.983701	-0.032410	-1.000000	-1.000000	-1.000000	-1.000000	-1.000000	-1.000000	-1.000000	146.827586	0.000000	-1.000000	-1.000000	563326.000000	1772311786.553668
-23195.880000	-31637.340000	-30445.740000	-15347.115000	0.000000	0.000000	0.000000	0.000000	-10.399965	4.238767	-5.941283	-6.794800	0.000000	0.000000	-0.000000	0.000000	14.008680	-1.999060	10.254720	0.002197	0.983701	-0.032410	-1.000000	-1.000000	-1.000000	-1.000000	-1.000000	-1.000000	-1.000000	146.827586	0.000000	-1.000000	-1.000000	563327.000000	1772311786.553671
-23144.895000	-31666.275000	-30435.300000	-15365.115000	0.000000	0.000000	0.000000	0.000000	-16.866069	-16.319371	-16.691049	-13.452492	0.000000	0.000000	-0.000000	0.000000	16.602880	-2.395820	7.752080	0.011353	0.977903	-0.034302	-1.000000	-1.000000	-1.000000	-1.000000	-1.000000	-1.000000	-1.000000	146.827586	0.000000	-1.000000	-1.000000	563328.000000	1772311786.557822
-23086.305000	-31667.355000	-30378.690000	-15339.330000	0.000000	0.000000	0.000000	0.000000	-12.854230	-32.973325	-17.473723	-12.819654	0.000000	0.000000	-0.000000	0.000000	16.602880	-2.395820	7.752080	0.011353	0.977903	-0.034302	-1.000000	-1.000000	-1.000000	-1.000000	-1.000000	-1.000000	-1.000000	146.827586	0.000000	-1.000000	-1.000000	563329.000000	1772311786.557824
-23046.165000	-31629.960000	-30335.850000	-15328.440000	0.000000	0.000000	0.000000	0.000000	8.836800	-35.499418	-1.166555	-6.449891	0.000000	0.000000	-0.000000	0.000000	16.602880	-2.395820	7.752080	0.011353	0.977903	-0.034302	-1.000000	-1.000000	-1.000000	-1.000000	-1.000000	-1.000000	-1.000000	146.827586	0.000000	-1.000000	-1.000000	563330.000000	1772311786.561709
-23063.310000	-31623.345000	-30345.120000	-15323.130000	0.000000	0.000000	0.000000	0.000000	36.485092	-20.424594	23.930023	2.544228	0.000000	0.000000	-0.000000	0.000000	16.602880	-2.395820	7.752080	0.011353	0.977903	-0.034302	-1.000000	-1.000000	-1.000000	-1.000000	-1.000000	-1.000000	-1.000000	146.827586	0.000000	-1.000000	-1.000000	563331.000000	1772311786.561712
-23115.420000	-31641.165000	-30382.695000	-15316.380000	0.000000	0.000000	0.000000	0.000000	48.152924	4.193508	39.069613	9.473713	0.000000	0.000000	-0.000000	0.000000	16.602880	-2.395820	7.752080	0.011353	0.977903	-0.034302	-1.000000	-1.000000	-1.000000	-1.000000	-1.000000	-1.000000	-1.000000	146.827586	0.000000	-1.000000	-1.000000	563332.000000	1772311786.567052
-23101.065000	-31674.735000	-30392.865000	-15315.030000	0.000000	0.000000	0.000000	0.000000	32.307757	22.881100	31.155341	10.774625	0.000000	0.000000	-0.000000	0.000000	16.602880	-2.395820	7.752080	0.011353	0.977903	-0.034302	-1.000000	-1.000000	-1.000000	-1.000000	-1.000000	-1.000000	-1.000000	146.827586	0.000000	-1.000000	-1.000000	563333.000000	1772311786.567055
-23101.335000	-31662.945000	-30418.110000	-15374.970000	0.000000	0.000000	0.000000	0.000000	-0.595810	25.665618	4.646690	5.307100	0.000000	0.000000	-0.000000	0.000000	16.602880	-2.395820	7.752080	0.011353	0.977903	-0.034302	-1.000000	-1.000000	-1.000000	-1.000000	-1.000000	-1.000000	-1.000000	146.827586	0.000000	-1.000000	-1.000000	563334.000000	1772311786.569711
-23138.730000	-31654.665000	-30442.950000	-15408.540000	0.000000	0.000000	0.000000	0.000000	-29.677829	16.005536	-23.966106	-6.420623	0.000000	0.000000	-0.000000	0.000000	16.602880	-2.395820	7.752080	0.011353	0.977903	-0.034302	-1.000000	-1.000000	-1.000000	-1.000000	-1.000000	-1.000000	-1.000000	146.827586	0.000000	-1.000000	-1.000000	563335.000000	1772311786.569714
-23155.785000	-31650.480000	-30466.620000	-15391.440000	0.000000	0.000000	0.000000	0.000000	-42.502916	4.554041	-40.029670	-19.140710	0.000000	0.000000	-0.000000	0.000000	16.602880	-2.395820	7.752080	0.011353	0.977903	-0.034302	-1.000000	-1.000000	-1.000000	-1.000000	-1.000000	-1.000000	-1.000000	146.827586	0.000000	-1.000000	-1.000000	563336.000000	1772311786.575801
-23082.165000	-31649.355000	-30396.690000	-15345.045000	0.000000	0.000000	0.000000	0.000000	-36.905050	-1.841078	-36.630553	-22.058955	0.000000	0.000000	-0.000000	0.000000	16.602880	-2.395820	7.752080	0.011353	0.977903	-0.034302	-1.000000	-1.000000	-1.000000	-1.000000	-1.000000	-1.000000	-1.000000	146.827586	0.000000	-1.000000	-1.000000	563337.000000	1772311786.575804
-22975.515000	-31667.490000	-30313.665000	-15365.745000	0.000000	0.000000	0.000000	0.000000	-13.454876	-3.463818	-13.141154	-9.334447	0.000000	0.000000	-0.000000	0.000000	18.327260	-2.716280	7.446880	0.013489	0.974607	-0.040466	-1.000000	-1.000000	-1.000000	-1.000000	-1.000000	-1.000000	-1.000000	146.827586	0.000000	-1.000000	-1.000000	563338.000000	1772311786.577799
-22967.100000	-31662.090000	-30315.690000	-15397.740000	0.000000	0.000000	0.000000	0.000000	21.010874	-3.786351	21.620617	10.285306	0.000000	0.000000	-0.000000	0.000000	18.327260	-2.716280	7.446880	0.013489	0.974607	-0.040466	-1.000000	-1.000000	-1.000000	-1.000000	-1.000000	-1.000000	-1.000000	146.827586	0.000000	-1.000000	-1.000000	563339.000000	1772311786.577802
-23025.420000	-31651.110000	-30380.130000	-15469.425000	0.000000	0.000000	0.000000	0.000000	46.485481	-4.245696	46.416416	20.466387	0.000000	0.000000	-0.000000	0.000000	18.327260	-2.716280	7.446880	0.013489	0.974607	-0.040466	-1.000000	-1.000000	-1.000000	-1.000000	-1.000000	-1.000000	-1.000000	146.827586	0.000000	-1.000000	-1.000000	563340.000000	1772311786.581707
-23069.790000	-31655.970000	-30378.015000	-15378.120000	0.000000	0.000000	0.000000	0.000000	41.881644	-3.690491	42.141674	15.308339	0.000000	0.000000	-0.000000	0.000000	18.327260	-2.716280	7.446880	0.013489	0.974607	-0.040466	-1.000000	-1.000000	-1.000000	-1.000000	-1.000000	-1.000000	-1.000000	146.827586	0.000000	-1.000000	-1.000000	563341.000000	1772311786.581711
-23195.745000	-31658.940000	-30472.830000	-15334.380000	0.000000	0.000000	0.000000	0.000000	5.385826	-1.951466	10.397290	6.681396	0.000000	0.000000	-0.000000	0.000000	18.327260	-2.716280	7.446880	0.013489	0.974607	-0.040466	-1.000000	-1.000000	-1.000000	-1.000000	-1.000000	-1.000000	-1.000000	146.827586	0.000000	-1.000000	-1.000000	563342.000000	1772311786.585673
-23216.715000	-31697.865000	-30508.650000	-15363.765000	0.000000	0.000000	0.000000	0.000000	-42.835504	-1.154130	-29.912461	6.726879	0.000000	0.000000	-0.000000	0.000000	18.327260	-2.716280	7.446880	0.013489	0.974607	-0.040466	-1.000000	-1.000000	-1.000000	-1.000000	-1.000000	-1.000000	-1.000000	146.827586	0.000000	-1.000000	-1.000000	563343.000000	1772311786.585676
-23071.050000	-31726.980000	-30402.045000	-15334.560000	0.000000	0.000000	0.000000	0.000000	-70.372310	-3.666767	-54.700515	11.381348	0.000000	0.000000	-0.000000	0.000000	18.327260	-2.716280	7.446880	0.013489	0.974607	-0.040466	-1.000000	-1.000000	-1.000000	-1.000000	-1.000000	-1.000000	-1.000000	146.827586	0.000000	-1.000000	-1.000000	563344.000000	1772311786.589966
-22953.420000	-31710.690000	-30314.250000	-15328.395000	0.000000	0.000000	0.000000	0.000000	-50.407765	-8.166090	-44.282707	10.916100	0.000000	0.000000	-0.000000	0.000000	18.327260	-2.716280	7.446880	0.013489	0.974607	-0.040466	-1.000000	-1.000000	-1.000000	-1.000000	-1.000000	-1.000000	-1.000000	146.827586	0.000000	-1.000000	-1.000000	563345.000000	1772311786.589969
-22958.865000	-31726.035000	-30272.400000	-15312.690000	0.000000	0.000000	0.000000	0.000000	10.765864	-9.175938	-0.415995	3.413746	0.000000	0.000000	-0.000000	0.000000	18.327260	-2.716280	7.446880	0.013489	0.974607	-0.040466	-1.000000	-1.000000	-1.000000	-1.000000	-1.000000	-1.000000	-1.000000	146.827586	0.000000	-1.000000	-1.000000	563346.000000	1772311786.596037
-23076.000000	-31744.260000	-30325.995000	-15291.090000	0.000000	0.000000	0.000000	0.000000	68.382802	-3.955944	47.153582	-6.681158	0.000000	0.000000	-0.000000	0.000000	18.327260	-2.716280	7.446880	0.013489	0.974607	-0.040466	-1.000000	-1.000000	-1.000000	-1.000000	-1.000000	-1.000000	-1.000000	146.827586	0.000000	-1.000000	-1.000000	563347.000000	1772311786.596040
-23137.470000	-31766.625000	-30418.380000	-15316.290000	0.000000	0.000000	0.000000	0.000000	76.621617	3.701037	62.077462	-14.599221	0.000000	0.000000	-0.000000	0.000000	16.358720	-3.021480	10.773560	0.009949	1.001584	-0.058166	-1.000000	-1.000000	-1.000000	-1.000000	-1.000000	-1.000000	-1.000000	146.827586	0.000000	-1.000000	-1.000000	563348.000000	1772311786.597783
-23099.445000	-31779.495000	-30422.340000	-15336.585000	0.000000	0.000000	0.000000	0.000000	32.385768	8.568876	32.483561	-19.345612	0.000000	0.000000	-0.000000	0.000000	16.358720	-3.021480	10.773560	0.009949	1.001584	-0.058166	-1.000000	-1.000000	-1.000000	-1.000000	-1.000000	-1.000000	-1.000000	146.827586	0.000000	-1.000000	-1.000000	563349.000000	1772311786.597786
-23033.880000	-31767.255000	-30331.710000	-15305.490000	0.000000	0.000000	0.000000	0.000000	-23.869521	9.480454	-16.589360	-21.085472	0.000000	0.000000	-0.000000	0.000000	16.358720	-3.021480	10.773560	0.009949	1.001584	-0.058166	-1.000000	-1.000000	-1.000000	-1.000000	-1.000000	-1.000000	-1.000000	146.827586	0.000000	-1.000000	-1.000000	563350.000000	1772311786.601824
-23089.500000	-31770.135000	-30398.130000	-15369.705000	0.000000	0.000000	0.000000	0.000000	-51.186610	8.987083	-47.311635	-18.365367	0.000000	0.000000	-0.000000	0.000000	16.358720	-3.021480	10.773560	0.009949	1.001584	-0.058166	-1.000000	-1.000000	-1.000000	-1.000000	-1.000000	-1.000000	-1.000000	146.827586	0.000000	-1.000000	-1.000000	563351.000000	1772311786.601827
-23092.965000	-31789.575000	-30400.020000	-15408.945000	0.000000	0.000000	0.000000	0.000000	-43.218606	8.545839	-45.864500	-12.795499	0.000000	0.000000	-0.000000	0.000000	16.358720	-3.021480	10.773560	0.009949	1.001584	-0.058166	-1.000000	-1.000000	-1.000000	-1.000000	-1.000000	-1.000000	-1.000000	146.827586	0.000000	-1.000000	-1.000000	563352.000000	1772311786.606091
-22998.150000	-31804.470000	-30293.010000	-15306.660000	0.000000	0.000000	0.000000	0.000000	-17.149066	6.400910	-22.834854	-5.962555	0.000000	0.000000	-0.000000	0.000000	16.358720	-3.021480	10.773560	0.009949	1.001584	-0.058166	-1.000000	-1.000000	-1.000000	-1.000000	-1.000000	-1.000000	-1.000000	146.827586	0.000000	-1.000000	-1.000000	563353.000000	1772311786.606094
-23034.645000	-31768.740000	-30321.315000	-15228.585000	0.000000	0.000000	0.000000	0.000000	11.211075	2.071357	8.006833	7.903413	0.000000	0.000000	-0.000000	0.000000	16.358720	-3.021480	10.773560	0.009949	1.001584	-0.058166	-1.000000	-1.000000	-1.000000	-1.000000	-1.000000	-1.000000	-1.000000	146.827586	0.000000	-1.000000	-1.000000	563354.000000	1772311786.611802
-23100.885000	-31782.735000	-30378.375000	-15309.855000	0.000000	0.000000	0.000000	0.000000	28.308122	-1.280855	31.178403	28.859810	0.000000	0.000000	-0.000000	0.000000	16.358720	-3.021480	10.773560	0.009949	1.001584	-0.058166	-1.000000	-1.000000	-1.000000	-1.000000	-1.000000	-1.000000	-1.000000	146.827586	0.000000	-1.000000	-1.000000	563355.000000	1772311786.611805
-23025.915000	-31809.330000	-30360.285000	-15363.765000	0.000000	0.000000	0.000000	0.000000	25.212382	-2.464784	32.518899	39.297847	0.000000	0.000000	-0.000000	0.000000	16.358720	-3.021480	10.773560	0.009949	1.001584	-0.058166	-1.000000	-1.000000	-1.000000	-1.000000	-1.000000	-1.000000	-1.000000	146.827586	0.000000	-1.000000	-1.000000	563356.000000	1772311786.613868
-22979.790000	-31803.480000	-30328.290000	-15345.270000	0.000000	0.000000	0.000000	0.000000	10.531075	-4.091112	15.201159	24.905657	0.000000	0.000000	-0.000000	0.000000	16.358720	-3.021480	10.773560	0.009949	1.001584	-0.058166	-1.000000	-1.000000	-1.000000	-1.000000	-1.000000	-1.000000	-1.000000	146.827586	0.000000	-1.000000	-1.000000	563357.000000	1772311786.613872
-23103.405000	-31806.990000	-30381.705000	-15342.075000	0.000000	0.000000	0.000000	0.000000	-1.725227	-6.647203	-4.586508	-3.979640	0.000000	0.000000	-0.000000	0.000000	15.656760	-6.088740	12.375860	0.007568	1.032346	-0.068115	-1.000000	-1.000000	-1.000000	-1.000000	-1.000000	-1.000000	-1.000000	146.827586	0.000000	-1.000000	-1.000000	563358.000000	1772311786.617925
-23192.730000	-31794.165000	-30447.720000	-15357.465000	0.000000	0.000000	0.000000	0.000000	-13.130140	-7.313959	-17.976528	-25.727343	0.000000	0.000000	-0.000000	0.000000	15.656760	-6.088740	12.375860	0.007568	1.032346	-0.068115	-1.000000	-1.000000	-1.000000	-1.000000	-1.000000	-1.000000	-1.000000	146.827586	0.000000	-1.000000	-1.000000	563359.000000	1772311786.617928
-23213.565000	-31781.655000	-30478.770000	-15390.405000	0.000000	0.000000	0.000000	0.000000	-29.082530	-4.113887	-26.013899	-30.268627	-0.000000	0.000000	-0.000000	0.000000	15.656760	-6.088740	12.375860	0.007568	1.032346	-0.068115	-1.000000	-1.000000	-1.000000	-1.000000	-1.000000	-1.000000	-1.000000	146.827586	0.000000	-1.000000	-1.000000	563360.000000	1772311786.621941
-23134.455000	-31762.530000	-30387.015000	-15377.265000	0.000000	0.000000	0.000000	0.000000	-38.540497	2.106834	-26.132148	-21.400949	-0.000000	0.000000	-0.000000	0.000000	15.656760	-6.088740	12.375860	0.007568	1.032346	-0.068115	-1.000000	-1.000000	-1.000000	-1.000000	-1.000000	-1.000000	-1.000000	146.827586	0.000000	-1.000000	-1.000000	563361.000000	1772311786.621944
-23069.790000	-31777.740000	-30378.690000	-15396.030000	0.000000	0.000000	0.000000	0.000000	-23.668835	7.824230	-10.991521	-6.737882	-0.000000	0.000000	-0.000000	0.000000	15.656760	-6.088740	12.375860	0.007568	1.032346	-0.068115	-1.000000	-1.000000	-1.000000	-1.000000	-1.000000	-1.000000	-1.000000	146.827586	0.000000	-1.000000	-1.000000	563362.000000	1772311786.625848
-23077.980000	-31783.095000	-30393.945000	-15352.335000	0.000000	0.000000	0.000000	0.000000	14.663454	8.560925	15.770106	8.081051	-0.000000	0.000000	-0.000000	0.000000	15.656760	-6.088740	12.375860	0.007568	1.032346	-0.068115	-1.000000	-1.000000	-1.000000	-1.000000	-1.000000	-1.000000	-1.000000	146.827586	0.000000	-1.000000	-1.000000	563363.000000	1772311786.625852
-23059.170000	-31774.005000	-30362.670000	-15312.780000	0.000000	0.000000	0.000000	0.000000	52.112374	3.130045	37.131620	20.522591	-0.000000	0.000000	-0.000000	0.000000	15.656760	-6.088740	12.375860	0.007568	1.032346	-0.068115	-1.000000	-1.000000	-1.000000	-1.000000	-1.000000	-1.000000	-1.000000	146.827586	0.000000	-1.000000	-1.000000	563364.000000	1772311786.629894
-22989.375000	-31783.770000	-30279.105000	-15269.940000	0.000000	0.000000	0.000000	0.000000	65.023934	-4.614998	41.945624	29.486231	-0.000000	0.000000	-0.000000	0.000000	15.656760	-6.088740	12.375860	0.007568	1.032346	-0.068115	-1.000000	-1.000000	-1.000000	-1.000000	-1.000000	-1.000000	-1.000000	146.827586	0.000000	-1.000000	-1.000000	563365.000000	1772311786.629897
-22956.030000	-31786.020000	-30253.905000	-15283.530000	0.000000	0.000000	0.000000	0.000000	50.684964	-9.979151	33.593101	31.492778	-0.000000	0.000000	-0.000000	0.000000	15.656760	-6.088740	12.375860	0.007568	1.032346	-0.068115	-1.000000	-1.000000	-1.000000	-1.000000	-1.000000	-1.000000	-1.000000	146.827586	0.000000	-1.000000	-1.000000	563366.000000	1772311786.634007
-23048.190000	-31793.085000	-30332.340000	-15376.770000	0.000000	0.000000	0.000000	0.000000	18.980592	-11.039021	16.812042	20.033732	-0.000000	0.000000	-0.000000	0.000000	15.656760	-6.088740	12.375860	0.007568	1.032346	-0.068115	-1.000000	-1.000000	-1.000000	-1.000000	-1.000000	-1.000000	-1.000000	146.827586	0.000000	-1.000000	-1.000000	563367.000000	1772311786.634011
-23060.520000	-31778.145000	-30306.330000	-15318.180000	0.000000	0.000000	0.000000	0.000000	-21.078772	-7.970043	-8.315281	-5.761998	-0.000000	0.000000	-0.000000	0.000000	9.064440	-3.784480	23.866640	0.029724	1.090818	-0.097839	-1.000000	-1.000000	-1.000000	-1.000000	-1.000000	-1.000000	-1.000000	146.827586	0.000000	-1.000000	-1.000000	563368.000000	1772311786.637916
-23125.545000	-31790.790000	-30435.210000	-15412.275000	0.000000	0.000000	0.000000	0.000000	-58.211349	-2.082402	-37.303619	-33.571293	-0.000000	0.000000	-0.000000	0.000000	9.064440	-3.784480	23.866640	0.029724	1.090818	-0.097839	-1.000000	-1.000000	-1.000000	-1.000000	-1.000000	-1.000000	-1.000000	146.827586	0.000000	-1.000000	-1.000000	563369.000000	1772311786.637919
-23148.630000	-31778.820000	-30487.050000	-15455.340000	0.000000	0.000000	0.000000	0.000000	-77.691236	4.084287	-60.775124	-49.397420	-0.000000	0.000000	-0.000000	0.000000	9.064440	-3.784480	23.866640	0.029724	1.090818	-0.097839	-1.000000	-1.000000	-1.000000	-1.000000	-1.000000	-1.000000	-1.000000	146.827586	0.000000	-1.000000	-1.000000	563370.000000	1772311786.641967
-23177.070000	-31772.430000	-30512.250000	-15532.245000	0.000000	0.000000	0.000000	0.000000	-70.548240	8.213078	-68.910763	-49.618578	-0.000000	0.000000	-0.000000	0.000000	9.064440	-3.784480	23.866640	0.029724	1.090818	-0.097839	-1.000000	-1.000000	-1.000000	-1.000000	-1.000000	-1.000000	-1.000000	146.827586	0.000000	-1.000000	-1.000000	563371.000000	1772311786.641971
-23106.825000	-31759.065000	-30384.225000	-15400.710000	0.000000	0.000000	0.000000	0.000000	-37.883984	9.739143	-50.923400	-33.831627	-0.000000	0.000000	-0.000000	0.000000	9.064440	-3.784480	23.866640	0.029724	1.090818	-0.097839	-1.000000	-1.000000	-1.000000	-1.000000	-1.000000	-1.000000	-1.000000	146.827586	0.000000	-1.000000	-1.000000	563372.000000	1772311786.645980
-23074.695000	-31752.720000	-30354.390000	-15350.175000	0.000000	0.000000	0.000000	0.000000	10.743322	9.022643	-3.569923	0.490532	-0.000000	0.000000	-0.000000	0.000000	9.064440	-3.784480	23.866640	0.029724	1.090818	-0.097839	-1.000000	-1.000000	-1.000000	-1.000000	-1.000000	-1.000000	-1.000000	146.827586	0.000000	-1.000000	-1.000000	563373.000000	1772311786.645983
-23055.885000	-31750.200000	-30357.585000	-15401.250000	0.000000	0.000000	0.000000	0.000000	57.758423	6.265993	54.665848	44.202435	-0.000000	0.000000	-0.000000	0.000000	9.064440	-3.784480	23.866640	0.029724	1.090818	-0.097839	-1.000000	-1.000000	-1.000000	-1.000000	-1.000000	-1.000000	-1.000000	146.827586	0.000000	-1.000000	-1.000000	563374.000000	1772311786.650327
-23037.615000	-31743.180000	-30338.415000	-15354.585000	0.000000	0.000000	0.000000	0.000000	82.796504	1.791585	90.932483	72.151290	-0.000000	0.000000	-0.000000	0.000000	9.064440	-3.784480	23.866640	0.029724	1.090818	-0.097839	-1.000000	-1.000000	-1.000000	-1.000000	-1.000000	-1.000000	-1.000000	146.827586	0.000000	-1.000000	-1.000000	563375.000000	1772311786.650330
-23140.170000	-31761.135000	-30408.885000	-15318.405000	0.000000	0.000000	0.000000	0.000000	73.410052	-3.579117	84.446582	68.113108	-0.000000	0.000000	-0.000000	0.000000	9.064440	-3.784480	23.866640	0.029724	1.090818	-0.097839	-1.000000	-1.000000	-1.000000	-1.000000	-1.000000	-1.000000	-1.000000	146.827586	0.000000	-1.000000	-1.000000	563376.000000	1772311786.653977
-23141.250000	-31782.735000	-30404.835000	-15307.695000	0.000000	0.000000	0.000000	0.000000	32.258611	-9.168907	40.065154	39.103333	-0.000000	0.000000	-0.000000	0.000000	9.064440	-3.784480	23.866640	0.029724	1.090818	-0.097839	-1.000000	-1.000000	-1.000000	-1.000000	-1.000000	-1.000000	-1.000000	146.827586	0.000000	-1.000000	-1.000000	563377.000000	1772311786.653980
-23022.810000	-31784.715000	-30304.800000	-15284.745000	0.000000	0.000000	0.000000	0.000000	-18.016756	-13.869012	-15.058599	2.037593	-0.000000	0.000000	-0.000000	0.000000	-20.967240	1.968540	29.802780	0.050720	1.108457	-0.103698	-1.000000	-1.000000	-1.000000	-1.000000	-1.000000	-1.000000	-1.000000	146.827586	0.000000	-1.000000	-1.000000	563378.000000	1772311786.658044
-22999.275000	-31775.400000	-30303.855000	-15423.255000	0.000000	0.000000	0.000000	0.000000	-45.543258	-14.713351	-48.532127	-31.434771	-0.000000	0.000000	-0.000000	0.000000	-20.967240	1.968540	29.802780	0.050720	1.108457	-0.103698	-1.000000	-1.000000	-1.000000	-1.000000	-1.000000	-1.000000	-1.000000	146.827586	0.000000	-1.000000	-1.000000	563379.000000	1772311786.658046
-23009.265000	-31729.050000	-30295.035000	-15410.880000	0.000000	0.000000	0.000000	0.000000	-39.222126	-8.332215	-48.937925	-57.409082	-0.000000	0.000000	-0.000000	0.000000	-20.967240	1.968540	29.802780	0.050720	1.108457	-0.103698	-1.000000	-1.000000	-1.000000	-1.000000	-1.000000	-1.000000	-1.000000	146.827586	0.000000	-1.000000	-1.000000	563380.000000	1772311786.662019
-22940.505000	-31703.355000	-30226.140000	-15395.040000	0.000000	0.000000	0.000000	0.000000	-15.581317	5.290624	-28.875886	-69.122380	-0.000000	0.000000	-0.000000	0.000000	-20.967240	1.968540	29.802780	0.050720	1.108457	-0.103698	-1.000000	-1.000000	-1.000000	-1.000000	-1.000000	-1.000000	-1.000000	146.827586	0.000000	-1.000000	-1.000000	563381.000000	1772311786.662022
-22937.940000	-31687.740000	-30169.620000	-15286.050000	0.000000	0.000000	0.000000	0.000000	5.126859	20.192117	-4.374943	-54.643439	-0.000000	0.000000	-0.000000	0.000000	-20.967240	1.968540	29.802780	0.050720	1.108457	-0.103698	-1.000000	-1.000000	-1.000000	-1.000000	-1.000000	-1.000000	-1.000000	146.827586	0.000000	-1.000000	-1.000000	563382.000000	1772311786.666084
-22959.450000	-31686.030000	-30226.680000	-15307.740000	0.000000	0.000000	0.000000	0.000000	12.413530	27.101308	13.148264	-13.599901	-0.000000	0.000000	-0.000000	0.000000	-20.967240	1.968540	29.802780	0.050720	1.108457	-0.103698	-1.000000	-1.000000	-1.000000	-1.000000	-1.000000	-1.000000	-1.000000	146.827586	0.000000	-1.000000	-1.000000	563383.000000	1772311786.666087
-22926.690000	-31701.645000	-30298.005000	-15338.700000	0.000000	0.000000	0.000000	0.000000	4.987582	20.381086	13.045672	32.190749	-0.000000	0.000000	-0.000000	0.000000	-20.967240	1.968540	29.802780	0.050720	1.108457	-0.103698	-1.000000	-1.000000	-1.000000	-1.000000	-1.000000	-1.000000	-1.000000	146.827586	0.000000	-1.000000	-1.000000	563384.000000	1772311786.670088
-22986.225000	-31729.320000	-30371.040000	-15443.640000	0.000000	0.000000	0.000000	0.000000	-10.093820	1.991446	-7.839337	53.018382	-0.000000	0.000000	-0.000000	0.000000	-20.967240	1.968540	29.802780	0.050720	1.108457	-0.103698	-1.000000	-1.000000	-1.000000	-1.000000	-1.000000	-1.000000	-1.000000	146.827586	0.000000	-1.000000	-1.000000	563385.000000	1772311786.670091
-23021.190000	-31722.120000	-30330.360000	-15336.900000	0.000000	0.000000	0.000000	0.000000	-24.259724	-19.340736	-35.322517	39.326601	-0.000000	0.000000	-0.000000	0.000000	-20.967240	1.968540	29.802780	0.050720	1.108457	-0.103698	-1.000000	-1.000000	-1.000000	-1.000000	-1.000000	-1.000000	-1.000000	146.827586	0.000000	-1.000000	-1.000000	563386.000000	1772311786.674141
-23174.865000	-31741.785000	-30476.115000	-15427.980000	0.000000	0.000000	0.000000	0.000000	-34.366069	-32.579668	-47.954609	9.670381	-0.000000	0.000000	-0.000000	0.000000	-20.967240	1.968540	29.802780	0.050720	1.108457	-0.103698	-1.000000	-1.000000	-1.000000	-1.000000	-1.000000	-1.000000	-1.000000	146.827586	0.000000	-1.000000	-1.000000	563387.000000	1772311786.674143
-23134.320000	-31771.080000	-30442.545000	-15361.155000	0.000000	0.000000	0.000000	0.000000	-38.743154	-32.079205	-37.699629	-12.621560	-0.000000	0.000000	-0.000000	0.000000	-40.362700	2.044840	20.539960	0.056763	1.037473	-0.088562	-1.000000	-1.000000	-1.000000	-1.000000	-1.000000	-1.000000	-1.000000	146.827586	0.000000	-1.000000	-1.000000	563388.000000	1772311786.680040
-22946.715000	-31742.145000	-30310.965000	-15305.580000	0.000000	0.000000	0.000000	0.000000	-26.381802	-20.035299	-7.523227	-16.514004	-0.000000	0.000000	-0.000000	0.000000	-40.362700	2.044840	20.539960	0.056763	1.037473	-0.088562	-1.000000	-1.000000	-1.000000	-1.000000	-1.000000	-1.000000	-1.000000	146.827586	0.000000	-1.000000	-1.000000	563389.000000	1772311786.680043
-22940.955000	-31713.615000	-30292.110000	-15298.425000	0.000000	0.000000	0.000000	0.000000	13.699841	-1.001596	37.115158	-2.984166	-0.000000	0.000000	-0.000000	0.000000	-40.362700	2.044840	20.539960	0.056763	1.037473	-0.088562	-1.000000	-1.000000	-1.000000	-1.000000	-1.000000	-1.000000	-1.000000	146.827586	0.000000	-1.000000	-1.000000	563390.000000	1772311786.682213
-23097.780000	-31742.415000	-30394.170000	-15365.070000	0.000000	0.000000	0.000000	0.000000	62.099508	19.045063	76.309761	13.808149	-0.000000	0.000000	-0.000000	0.000000	-40.362700	2.044840	20.539960	0.056763	1.037473	-0.088562	-1.000000	-1.000000	-1.000000	-1.000000	-1.000000	-1.000000	-1.000000	146.827586	0.000000	-1.000000	-1.000000	563391.000000	1772311786.682220
-23019.570000	-31746.015000	-30327.345000	-15329.970000	0.000000	0.000000	0.000000	0.000000	79.055453	30.777769	82.429082	16.726543	-0.000000	0.000000	-0.000000	0.000000	-40.362700	2.044840	20.539960	0.056763	1.037473	-0.088562	-1.000000	-1.000000	-1.000000	-1.000000	-1.000000	-1.000000	-1.000000	146.827586	0.000000	-1.000000	-1.000000	563392.000000	1772311786.686114
-22894.605000	-31699.665000	-30179.115000	-15263.505000	0.000000	0.000000	0.000000	0.000000	55.784685	29.103947	54.303072	5.508848	-0.000000	0.000000	-0.000000	0.000000	-40.362700	2.044840	20.539960	0.056763	1.037473	-0.088562	-1.000000	-1.000000	-1.000000	-1.000000	-1.000000	-1.000000	-1.000000	146.827586	0.000000	-1.000000	-1.000000	563393.000000	1772311786.686117
-22901.805000	-31693.230000	-30153.330000	-15294.780000	0.000000	0.000000	0.000000	0.000000	20.155093	19.037798	18.538718	-6.172361	-0.000000	0.000000	-0.000000	0.000000	-40.362700	2.044840	20.539960	0.056763	1.037473	-0.088562	-1.000000	-1.000000	-1.000000	-1.000000	-1.000000	-1.000000	-1.000000	146.827586	0.000000	-1.000000	-1.000000	563394.000000	1772311786.690083
-23142.870000	-31734.135000	-30412.620000	-15478.740000	0.000000	0.000000	0.000000	0.000000	-10.777428	7.011562	-11.460517	-14.588471	-0.000000	0.000000	-0.000000	0.000000	-40.362700	2.044840	20.539960	0.056763	1.037473	-0.088562	-1.000000	-1.000000	-1.000000	-1.000000	-1.000000	-1.000000	-1.000000	146.827586	0.000000	-1.000000	-1.000000	563395.000000	1772311786.690085
-23205.420000	-31768.065000	-30542.220000	-15598.260000	0.000000	0.000000	0.000000	0.000000	-45.050536	-6.474855	-48.725788	-29.906461	-0.000000	0.000000	-0.000000	0.000000	-40.362700	2.044840	20.539960	0.056763	1.037473	-0.088562	-1.000000	-1.000000	-1.000000	-1.000000	-1.000000	-1.000000	-1.000000	146.827586	0.000000	-1.000000	-1.000000	563396.000000	1772311786.694037
-22912.830000	-31791.285000	-30386.160000	-15461.370000	0.000000	0.000000	0.000000	0.000000	-74.397061	-20.995737	-90.579690	-48.566243	-0.000000	0.000000	-0.000000	0.000000	-40.362700	2.044840	20.539960	0.056763	1.037473	-0.088562	-1.000000	-1.000000	-1.000000	-1.000000	-1.000000	-1.000000	-1.000000	146.827586	0.000000	-1.000000	-1.000000	563397.000000	1772311786.694040
-22649.490000	-31787.235000	-30201.615000	-15334.875000	0.000000	0.000000	0.000000	0.000000	-59.904032	-30.553203	-97.313642	-42.461914	-0.000000	0.000000	-0.000000	0.000000	-35.723660	2.624720	18.174660	0.047668	0.966611	-0.065979	-1.000000	-1.000000	-1.000000	-1.000000	-1.000000	-1.000000	-1.000000	146.827586	0.000000	-1.000000	-1.000000	563398.000000	1772311786.698221
-22477.275000	-31764.915000	-30032.640000	-15094.620000	0.000000	0.000000	0.000000	0.000000	14.248423	-27.596024	-39.444760	8.110022	-0.000000	0.000000	-0.000000	0.000000	-35.723660	2.624720	18.174660	0.047668	0.966611	-0.065979	-1.000000	-1.000000	-1.000000	-1.000000	-1.000000	-1.000000	-1.000000	146.827586	0.000000	-1.000000	-1.000000	563399.000000	1772311786.698223
-22833.630000	-31785.435000	-30349.485000	-15244.470000	0.000000	0.000000	0.000000	0.000000	95.436000	-11.279348	50.179631	79.839254	-0.000000	0.000000	-0.000000	0.000000	-35.723660	2.624720	18.174660	0.047668	0.966611	-0.065979	-1.000000	-1.000000	-1.000000	-1.000000	-1.000000	-1.000000	-1.000000	146.827586	0.000000	-1.000000	-1.000000	563400.000000	1772311786.702128
-23157.720000	-31790.700000	-30611.790000	-15459.300000	0.000000	0.000000	0.000000	0.000000	97.527387	9.419460	92.591653	112.615157	-0.000000	0.000000	-0.000000	0.000000	-35.723660	2.624720	18.174660	0.047668	0.966611	-0.065979	-1.000000	-1.000000	-1.000000	-1.000000	-1.000000	-1.000000	-1.000000	146.827586	0.000000	-1.000000	-1.000000	563401.000000	1772311786.702131
-22971.195000	-31791.870000	-30504.420000	-15381.720000	0.000000	0.000000	0.000000	0.000000	-1.095947	23.100088	48.295403	67.526725	-0.000000	0.000000	-0.000000	0.000000	-35.723660	2.624720	18.174660	0.047668	0.966611	-0.065979	-1.000000	-1.000000	-1.000000	-1.000000	-1.000000	-1.000000	-1.000000	146.827586	0.000000	-1.000000	-1.000000	563402.000000	1772311786.705895
-22839.480000	-31815.405000	-30363.165000	-15280.920000	0.000000	0.000000	0.000000	0.000000	-114.116070	24.683844	-29.548721	-21.040169	-0.000000	0.000000	-0.000000	0.000000	-35.723660	2.624720	18.174660	0.047668	0.966611	-0.065979	-1.000000	-1.000000	-1.000000	-1.000000	-1.000000	-1.000000	-1.000000	146.827586	0.000000	-1.000000	-1.000000	563403.000000	1772311786.705898
-22842.765000	-31840.875000	-30303.450000	-15286.680000	0.000000	0.000000	0.000000	0.000000	-141.048741	15.716863	-59.288239	-82.284858	-0.000000	0.000000	-0.000000	0.000000	-35.723660	2.624720	18.174660	0.047668	0.966611	-0.065979	-1.000000	-1.000000	-1.000000	-1.000000	-1.000000	-1.000000	-1.000000	146.827586	0.000000	-1.000000	-1.000000	563404.000000	1772311786.713652
-22786.515000	-31862.700000	-30262.995000	-15304.680000	0.000000	0.000000	0.000000	0.000000	-71.137928	1.409334	-20.672340	-84.534384	-0.000000	0.000000	-0.000000	0.000000	-35.723660	2.624720	18.174660	0.047668	0.966611	-0.065979	-1.000000	-1.000000	-1.000000	-1.000000	-1.000000	-1.000000	-1.000000	146.827586	0.000000	-1.000000	-1.000000	563405.000000	1772311786.713654
-22707.225000	-31906.755000	-30241.125000	-15237.630000	0.000000	0.000000	0.000000	0.000000	33.550278	-11.823796	42.818514	-46.502209	-0.000000	0.000000	-0.000000	0.000000	-35.723660	2.624720	18.174660	0.047668	0.966611	-0.065979	-1.000000	-1.000000	-1.000000	-1.000000	-1.000000	-1.000000	-1.000000	146.827586	0.000000	-1.000000	-1.000000	563406.000000	1772311786.714184
-22752.900000	-31919.715000	-30414.915000	-15531.345000	0.000000	0.000000	0.000000	0.000000	107.649332	-19.099177	75.746850	-5.225475	-0.000000	0.000000	-0.000000	0.000000	-35.723660	2.624720	18.174660	0.047668	0.966611	-0.065979	-1.000000	-1.000000	-1.000000	-1.000000	-1.000000	-1.000000	-1.000000	146.827586	0.000000	-1.000000	-1.000000	563407.000000	1772311786.714188
-22640.400000	-31891.140000	-30362.265000	-15509.835000	0.000000	0.000000	0.000000	0.000000	119.688363	-17.148219	52.409347	8.672781	-0.000000	0.000000	-0.000000	0.000000	-28.719320	-1.342880	12.726840	0.039551	0.953916	-0.024536	-1.000000	-1.000000	-1.000000	-1.000000	-1.000000	-1.000000	-1.000000	146.827586	0.000000	-1.000000	-1.000000	563408.000000	1772311786.718277
-22578.930000	-31855.500000	-30195.225000	-15240.780000	0.000000	0.000000	0.000000	0.000000	79.954070	-4.342493	-3.205807	0.957698	-0.000000	0.000000	-0.000000	0.000000	-28.719320	-1.342880	12.726840	0.039551	0.953916	-0.024536	-1.000000	-1.000000	-1.000000	-1.000000	-1.000000	-1.000000	-1.000000	146.827586	0.000000	-1.000000	-1.000000	563409.000000	1772311786.718280
-22901.220000	-31864.995000	-30398.670000	-15323.895000	0.000000	0.000000	0.000000	0.000000	15.751125	14.910444	-45.095660	7.568206	-0.000000	0.000000	-0.000000	0.000000	-28.719320	-1.342880	12.726840	0.039551	0.953916	-0.024536	-1.000000	-1.000000	-1.000000	-1.000000	-1.000000	-1.000000	-1.000000	146.827586	0.000000	-1.000000	-1.000000	563410.000000	1772311786.722340
-23013.090000	-31875.705000	-30449.160000	-15381.270000	0.000000	0.000000	0.000000	0.000000	-58.398323	28.966947	-58.930453	34.759183	-0.000000	0.000000	-0.000000	0.000000	-28.719320	-1.342880	12.726840	0.039551	0.953916	-0.024536	-1.000000	-1.000000	-1.000000	-1.000000	-1.000000	-1.000000	-1.000000	146.827586	0.000000	-1.000000	-1.000000	563411.000000	1772311786.722343
-22938.030000	-31889.475000	-30397.680000	-15259.860000	0.000000	0.000000	0.000000	0.000000	-121.714574	27.738688	-56.511637	53.117723	-0.000000	0.000000	-0.000000	0.000000	-28.719320	-1.342880	12.726840	0.039551	0.953916	-0.024536	-1.000000	-1.000000	-1.000000	-1.000000	-1.000000	-1.000000	-1.000000	146.827586	0.000000	-1.000000	-1.000000	563412.000000	1772311786.728376
-22882.815000	-31886.595000	-30460.050000	-15352.380000	0.000000	0.000000	0.000000	0.000000	-133.077123	11.929705	-41.022853	46.227650	-0.000000	0.000000	-0.000000	0.000000	-28.719320	-1.342880	12.726840	0.039551	0.953916	-0.024536	-1.000000	-1.000000	-1.000000	-1.000000	-1.000000	-1.000000	-1.000000	146.827586	0.000000	-1.000000	-1.000000	563413.000000	1772311786.728379
-22632.660000	-31839.930000	-30320.370000	-15284.655000	0.000000	0.000000	0.000000	0.000000	-69.556822	-7.371998	-10.905489	20.159704	-0.000000	0.000000	-0.000000	0.000000	-28.719320	-1.342880	12.726840	0.039551	0.953916	-0.024536	-1.000000	-1.000000	-1.000000	-1.000000	-1.000000	-1.000000	-1.000000	146.827586	0.000000	-1.000000	-1.000000	563414.000000	1772311786.730932
-22514.445000	-31802.580000	-30196.080000	-15201.720000	0.000000	0.000000	0.000000	0.000000	44.639226	-17.229613	30.357001	-9.129700	-0.000000	0.000000	-0.000000	0.000000	-28.719320	-1.342880	12.726840	0.039551	0.953916	-0.024536	-1.000000	-1.000000	-1.000000	-1.000000	-1.000000	-1.000000	-1.000000	146.827586	0.000000	-1.000000	-1.000000	563415.000000	1772311786.730935
-22731.075000	-31803.840000	-30364.065000	-15381.450000	0.000000	0.000000	0.000000	0.000000	144.453440	-13.653666	68.167237	-27.929048	-0.000000	0.000000	-0.000000	0.000000	-28.719320	-1.342880	12.726840	0.039551	0.953916	-0.024536	-1.000000	-1.000000	-1.000000	-1.000000	-1.000000	-1.000000	-1.000000	146.827586	0.000000	-1.000000	-1.000000	563416.000000	1772311786.735096
-22658.535000	-31819.725000	-30290.040000	-15343.380000	0.000000	0.000000	0.000000	0.000000	162.713389	-4.790956	75.900309	-38.363819	-0.000000	0.000000	-0.000000	0.000000	-28.719320	-1.342880	12.726840	0.039551	0.953916	-0.024536	-1.000000	-1.000000	-1.000000	-1.000000	-1.000000	-1.000000	-1.000000	146.827586	0.000000	-1.000000	-1.000000	563417.000000	1772311786.735099
-22672.980000	-31853.385000	-30332.340000	-15245.640000	0.000000	0.000000	0.000000	0.000000	90.884459	-1.920885	44.058760	-42.317635	-0.000000	0.000000	-0.000000	0.000000	-17.686340	0.106820	3.082520	0.048828	0.899290	-0.007263	-1.000000	-1.000000	-1.000000	-1.000000	-1.000000	-1.000000	-1.000000	146.827586	0.000000	-1.000000	-1.000000	563418.000000	1772311786.738275
-22654.620000	-31886.280000	-30367.395000	-15313.005000	0.000000	0.000000	0.000000	0.000000	-15.765973	-8.895905	-6.889194	-31.111173	-0.000000	0.000000	-0.000000	0.000000	-17.686340	0.106820	3.082520	0.048828	0.899290	-0.007263	-1.000000	-1.000000	-1.000000	-1.000000	-1.000000	-1.000000	-1.000000	146.827586	0.000000	-1.000000	-1.000000	563419.000000	1772311786.738278
-22572.540000	-31898.970000	-30246.345000	-15241.815000	0.000000	0.000000	0.000000	0.000000	-93.583765	-19.891083	-47.617173	-6.329318	-0.000000	0.000000	-0.000000	0.000000	-17.686340	0.106820	3.082520	0.048828	0.899290	-0.007263	-1.000000	-1.000000	-1.000000	-1.000000	-1.000000	-1.000000	-1.000000	146.827586	0.000000	-1.000000	-1.000000	563420.000000	1772311786.747001
-22440.465000	-31881.150000	-30186.000000	-15291.225000	0.000000	0.000000	0.000000	0.000000	-108.973012	-24.364610	-55.798194	17.747184	-0.000000	0.000000	-0.000000	0.000000	-17.686340	0.106820	3.082520	0.048828	0.899290	-0.007263	-1.000000	-1.000000	-1.000000	-1.000000	-1.000000	-1.000000	-1.000000	146.827586	0.000000	-1.000000	-1.000000	563421.000000	1772311786.747004
-22288.185000	-31838.625000	-30038.625000	-15336.180000	0.000000	0.000000	0.000000	0.000000	-64.930745	-14.669676	-27.677715	28.001215	-0.000000	0.000000	-0.000000	0.000000	-17.686340	0.106820	3.082520	0.048828	0.899290	-0.007263	-1.000000	-1.000000	-1.000000	-1.000000	-1.000000	-1.000000	-1.000000	146.827586	0.000000	-1.000000	-1.000000	563422.000000	1772311786.747008
-22453.065000	-31826.430000	-30175.155000	-15310.755000	0.000000	0.000000	0.000000	0.000000	1.909213	7.463457	14.385603	20.410234	-0.000000	0.000000	-0.000000	0.000000	-17.686340	0.106820	3.082520	0.048828	0.899290	-0.007263	-1.000000	-1.000000	-1.000000	-1.000000	-1.000000	-1.000000	-1.000000	146.827586	0.000000	-1.000000	-1.000000	563423.000000	1772311786.747010
-22841.910000	-31835.070000	-30605.625000	-15464.790000	0.000000	0.000000	0.000000	0.000000	33.625078	29.955344	27.284106	1.753424	-0.000000	0.000000	-0.000000	0.000000	-17.686340	0.106820	3.082520	0.048828	0.899290	-0.007263	-1.000000	-1.000000	-1.000000	-1.000000	-1.000000	-1.000000	-1.000000	146.827586	0.000000	-1.000000	-1.000000	563424.000000	1772311786.750290
-22722.795000	-31854.465000	-30483.990000	-15372.720000	0.000000	0.000000	0.000000	0.000000	-1.173367	38.339728	-14.765241	-16.967662	-0.000000	0.000000	-0.000000	0.000000	-17.686340	0.106820	3.082520	0.048828	0.899290	-0.007263	-1.000000	-1.000000	-1.000000	-1.000000	-1.000000	-1.000000	-1.000000	146.827586	0.000000	-1.000000	-1.000000	563425.000000	1772311786.750294
-22517.775000	-31875.390000	-30263.580000	-15229.305000	0.000000	0.000000	0.000000	0.000000	-57.843109	27.030098	-70.114317	-20.346295	-0.000000	0.000000	-0.000000	0.000000	-17.686340	0.106820	3.082520	0.048828	0.899290	-0.007263	-1.000000	-1.000000	-1.000000	-1.000000	-1.000000	-1.000000	-1.000000	146.827586	0.000000	-1.000000	-1.000000	563426.000000	1772311786.754623
-22607.415000	-31888.305000	-30435.480000	-15498.945000	0.000000	0.000000	0.000000	0.000000	-63.291777	3.074635	-70.895875	-2.134526	-0.000000	0.000000	-0.000000	0.000000	-17.686340	0.106820	3.082520	0.048828	0.899290	-0.007263	-1.000000	-1.000000	-1.000000	-1.000000	-1.000000	-1.000000	-1.000000	146.827586	0.000000	-1.000000	-1.000000	563427.000000	1772311786.754626
-22403.880000	-31860.990000	-30254.310000	-15382.620000	0.000000	0.000000	0.000000	0.000000	-4.760410	-19.124147	-10.857461	17.141345	-0.000000	0.000000	-0.000000	0.000000	5.707240	9.583280	0.137340	0.089233	0.849424	-0.044189	-1.000000	-1.000000	-1.000000	-1.000000	-1.000000	-1.000000	-1.000000	146.827586	0.000000	-1.000000	-1.000000	563428.000000	1772311786.758466
-22470.345000	-31861.620000	-30174.390000	-15111.045000	0.000000	0.000000	0.000000	0.000000	71.997340	-27.280090	65.090216	25.037776	-0.000000	0.000000	-0.000000	0.000000	5.707240	9.583280	0.137340	0.089233	0.849424	-0.044189	-1.000000	-1.000000	-1.000000	-1.000000	-1.000000	-1.000000	-1.000000	146.827586	0.000000	-1.000000	-1.000000	563429.000000	1772311786.758469
-22703.220000	-31888.800000	-30422.295000	-15257.025000	0.000000	0.000000	0.000000	0.000000	110.304538	-20.129656	110.773187	34.044840	-0.000000	0.000000	-0.000000	0.000000	5.707240	9.583280	0.137340	0.089233	0.849424	-0.044189	-1.000000	-1.000000	-1.000000	-1.000000	-1.000000	-1.000000	-1.000000	146.827586	0.000000	-1.000000	-1.000000	563430.000000	1772311786.762357
-22935.195000	-31920.345000	-30796.245000	-15626.790000	0.000000	0.000000	0.000000	0.000000	74.113992	-7.376755	87.828392	32.806940	-0.000000	0.000000	-0.000000	0.000000	5.707240	9.583280	0.137340	0.089233	0.849424	-0.044189	-1.000000	-1.000000	-1.000000	-1.000000	-1.000000	-1.000000	-1.000000	146.827586	0.000000	-1.000000	-1.000000	563431.000000	1772311786.762361
-22712.445000	-31939.650000	-30576.420000	-15491.025000	0.000000	0.000000	0.000000	0.000000	-15.389196	0.801425	-1.606054	-6.057108	-0.000000	0.000000	-0.000000	0.000000	5.707240	9.583280	0.137340	0.089233	0.849424	-0.044189	-1.000000	-1.000000	-1.000000	-1.000000	-1.000000	-1.000000	-1.000000	146.827586	0.000000	-1.000000	-1.000000	563432.000000	1772311786.766731
-22372.920000	-31921.515000	-30267.270000	-15304.725000	0.000000	0.000000	0.000000	0.000000	-77.699598	2.810513	-82.376816	-57.824399	-0.000000	0.000000	-0.000000	0.000000	5.707240	9.583280	0.137340	0.089233	0.849424	-0.044189	-1.000000	-1.000000	-1.000000	-1.000000	-1.000000	-1.000000	-1.000000	146.827586	0.000000	-1.000000	-1.000000	563433.000000	1772311786.766734
-22366.530000	-31924.035000	-30272.265000	-15367.320000	0.000000	0.000000	0.000000	0.000000	-51.102409	3.958195	-75.840632	-66.080852	-0.000000	0.000000	-0.000000	0.000000	5.707240	9.583280	0.137340	0.089233	0.849424	-0.044189	-1.000000	-1.000000	-1.000000	-1.000000	-1.000000	-1.000000	-1.000000	146.827586	0.000000	-1.000000	-1.000000	563434.000000	1772311786.772101
-22508.730000	-31949.415000	-30307.995000	-15329.790000	0.000000	0.000000	0.000000	0.000000	31.406014	7.385360	3.933289	-22.906676	-0.000000	0.000000	-0.000000	0.000000	5.707240	9.583280	0.137340	0.089233	0.849424	-0.044189	-1.000000	-1.000000	-1.000000	-1.000000	-1.000000	-1.000000	-1.000000	146.827586	0.000000	-1.000000	-1.000000	563435.000000	1772311786.772105
-22464.045000	-31955.985000	-30218.220000	-15295.095000	0.000000	0.000000	0.000000	0.000000	82.590854	10.222351	76.612665	31.375167	-0.000000	0.000000	-0.000000	0.000000	5.707240	9.583280	0.137340	0.089233	0.849424	-0.044189	-1.000000	-1.000000	-1.000000	-1.000000	-1.000000	-1.000000	-1.000000	146.827586	0.000000	-1.000000	-1.000000	563436.000000	1772311786.774501
-21878.190000	-31905.315000	-29764.440000	-15045.075000	0.000000	0.000000	0.000000	0.000000	71.769411	10.266045	97.485565	65.338333	-0.000000	0.000000	-0.000000	0.000000	5.707240	9.583280	0.137340	0.089233	0.849424	-0.044189	-1.000000	-1.000000	-1.000000	-1.000000	-1.000000	-1.000000	-1.000000	146.827586	0.000000	-1.000000	-1.000000	563437.000000	1772311786.774504
-21872.340000	-31896.270000	-29740.995000	-14972.715000	0.000000	0.000000	0.000000	0.000000	43.863891	10.108858	83.379504	76.406696	-0.000000	0.000000	-0.000000	0.000000	13.199900	12.024880	-2.533160	0.103882	0.879942	-0.062073	-1.000000	-1.000000	-1.000000	-1.000000	-1.000000	-1.000000	-1.000000	146.827586	0.000000	-1.000000	-1.000000	563438.000000	1772311786.778410
-22615.290000	-31927.140000	-30412.440000	-15391.800000	0.000000	0.000000	0.000000	0.000000	13.846105	10.310468	39.476664	59.503148	-0.000000	0.000000	-0.000000	0.000000	13.199900	12.024880	-2.533160	0.103882	0.879942	-0.062073	-1.000000	-1.000000	-1.000000	-1.000000	-1.000000	-1.000000	-1.000000	146.827586	0.000000	-1.000000	-1.000000	563439.000000	1772311786.778414
-22446.540000	-31894.245000	-30428.370000	-15427.575000	0.000000	0.000000	0.000000	0.000000	-59.747213	6.902516	-60.535257	-3.500101	0.000000	0.000000	-0.000000	0.000000	13.199900	12.024880	-2.533160	0.103882	0.879942	-0.062073	-1.000000	-1.000000	-1.000000	-1.000000	-1.000000	-1.000000	-1.000000	146.827586	0.000000	-1.000000	-1.000000	563440.000000	1772311786.782476
-22365.270000	-31819.950000	-30141.675000	-15191.100000	0.000000	0.000000	0.000000	0.000000	-158.258709	0.642065	-181.290806	-89.943496	0.000000	0.000000	-0.000000	0.000000	13.199900	12.024880	-2.533160	0.103882	0.879942	-0.062073	-1.000000	-1.000000	-1.000000	-1.000000	-1.000000	-1.000000	-1.000000	146.827586	0.000000	-1.000000	-1.000000	563441.000000	1772311786.782481
-22833.495000	-31805.055000	-30477.870000	-15487.200000	0.000000	0.000000	0.000000	0.000000	-200.862477	-2.034336	-225.705486	-134.996346	0.000000	0.000000	-0.000000	0.000000	13.199900	12.024880	-2.533160	0.103882	0.879942	-0.062073	-1.000000	-1.000000	-1.000000	-1.000000	-1.000000	-1.000000	-1.000000	146.827586	0.000000	-1.000000	-1.000000	563442.000000	1772311786.786403
-22768.470000	-31768.695000	-30626.865000	-15563.205000	0.000000	0.000000	0.000000	0.000000	-160.659817	0.157483	-163.226246	-114.658245	0.000000	0.000000	-0.000000	0.000000	13.199900	12.024880	-2.533160	0.103882	0.879942	-0.062073	-1.000000	-1.000000	-1.000000	-1.000000	-1.000000	-1.000000	-1.000000	146.827586	0.000000	-1.000000	-1.000000	563443.000000	1772311786.786407
-22571.505000	-31746.105000	-30511.665000	-15428.115000	0.000000	0.000000	0.000000	0.000000	-61.792647	1.892372	-47.495756	-55.743350	0.000000	0.000000	-0.000000	0.000000	13.199900	12.024880	-2.533160	0.103882	0.879942	-0.062073	-1.000000	-1.000000	-1.000000	-1.000000	-1.000000	-1.000000	-1.000000	146.827586	0.000000	-1.000000	-1.000000	563444.000000	1772311786.790409
-22519.755000	-31757.895000	-30506.355000	-15313.095000	0.000000	0.000000	0.000000	0.000000	71.066773	-1.505288	70.065815	20.340549	0.000000	0.000000	-0.000000	0.000000	13.199900	12.024880	-2.533160	0.103882	0.879942	-0.062073	-1.000000	-1.000000	-1.000000	-1.000000	-1.000000	-1.000000	-1.000000	146.827586	0.000000	-1.000000	-1.000000	563445.000000	1772311786.790413
-22480.785000	-31783.230000	-30495.375000	-15379.335000	0.000000	0.000000	0.000000	0.000000	194.570978	-11.226744	160.336299	96.338806	0.000000	0.000000	-0.000000	0.000000	13.199900	12.024880	-2.533160	0.103882	0.879942	-0.062073	-1.000000	-1.000000	-1.000000	-1.000000	-1.000000	-1.000000	-1.000000	146.827586	0.000000	-1.000000	-1.000000	563446.000000	1772311786.794388
-22383.315000	-31777.065000	-30365.370000	-15322.815000	0.000000	0.000000	0.000000	0.000000	252.260756	-23.885282	200.970791	139.887625	0.000000	0.000000	-0.000000	0.000000	13.199900	12.024880	-2.533160	0.103882	0.879942	-0.062073	-1.000000	-1.000000	-1.000000	-1.000000	-1.000000	-1.000000	-1.000000	146.827586	0.000000	-1.000000	-1.000000	563447.000000	1772311786.794392
-22401.855000	-31748.985000	-30337.920000	-15330.645000	0.000000	0.000000	0.000000	0.000000	218.669364	-31.008807	185.703316	128.433472	0.000000	0.000000	-0.000000	0.000000	-11.658640	1.663340	1.480220	0.080139	0.998594	-0.026489	-1.000000	-1.000000	-1.000000	-1.000000	-1.000000	-1.000000	-1.000000	146.827586	0.000000	-1.000000	-1.000000	563448.000000	1772311786.798524
-22647.870000	-31737.105000	-30489.390000	-15431.040000	0.000000	0.000000	0.000000	0.000000	107.955171	-25.007126	122.045025	69.255582	0.000000	0.000000	-0.000000	0.000000	-11.658640	1.663340	1.480220	0.080139	0.998594	-0.026489	-1.000000	-1.000000	-1.000000	-1.000000	-1.000000	-1.000000	-1.000000	146.827586	0.000000	-1.000000	-1.000000	563449.000000	1772311786.798528
-22546.395000	-31704.120000	-30398.265000	-15424.965000	0.000000	0.000000	0.000000	0.000000	-38.831611	-6.800079	25.418338	-11.039407	0.000000	0.000000	-0.000000	0.000000	-11.658640	1.663340	1.480220	0.080139	0.998594	-0.026489	-1.000000	-1.000000	-1.000000	-1.000000	-1.000000	-1.000000	-1.000000	146.827586	0.000000	-1.000000	-1.000000	563450.000000	1772311786.802467
-22285.035000	-31645.710000	-30157.515000	-15100.065000	0.000000	0.000000	0.000000	0.000000	-153.573960	15.530281	-66.241351	-72.384356	0.000000	0.000000	-0.000000	0.000000	-11.658640	1.663340	1.480220	0.080139	0.998594	-0.026489	-1.000000	-1.000000	-1.000000	-1.000000	-1.000000	-1.000000	-1.000000	146.827586	0.000000	-1.000000	-1.000000	563451.000000	1772311786.802471
-22349.070000	-31626.540000	-30309.705000	-15298.785000	0.000000	0.000000	0.000000	0.000000	-176.686945	32.971939	-110.310046	-81.444741	0.000000	0.000000	-0.000000	0.000000	-11.658640	1.663340	1.480220	0.080139	0.998594	-0.026489	-1.000000	-1.000000	-1.000000	-1.000000	-1.000000	-1.000000	-1.000000	146.827586	0.000000	-1.000000	-1.000000	563452.000000	1772311786.806521
-22310.325000	-31612.590000	-30240.540000	-15259.365000	0.000000	0.000000	0.000000	0.000000	-116.150516	38.100599	-105.037026	-50.590005	0.000000	0.000000	-0.000000	0.000000	-11.658640	1.663340	1.480220	0.080139	0.998594	-0.026489	-1.000000	-1.000000	-1.000000	-1.000000	-1.000000	-1.000000	-1.000000	146.827586	0.000000	-1.000000	-1.000000	563453.000000	1772311786.806523
-22447.665000	-31615.110000	-30375.315000	-15280.830000	0.000000	0.000000	0.000000	0.000000	-35.048754	27.529808	-80.948978	-20.141116	0.000000	0.000000	-0.000000	0.000000	-11.658640	1.663340	1.480220	0.080139	0.998594	-0.026489	-1.000000	-1.000000	-1.000000	-1.000000	-1.000000	-1.000000	-1.000000	146.827586	0.000000	-1.000000	-1.000000	563454.000000	1772311786.810508
-22485.420000	-31606.470000	-30464.190000	-15379.245000	0.000000	0.000000	0.000000	0.000000	11.889321	5.381752	-62.434385	-10.392602	0.000000	0.000000	-0.000000	0.000000	-11.658640	1.663340	1.480220	0.080139	0.998594	-0.026489	-1.000000	-1.000000	-1.000000	-1.000000	-1.000000	-1.000000	-1.000000	146.827586	0.000000	-1.000000	-1.000000	563455.000000	1772311786.810511
-22147.110000	-31592.880000	-30181.095000	-15130.170000	0.000000	0.000000	0.000000	0.000000	20.429954	-17.811344	-48.375138	-13.025222	0.000000	0.000000	-0.000000	0.000000	-11.658640	1.663340	1.480220	0.080139	0.998594	-0.026489	-1.000000	-1.000000	-1.000000	-1.000000	-1.000000	-1.000000	-1.000000	146.827586	0.000000	-1.000000	-1.000000	563456.000000	1772311786.817913
-22253.715000	-31593.555000	-30294.450000	-15246.180000	0.000000	0.000000	0.000000	0.000000	24.612708	-31.520764	-18.621436	-7.458428	0.000000	0.000000	-0.000000	0.000000	-11.658640	1.663340	1.480220	0.080139	0.998594	-0.026489	-1.000000	-1.000000	-1.000000	-1.000000	-1.000000	-1.000000	-1.000000	146.827586	0.000000	-1.000000	-1.000000	563457.000000	1772311786.817916
-22552.335000	-31577.625000	-30566.565000	-15487.830000	0.000000	0.000000	0.000000	0.000000	32.829038	-31.475720	21.719288	5.550774	0.000000	0.000000	-0.000000	0.000000	-33.602520	0.045780	3.784480	0.073425	1.051694	-0.006470	-1.000000	-1.000000	-1.000000	-1.000000	-1.000000	-1.000000	-1.000000	146.827586	0.000000	-1.000000	-1.000000	563458.000000	1772311786.818626
-22444.470000	-31570.380000	-30461.715000	-15357.780000	0.000000	0.000000	0.000000	0.000000	18.753962	-20.297343	38.973261	4.386282	0.000000	0.000000	-0.000000	0.000000	-33.602520	0.045780	3.784480	0.073425	1.051694	-0.006470	-1.000000	-1.000000	-1.000000	-1.000000	-1.000000	-1.000000	-1.000000	146.827586	0.000000	-1.000000	-1.000000	563459.000000	1772311786.818629
-22434.345000	-31572.855000	-30472.380000	-15357.105000	0.000000	0.000000	0.000000	0.000000	-14.587538	-4.581095	28.645428	-7.345696	0.000000	0.000000	-0.000000	0.000000	-33.602520	0.045780	3.784480	0.073425	1.051694	-0.006470	-1.000000	-1.000000	-1.000000	-1.000000	-1.000000	-1.000000	-1.000000	146.827586	0.000000	-1.000000	-1.000000	563460.000000	1772311786.822549
-22450.365000	-31600.170000	-30496.095000	-15374.925000	0.000000	0.000000	0.000000	0.000000	-32.141073	7.913828	17.695148	-6.123201	0.000000	0.000000	-0.000000	0.000000	-33.602520	0.045780	3.784480	0.073425	1.051694	-0.006470	-1.000000	-1.000000	-1.000000	-1.000000	-1.000000	-1.000000	-1.000000	146.827586	0.000000	-1.000000	-1.000000	563461.000000	1772311786.822551
-22272.930000	-31615.560000	-30253.860000	-15146.145000	0.000000	0.000000	0.000000	0.000000	-15.880346	11.879994	24.041609	15.440732	0.000000	0.000000	-0.000000	0.000000	-33.602520	0.045780	3.784480	0.073425	1.051694	-0.006470	-1.000000	-1.000000	-1.000000	-1.000000	-1.000000	-1.000000	-1.000000	146.827586	0.000000	-1.000000	-1.000000	563462.000000	1772311786.826599
-22271.130000	-31645.845000	-30301.515000	-15204.555000	0.000000	0.000000	0.000000	0.000000	24.880482	7.627108	47.016981	47.638233	0.000000	0.000000	-0.000000	0.000000	-33.602520	0.045780	3.784480	0.073425	1.051694	-0.006470	-1.000000	-1.000000	-1.000000	-1.000000	-1.000000	-1.000000	-1.000000	146.827586	0.000000	-1.000000	-1.000000	563463.000000	1772311786.826603
-22289.940000	-31642.785000	-30369.870000	-15374.115000	0.000000	0.000000	0.000000	0.000000	62.692414	0.494288	65.034785	64.923809	0.000000	0.000000	-0.000000	0.000000	-33.602520	0.045780	3.784480	0.073425	1.051694	-0.006470	-1.000000	-1.000000	-1.000000	-1.000000	-1.000000	-1.000000	-1.000000	146.827586	0.000000	-1.000000	-1.000000	563464.000000	1772311786.830535
-22405.635000	-31669.020000	-30456.720000	-15480.540000	0.000000	0.000000	0.000000	0.000000	66.007285	-3.337765	48.374430	38.721538	0.000000	0.000000	-0.000000	0.000000	-33.602520	0.045780	3.784480	0.073425	1.051694	-0.006470	-1.000000	-1.000000	-1.000000	-1.000000	-1.000000	-1.000000	-1.000000	146.827586	0.000000	-1.000000	-1.000000	563465.000000	1772311786.830538
-22241.520000	-31690.890000	-30333.600000	-15419.160000	0.000000	0.000000	0.000000	0.000000	28.915082	-1.768041	-2.756752	-23.194205	0.000000	0.000000	-0.000000	0.000000	-33.602520	0.045780	3.784480	0.073425	1.051694	-0.006470	-1.000000	-1.000000	-1.000000	-1.000000	-1.000000	-1.000000	-1.000000	146.827586	0.000000	-1.000000	-1.000000	563466.000000	1772311786.834584
-22296.015000	-31689.585000	-30384.675000	-15409.170000	0.000000	0.000000	0.000000	0.000000	-19.566319	2.955566	-53.171772	-74.120958	0.000000	0.000000	-0.000000	0.000000	-33.602520	0.045780	3.784480	0.073425	1.051694	-0.006470	-1.000000	-1.000000	-1.000000	-1.000000	-1.000000	-1.000000	-1.000000	146.827586	0.000000	-1.000000	-1.000000	563467.000000	1772311786.834587
-22528.575000	-31704.795000	-30552.525000	-15371.145000	0.000000	0.000000	0.000000	0.000000	-52.958757	8.142168	-75.607666	-76.073298	0.000000	0.000000	-0.000000	0.000000	-13.276200	3.860780	1.739640	0.083618	0.987974	-0.011963	-1.000000	-1.000000	-1.000000	-1.000000	-1.000000	-1.000000	-1.000000	146.827586	0.000000	-1.000000	-1.000000	563468.000000	1772311786.838660
-22393.215000	-31729.725000	-30415.050000	-15202.215000	0.000000	0.000000	0.000000	0.000000	-69.231983	11.510602	-71.041471	-29.611727	0.000000	0.000000	-0.000000	0.000000	-13.276200	3.860780	1.739640	0.083618	0.987974	-0.011963	-1.000000	-1.000000	-1.000000	-1.000000	-1.000000	-1.000000	-1.000000	146.827586	0.000000	-1.000000	-1.000000	563469.000000	1772311786.838662
-22192.515000	-31727.700000	-30195.000000	-15168.555000	0.000000	0.000000	0.000000	0.000000	-60.660542	11.161244	-40.559658	37.382524	0.000000	0.000000	-0.000000	0.000000	-13.276200	3.860780	1.739640	0.083618	0.987974	-0.011963	-1.000000	-1.000000	-1.000000	-1.000000	-1.000000	-1.000000	-1.000000	146.827586	0.000000	-1.000000	-1.000000	563470.000000	1772311786.842660
-22060.440000	-31703.040000	-30101.445000	-15139.170000	0.000000	0.000000	0.000000	0.000000	-12.355382	8.357125	18.246657	87.177725	0.000000	0.000000	-0.000000	0.000000	-13.276200	3.860780	1.739640	0.083618	0.987974	-0.011963	-1.000000	-1.000000	-1.000000	-1.000000	-1.000000	-1.000000	-1.000000	146.827586	0.000000	-1.000000	-1.000000	563471.000000	1772311786.842663
-22196.565000	-31706.280000	-30373.605000	-15364.890000	0.000000	0.000000	0.000000	0.000000	55.585506	6.520671	76.287360	86.733595	0.000000	0.000000	-0.000000	0.000000	-13.276200	3.860780	1.739640	0.083618	0.987974	-0.011963	-1.000000	-1.000000	-1.000000	-1.000000	-1.000000	-1.000000	-1.000000	146.827586	0.000000	-1.000000	-1.000000	563472.000000	1772311786.846592
-22168.710000	-31690.800000	-30358.170000	-15489.855000	0.000000	0.000000	0.000000	0.000000	91.120786	6.324103	82.888107	26.399068	0.000000	0.000000	-0.000000	0.000000	-13.276200	3.860780	1.739640	0.083618	0.987974	-0.011963	-1.000000	-1.000000	-1.000000	-1.000000	-1.000000	-1.000000	-1.000000	146.827586	0.000000	-1.000000	-1.000000	563473.000000	1772311786.846595
-22259.790000	-31674.735000	-30310.380000	-15249.690000	0.000000	0.000000	0.000000	0.000000	65.318344	5.712490	29.392629	-59.242889	0.000000	0.000000	-0.000000	0.000000	-13.276200	3.860780	1.739640	0.083618	0.987974	-0.011963	-1.000000	-1.000000	-1.000000	-1.000000	-1.000000	-1.000000	-1.000000	146.827586	0.000000	-1.000000	-1.000000	563474.000000	1772311786.850753
-22649.445000	-31703.040000	-30731.535000	-15451.605000	0.000000	0.000000	0.000000	0.000000	-8.585072	2.656722	-44.238746	-108.320006	0.000000	0.000000	-0.000000	0.000000	-13.276200	3.860780	1.739640	0.083618	0.987974	-0.011963	-1.000000	-1.000000	-1.000000	-1.000000	-1.000000	-1.000000	-1.000000	146.827586	0.000000	-1.000000	-1.000000	563475.000000	1772311786.850755
-22445.190000	-31663.755000	-30518.415000	-15338.340000	0.000000	0.000000	0.000000	0.000000	-92.936027	-3.410744	-99.310772	-92.945474	0.000000	0.000000	-0.000000	0.000000	-13.276200	3.860780	1.739640	0.083618	0.987974	-0.011963	-1.000000	-1.000000	-1.000000	-1.000000	-1.000000	-1.000000	-1.000000	146.827586	0.000000	-1.000000	-1.000000	563476.000000	1772311786.854572
-22400.190000	-31642.335000	-30451.860000	-15387.255000	0.000000	0.000000	0.000000	0.000000	-131.413666	-9.227462	-104.594782	-35.006128	0.000000	0.000000	-0.000000	0.000000	-13.276200	3.860780	1.739640	0.083618	0.987974	-0.011963	-1.000000	-1.000000	-1.000000	-1.000000	-1.000000	-1.000000	-1.000000	146.827586	0.000000	-1.000000	-1.000000	563477.000000	1772311786.854576
-22274.955000	-31627.260000	-30365.505000	-15342.615000	0.000000	0.000000	0.000000	0.000000	-85.389416	-10.280413	-43.896177	29.061488	0.000000	0.000000	-0.000000	0.000000	9.659580	1.373400	6.180300	0.079773	0.938718	0.004211	-1.000000	-1.000000	-1.000000	-1.000000	-1.000000	-1.000000	-1.000000	146.827586	0.000000	-1.000000	-1.000000	563478.000000	1772311786.858733
-22122.765000	-31615.740000	-30136.905000	-15166.845000	0.000000	0.000000	0.000000	0.000000	22.702083	-6.775405	55.782696	74.113624	0.000000	0.000000	-0.000000	0.000000	9.659580	1.373400	6.180300	0.079773	0.938718	0.004211	-1.000000	-1.000000	-1.000000	-1.000000	-1.000000	-1.000000	-1.000000	146.827586	0.000000	-1.000000	-1.000000	563479.000000	1772311786.858736
-22318.830000	-31631.445000	-30290.490000	-15400.845000	0.000000	0.000000	0.000000	0.000000	124.746808	-3.168212	138.204739	89.112607	0.000000	0.000000	-0.000000	0.000000	9.659580	1.373400	6.180300	0.079773	0.938718	0.004211	-1.000000	-1.000000	-1.000000	-1.000000	-1.000000	-1.000000	-1.000000	146.827586	0.000000	-1.000000	-1.000000	563480.000000	1772311786.862709
-22440.735000	-31647.240000	-30383.145000	-15445.665000	0.000000	0.000000	0.000000	0.000000	152.050687	-3.668102	149.980682	64.685900	0.000000	0.000000	-0.000000	0.000000	9.659580	1.373400	6.180300	0.079773	0.938718	0.004211	-1.000000	-1.000000	-1.000000	-1.000000	-1.000000	-1.000000	-1.000000	146.827586	0.000000	-1.000000	-1.000000	563481.000000	1772311786.862712
-22259.070000	-31645.530000	-30357.720000	-15213.150000	0.000000	0.000000	0.000000	0.000000	89.930513	-8.346611	77.879876	10.231279	0.000000	0.000000	-0.000000	0.000000	9.659580	1.373400	6.180300	0.079773	0.938718	0.004211	-1.000000	-1.000000	-1.000000	-1.000000	-1.000000	-1.000000	-1.000000	146.827586	0.000000	-1.000000	-1.000000	563482.000000	1772311786.866665
-22070.835000	-31609.890000	-30261.330000	-15145.830000	0.000000	0.000000	0.000000	0.000000	-1.585119	-11.858251	-29.423888	-31.634743	0.000000	0.000000	-0.000000	0.000000	9.659580	1.373400	6.180300	0.079773	0.938718	0.004211	-1.000000	-1.000000	-1.000000	-1.000000	-1.000000	-1.000000	-1.000000	146.827586	0.000000	-1.000000	-1.000000	563483.000000	1772311786.866667
-21968.325000	-31591.485000	-30103.380000	-15150.420000	0.000000	0.000000	0.000000	0.000000	-50.229909	-8.014978	-99.956050	-32.516511	0.000000	0.000000	-0.000000	0.000000	9.659580	1.373400	6.180300	0.079773	0.938718	0.004211	-1.000000	-1.000000	-1.000000	-1.000000	-1.000000	-1.000000	-1.000000	146.827586	0.000000	-1.000000	-1.000000	563484.000000	1772311786.870677
-22166.280000	-31610.835000	-30291.795000	-15302.025000	0.000000	0.000000	0.000000	0.000000	-45.664985	2.487970	-102.352629	-13.355025	0.000000	0.000000	-0.000000	0.000000	9.659580	1.373400	6.180300	0.079773	0.938718	0.004211	-1.000000	-1.000000	-1.000000	-1.000000	-1.000000	-1.000000	-1.000000	146.827586	0.000000	-1.000000	-1.000000	563485.000000	1772311786.870680
-22340.925000	-31606.515000	-30538.620000	-15502.590000	0.000000	0.000000	0.000000	0.000000	-35.232963	11.605020	-69.370619	-14.090424	0.000000	0.000000	-0.000000	0.000000	9.659580	1.373400	6.180300	0.079773	0.938718	0.004211	-1.000000	-1.000000	-1.000000	-1.000000	-1.000000	-1.000000	-1.000000	146.827586	0.000000	-1.000000	-1.000000	563486.000000	1772311786.875066
-22431.195000	-31593.915000	-30612.870000	-15393.780000	0.000000	0.000000	0.000000	0.000000	-56.298122	13.209135	-51.058039	-44.001928	0.000000	0.000000	-0.000000	0.000000	9.659580	1.373400	6.180300	0.079773	0.938718	0.004211	-1.000000	-1.000000	-1.000000	-1.000000	-1.000000	-1.000000	-1.000000	146.827586	0.000000	-1.000000	-1.000000	563487.000000	1772311786.875069
-22506.840000	-31602.195000	-30700.440000	-15468.075000	0.000000	0.000000	0.000000	0.000000	-93.165672	8.438284	-54.114310	-69.706850	0.000000	0.000000	-0.000000	0.000000	6.699140	-0.595140	5.218920	0.066711	0.960447	0.014770	-1.000000	-1.000000	-1.000000	-1.000000	-1.000000	-1.000000	-1.000000	146.827586	0.000000	-1.000000	-1.000000	563488.000000	1772311786.882995
-22362.705000	-31603.545000	-30481.920000	-15382.395000	0.000000	0.000000	0.000000	0.000000	-100.237561	1.440001	-43.980126	-56.671930	0.000000	0.000000	-0.000000	0.000000	6.699140	-0.595140	5.218920	0.066711	0.960447	0.014770	-1.000000	-1.000000	-1.000000	-1.000000	-1.000000	-1.000000	-1.000000	146.827586	0.000000	-1.000000	-1.000000	563489.000000	1772311786.883000
-22109.130000	-31575.915000	-30194.820000	-15172.020000	0.000000	0.000000	0.000000	0.000000	-45.030826	-4.033870	13.177771	-1.615800	0.000000	0.000000	-0.000000	0.000000	6.699140	-0.595140	5.218920	0.066711	0.960447	0.014770	-1.000000	-1.000000	-1.000000	-1.000000	-1.000000	-1.000000	-1.000000	146.827586	0.000000	-1.000000	-1.000000	563490.000000	1772311786.883004
-22035.195000	-31553.235000	-30156.120000	-15170.985000	0.000000	0.000000	0.000000	0.000000	62.006904	-4.720145	110.126625	72.236426	0.000000	0.000000	-0.000000	0.000000	6.699140	-0.595140	5.218920	0.066711	0.960447	0.014770	-1.000000	-1.000000	-1.000000	-1.000000	-1.000000	-1.000000	-1.000000	146.827586	0.000000	-1.000000	-1.000000	563491.000000	1772311786.883006
-22213.980000	-31553.190000	-30450.780000	-15560.145000	0.000000	0.000000	0.000000	0.000000	158.646412	-0.436298	182.005347	116.544735	0.000000	0.000000	-0.000000	0.000000	6.699140	-0.595140	5.218920	0.066711	0.960447	0.014770	-1.000000	-1.000000	-1.000000	-1.000000	-1.000000	-1.000000	-1.000000	146.827586	0.000000	-1.000000	-1.000000	563492.000000	1772311786.886773
-22152.870000	-31515.930000	-30313.350000	-15247.755000	0.000000	0.000000	0.000000	0.000000	174.418907	4.956016	159.994147	90.523417	0.000000	0.000000	-0.000000	0.000000	6.699140	-0.595140	5.218920	0.066711	0.960447	0.014770	-1.000000	-1.000000	-1.000000	-1.000000	-1.000000	-1.000000	-1.000000	146.827586	0.000000	-1.000000	-1.000000	563493.000000	1772311786.886775
-21982.005000	-31496.175000	-30105.495000	-15039.855000	0.000000	0.000000	0.000000	0.000000	102.516854	7.980357	56.254451	22.754838	0.000000	0.000000	-0.000000	0.000000	6.699140	-0.595140	5.218920	0.066711	0.960447	0.014770	-1.000000	-1.000000	-1.000000	-1.000000	-1.000000	-1.000000	-1.000000	146.827586	0.000000	-1.000000	-1.000000	563494.000000	1772311786.890702
-22325.670000	-31536.045000	-30460.590000	-15391.215000	0.000000	0.000000	0.000000	0.000000	-3.904071	6.682989	-55.555438	-26.493137	0.000000	0.000000	-0.000000	0.000000	6.699140	-0.595140	5.218920	0.066711	0.960447	0.014770	-1.000000	-1.000000	-1.000000	-1.000000	-1.000000	-1.000000	-1.000000	146.827586	0.000000	-1.000000	-1.000000	563495.000000	1772311786.890705
-22456.305000	-31563.495000	-30627.675000	-15503.355000	0.000000	0.000000	0.000000	0.000000	-101.087203	-1.255745	-134.107056	-53.014370	0.000000	0.000000	-0.000000	0.000000	6.699140	-0.595140	5.218920	0.066711	0.960447	0.014770	-1.000000	-1.000000	-1.000000	-1.000000	-1.000000	-1.000000	-1.000000	146.827586	0.000000	-1.000000	-1.000000	563496.000000	1772311786.898310
-22285.215000	-31536.540000	-30458.565000	-15380.865000	0.000000	0.000000	0.000000	0.000000	-162.470393	-13.749259	-171.955168	-77.553968	0.000000	0.000000	-0.000000	0.000000	6.699140	-0.595140	5.218920	0.066711	0.960447	0.014770	-1.000000	-1.000000	-1.000000	-1.000000	-1.000000	-1.000000	-1.000000	146.827586	0.000000	-1.000000	-1.000000	563497.000000	1772311786.898312
-22003.695000	-31513.005000	-30089.115000	-15177.555000	0.000000	0.000000	0.000000	0.000000	-150.273101	-21.222517	-143.323722	-80.311277	0.000000	0.000000	-0.000000	0.000000	-6.867000	-2.701020	1.938020	0.062744	0.984556	0.021301	-1.000000	-1.000000	-1.000000	-1.000000	-1.000000	-1.000000	-1.000000	146.827586	0.000000	-1.000000	-1.000000	563498.000000	1772311786.898780
-22296.150000	-31570.110000	-30407.535000	-15292.845000	0.000000	0.000000	0.000000	0.000000	-57.887300	-17.124805	-40.513871	-36.923749	0.000000	0.000000	-0.000000	0.000000	-6.867000	-2.701020	1.938020	0.062744	0.984556	0.021301	-1.000000	-1.000000	-1.000000	-1.000000	-1.000000	-1.000000	-1.000000	146.827586	0.000000	-1.000000	-1.000000	563499.000000	1772311786.898782
-22378.995000	-31617.180000	-30547.395000	-15373.845000	0.000000	0.000000	0.000000	0.000000	48.525858	-7.399902	70.006995	26.202167	0.000000	0.000000	-0.000000	0.000000	-6.867000	-2.701020	1.938020	0.062744	0.984556	0.021301	-1.000000	-1.000000	-1.000000	-1.000000	-1.000000	-1.000000	-1.000000	146.827586	0.000000	-1.000000	-1.000000	563500.000000	1772311786.904065
-22032.765000	-31571.595000	-30195.855000	-15168.690000	0.000000	0.000000	0.000000	0.000000	101.052736	-0.560288	115.152674	63.536731	0.000000	0.000000	-0.000000	0.000000	-6.867000	-2.701020	1.938020	0.062744	0.984556	0.021301	-1.000000	-1.000000	-1.000000	-1.000000	-1.000000	-1.000000	-1.000000	146.827586	0.000000	-1.000000	-1.000000	563501.000000	1772311786.904067
-22192.740000	-31531.320000	-30315.285000	-15215.355000	0.000000	0.000000	0.000000	0.000000	100.854715	5.362448	99.892204	65.676193	0.000000	0.000000	-0.000000	0.000000	-6.867000	-2.701020	1.938020	0.062744	0.984556	0.021301	-1.000000	-1.000000	-1.000000	-1.000000	-1.000000	-1.000000	-1.000000	146.827586	0.000000	-1.000000	-1.000000	563502.000000	1772311786.906758
-22123.260000	-31483.485000	-30267.405000	-15257.880000	0.000000	0.000000	0.000000	0.000000	74.535245	16.344043	63.227918	45.805928	0.000000	0.000000	-0.000000	0.000000	-6.867000	-2.701020	1.938020	0.062744	0.984556	0.021301	-1.000000	-1.000000	-1.000000	-1.000000	-1.000000	-1.000000	-1.000000	146.827586	0.000000	-1.000000	-1.000000	563503.000000	1772311786.906760
-22228.470000	-31482.495000	-30411.765000	-15352.740000	0.000000	0.000000	0.000000	0.000000	31.820464	29.527035	19.758037	10.280717	0.000000	0.000000	-0.000000	0.000000	-6.867000	-2.701020	1.938020	0.062744	0.984556	0.021301	-1.000000	-1.000000	-1.000000	-1.000000	-1.000000	-1.000000	-1.000000	146.827586	0.000000	-1.000000	-1.000000	563504.000000	1772311786.913821
-22505.670000	-31497.165000	-30646.980000	-15461.820000	0.000000	0.000000	0.000000	0.000000	-23.316077	33.882492	-31.206917	-34.252374	0.000000	0.000000	-0.000000	0.000000	-6.867000	-2.701020	1.938020	0.062744	0.984556	0.021301	-1.000000	-1.000000	-1.000000	-1.000000	-1.000000	-1.000000	-1.000000	146.827586	0.000000	-1.000000	-1.000000	563505.000000	1772311786.913824
-22318.560000	-31512.465000	-30466.170000	-15332.490000	0.000000	0.000000	0.000000	0.000000	-78.046873	21.507600	-79.981800	-68.693946	0.000000	0.000000	-0.000000	0.000000	-6.867000	-2.701020	1.938020	0.062744	0.984556	0.021301	-1.000000	-1.000000	-1.000000	-1.000000	-1.000000	-1.000000	-1.000000	146.827586	0.000000	-1.000000	-1.000000	563506.000000	1772311786.917751
-22180.905000	-31508.325000	-30280.320000	-15255.045000	0.000000	0.000000	0.000000	0.000000	-97.600237	-3.411121	-91.805043	-66.710888	0.000000	0.000000	-0.000000	0.000000	-6.867000	-2.701020	1.938020	0.062744	0.984556	0.021301	-1.000000	-1.000000	-1.000000	-1.000000	-1.000000	-1.000000	-1.000000	146.827586	0.000000	-1.000000	-1.000000	563507.000000	1772311786.917754
-22130.145000	-31471.695000	-30226.770000	-15282.990000	0.000000	0.000000	0.000000	0.000000	-54.472449	-26.522116	-40.779954	-22.293585	0.000000	0.000000	-0.000000	0.000000	-0.534100	-1.861720	-0.335720	0.064697	0.962766	0.026428	-1.000000	-1.000000	-1.000000	-1.000000	-1.000000	-1.000000	-1.000000	146.827586	0.000000	-1.000000	-1.000000	563508.000000	1772311786.918823
-22215.870000	-31471.290000	-30371.220000	-15321.195000	0.000000	0.000000	0.000000	0.000000	24.843537	-34.571910	41.360297	33.807079	0.000000	0.000000	-0.000000	0.000000	-0.534100	-1.861720	-0.335720	0.064697	0.962766	0.026428	-1.000000	-1.000000	-1.000000	-1.000000	-1.000000	-1.000000	-1.000000	146.827586	0.000000	-1.000000	-1.000000	563509.000000	1772311786.918826
-22097.340000	-31457.565000	-30379.905000	-15282.945000	0.000000	0.000000	0.000000	0.000000	82.584498	-25.782569	88.962900	63.414495	0.000000	0.000000	-0.000000	0.000000	-0.534100	-1.861720	-0.335720	0.064697	0.962766	0.026428	-1.000000	-1.000000	-1.000000	-1.000000	-1.000000	-1.000000	-1.000000	146.827586	0.000000	-1.000000	-1.000000	563510.000000	1772311786.922799
-21898.440000	-31432.095000	-30171.870000	-15112.080000	0.000000	0.000000	0.000000	0.000000	92.342965	-8.476733	75.175894	59.082479	0.000000	0.000000	-0.000000	0.000000	-0.534100	-1.861720	-0.335720	0.064697	0.962766	0.026428	-1.000000	-1.000000	-1.000000	-1.000000	-1.000000	-1.000000	-1.000000	146.827586	0.000000	-1.000000	-1.000000	563511.000000	1772311786.922802
