Channel1	Channel2	Channel3	Channel4	Channel5	Channel6	Channel7	Channel8	FilteredChannel1	FilteredChannel2	FilteredChannel3	FilteredChannel4	FilteredChannel5	FilteredChannel6	FilteredChannel7	FilteredChannel8	GyroX	GyroY	GyroZ	AccX	AccY	AccZ	PPG1	PPG2	rawPPG1	rawPPG2	rawPPG3	Hr	Hrv	Battery	Trigger	PhysicalTrigger	AutoTrigger	NumMeasurements	Timestamp
-22556.070000	-31026.690000	-30726.945000	-15459.795000	0.000000	0.000000	0.000000	0.000000	9.005312	11.068222	7.911297	4.925424	0.000000	0.000000	-0.000000	0.000000	1.175020	0.183120	-0.625660	0.001282	0.983701	-0.014099	-1.000000	-1.000000	-1.000000	-1.000000	-1.000000	-1.000000	-1.000000	146.482759	0.000000	-1.000000	-1.000000	569648.000000	1772311799.243101
-22540.410000	-31096.530000	-30711.870000	-15440.130000	0.000000	0.000000	0.000000	0.000000	4.693628	15.798082	2.170415	-0.737618	0.000000	0.000000	-0.000000	0.000000	1.175020	0.183120	-0.625660	0.001282	0.983701	-0.014099	-1.000000	-1.000000	-1.000000	-1.000000	-1.000000	-1.000000	-1.000000	146.482759	0.000000	-1.000000	-1.000000	569649.000000	1772311799.243103
-22540.455000	-31129.110000	-30709.035000	-15440.310000	0.000000	0.000000	0.000000	0.000000	1.435609	3.199715	-1.457280	-2.691194	0.000000	0.000000	-0.000000	0.000000	1.419180	0.061040	-0.350980	0.000427	0.983152	-0.013672	-1.000000	-1.000000	-1.000000	-1.000000	-1.000000	-1.000000	-1.000000	146.482759	0.000000	-1.000000	-1.000000	569650.000000	1772311799.243108
-22543.605000	-31122.855000	-30710.070000	-15443.955000	0.000000	0.000000	0.000000	0.000000	0.175702	-14.316473	-1.736955	-1.023486	0.000000	0.000000	-0.000000	0.000000	1.419180	0.061040	-0.350980	0.000427	0.983152	-0.013672	-1.000000	-1.000000	-1.000000	-1.000000	-1.000000	-1.000000	-1.000000	146.482759	0.000000	-1.000000	-1.000000	569651.000000	1772311799.243110
-22549.410000	-31107.510000	-30717.945000	-15449.400000	0.000000	0.000000	0.000000	0.000000	-0.980558	-20.157824	-1.035343	0.590921	0.000000	0.000000	-0.000000	0.000000	1.419180	0.061040	-0.350980	0.000427	0.983152	-0.013672	-1.000000	-1.000000	-1.000000	-1.000000	-1.000000	-1.000000	-1.000000	146.482759	0.000000	-1.000000	-1.000000	569652.000000	1772311799.247954
-22551.030000	-31118.850000	-30718.440000	-15449.040000	0.000000	0.000000	0.000000	0.000000	-3.283845	-8.087947	-1.719336	-0.306134	0.000000	0.000000	-0.000000	0.000000	1.419180	0.061040	-0.350980	0.000427	0.983152	-0.013672	-1.000000	-1.000000	-1.000000	-1.000000	-1.000000	-1.000000	-1.000000	146.482759	0.000000	-1.000000	-1.000000	569653.000000	1772311799.247956
-22546.710000	-31140.180000	-30715.605000	-15448.140000	0.000000	0.000000	0.000000	0.000000	-5.683780	12.593699	-3.587788	-2.827123	0.000000	0.000000	-0.000000	0.000000	1.419180	0.061040	-0.350980	0.000427	0.983152	-0.013672	-1.000000	-1.000000	-1.000000	-1.000000	-1.000000	-1.000000	-1.000000	146.482759	0.000000	-1.000000	-1.000000	569654.000000	1772311799.250940
-22544.685000	-31131.855000	-30716.145000	-15447.420000	0.000000	0.000000	0.000000	0.000000	-6.132969	27.101614	-4.661669	-4.537659	0.000000	0.000000	-0.000000	0.000000	1.419180	0.061040	-0.350980	0.000427	0.983152	-0.013672	-1.000000	-1.000000	-1.000000	-1.000000	-1.000000	-1.000000	-1.000000	146.482759	0.000000	-1.000000	-1.000000	569655.000000	1772311799.250942
-22546.755000	-31124.385000	-30719.790000	-15450.030000	0.000000	0.000000	0.000000	0.000000	-3.934046	28.460532	-3.772572	-4.072272	0.000000	0.000000	-0.000000	0.000000	1.419180	0.061040	-0.350980	0.000427	0.983152	-0.013672	-1.000000	-1.000000	-1.000000	-1.000000	-1.000000	-1.000000	-1.000000	146.482759	0.000000	-1.000000	-1.000000	569656.000000	1772311799.254946
-22549.860000	-31122.855000	-30721.680000	-15451.605000	0.000000	0.000000	0.000000	0.000000	-0.507393	19.551554	-1.572444	-1.953872	0.000000	0.000000	-0.000000	0.000000	1.419180	0.061040	-0.350980	0.000427	0.983152	-0.013672	-1.000000	-1.000000	-1.000000	-1.000000	-1.000000	-1.000000	-1.000000	146.482759	0.000000	-1.000000	-1.000000	569657.000000	1772311799.254949
-22554.855000	-31079.070000	-30727.080000	-15460.110000	0.000000	0.000000	0.000000	0.000000	2.051959	7.293908	0.576444	0.310408	0.000000	0.000000	-0.000000	0.000000	1.419180	0.061040	-0.350980	0.000427	0.983152	-0.013672	-1.000000	-1.000000	-1.000000	-1.000000	-1.000000	-1.000000	-1.000000	146.482759	0.000000	-1.000000	-1.000000	569658.000000	1772311799.258993
-22551.885000	-31092.210000	-30722.670000	-15458.175000	0.000000	0.000000	0.000000	0.000000	2.788250	-2.431842	1.900626	1.561807	0.000000	0.000000	-0.000000	0.000000	1.419180	0.061040	-0.350980	0.000427	0.983152	-0.013672	-1.000000	-1.000000	-1.000000	-1.000000	-1.000000	-1.000000	-1.000000	146.482759	0.000000	-1.000000	-1.000000	569659.000000	1772311799.258996
-22546.035000	-31101.615000	-30715.515000	-15449.355000	0.000000	0.000000	0.000000	0.000000	2.448392	-8.743248	2.716518	2.028860	0.000000	0.000000	-0.000000	0.000000	1.800680	0.289940	-0.015260	0.000549	0.982419	-0.012512	-1.000000	-1.000000	-1.000000	-1.000000	-1.000000	-1.000000	-1.000000	146.482759	0.000000	-1.000000	-1.000000	569660.000000	1772311799.264660
-22557.105000	-31081.320000	-30727.530000	-15457.230000	0.000000	0.000000	0.000000	0.000000	2.087935	-13.804770	3.395197	2.608602	0.000000	0.000000	-0.000000	0.000000	1.800680	0.289940	-0.015260	0.000549	0.982419	-0.012512	-1.000000	-1.000000	-1.000000	-1.000000	-1.000000	-1.000000	-1.000000	146.482759	0.000000	-1.000000	-1.000000	569661.000000	1772311799.264663
-22564.485000	-31051.800000	-30735.765000	-15463.845000	0.000000	0.000000	0.000000	0.000000	1.424473	-16.527094	3.049280	2.948481	0.000000	0.000000	-0.000000	0.000000	1.800680	0.289940	-0.015260	0.000549	0.982419	-0.012512	-1.000000	-1.000000	-1.000000	-1.000000	-1.000000	-1.000000	-1.000000	146.482759	0.000000	-1.000000	-1.000000	569662.000000	1772311799.267013
-22557.825000	-31029.480000	-30730.950000	-15461.730000	0.000000	0.000000	0.000000	0.000000	-0.007565	-13.650484	1.011158	2.042624	0.000000	0.000000	-0.000000	0.000000	1.800680	0.289940	-0.015260	0.000549	0.982419	-0.012512	-1.000000	-1.000000	-1.000000	-1.000000	-1.000000	-1.000000	-1.000000	146.482759	0.000000	-1.000000	-1.000000	569663.000000	1772311799.267016
-22545.180000	-31004.145000	-30717.180000	-15448.230000	0.000000	0.000000	0.000000	0.000000	-0.936831	-5.524308	-1.062945	0.534343	0.000000	0.000000	-0.000000	0.000000	1.800680	0.289940	-0.015260	0.000549	0.982419	-0.012512	-1.000000	-1.000000	-1.000000	-1.000000	-1.000000	-1.000000	-1.000000	146.482759	0.000000	-1.000000	-1.000000	569664.000000	1772311799.271121
-22552.380000	-30984.660000	-30723.210000	-15451.830000	0.000000	0.000000	0.000000	0.000000	0.014979	3.387654	-1.035109	0.079705	0.000000	0.000000	-0.000000	0.000000	1.800680	0.289940	-0.015260	0.000549	0.982419	-0.012512	-1.000000	-1.000000	-1.000000	-1.000000	-1.000000	-1.000000	-1.000000	146.482759	0.000000	-1.000000	-1.000000	569665.000000	1772311799.271124
-22571.595000	-30978.045000	-30745.575000	-15475.950000	0.000000	0.000000	0.000000	0.000000	1.444057	8.132285	0.189077	0.272547	0.000000	0.000000	-0.000000	0.000000	1.800680	0.289940	-0.015260	0.000549	0.982419	-0.012512	-1.000000	-1.000000	-1.000000	-1.000000	-1.000000	-1.000000	-1.000000	146.482759	0.000000	-1.000000	-1.000000	569666.000000	1772311799.275088
-22566.195000	-30982.590000	-30739.410000	-15471.810000	0.000000	0.000000	0.000000	0.000000	0.798767	6.076256	-0.110425	-0.964205	0.000000	0.000000	-0.000000	0.000000	1.800680	0.289940	-0.015260	0.000549	0.982419	-0.012512	-1.000000	-1.000000	-1.000000	-1.000000	-1.000000	-1.000000	-1.000000	146.482759	0.000000	-1.000000	-1.000000	569667.000000	1772311799.275092
-22559.715000	-30944.610000	-30730.905000	-15463.305000	0.000000	0.000000	0.000000	0.000000	-1.428564	-1.085172	-1.794028	-3.230038	0.000000	0.000000	-0.000000	0.000000	1.800680	0.289940	-0.015260	0.000549	0.982419	-0.012512	-1.000000	-1.000000	-1.000000	-1.000000	-1.000000	-1.000000	-1.000000	146.482759	0.000000	-1.000000	-1.000000	569668.000000	1772311799.279262
-22552.425000	-30924.945000	-30724.740000	-15457.815000	0.000000	0.000000	0.000000	0.000000	-2.260024	-7.440758	-2.018287	-3.546425	0.000000	0.000000	-0.000000	0.000000	1.800680	0.289940	-0.015260	0.000549	0.982419	-0.012512	-1.000000	-1.000000	-1.000000	-1.000000	-1.000000	-1.000000	-1.000000	146.482759	0.000000	-1.000000	-1.000000	569669.000000	1772311799.279265
-22553.820000	-30919.590000	-30726.810000	-15461.640000	0.000000	0.000000	0.000000	0.000000	-0.454528	-8.410233	0.251966	-0.847138	0.000000	0.000000	-0.000000	0.000000	2.426340	0.289940	0.030520	0.001709	0.981565	-0.012634	-1.000000	-1.000000	-1.000000	-1.000000	-1.000000	-1.000000	-1.000000	146.482759	0.000000	-1.000000	-1.000000	569670.000000	1772311799.288010
-22570.830000	-30948.120000	-30743.865000	-15477.390000	0.000000	0.000000	0.000000	0.000000	1.901418	-5.899657	2.661189	2.316054	0.000000	0.000000	-0.000000	0.000000	2.426340	0.289940	0.030520	0.001709	0.981565	-0.012634	-1.000000	-1.000000	-1.000000	-1.000000	-1.000000	-1.000000	-1.000000	146.482759	0.000000	-1.000000	-1.000000	569671.000000	1772311799.288013
-22561.155000	-30937.770000	-30736.125000	-15467.895000	0.000000	0.000000	0.000000	0.000000	2.091632	-4.802564	2.486399	3.009206	0.000000	0.000000	-0.000000	0.000000	2.426340	0.289940	0.030520	0.001709	0.981565	-0.012634	-1.000000	-1.000000	-1.000000	-1.000000	-1.000000	-1.000000	-1.000000	146.482759	0.000000	-1.000000	-1.000000	569672.000000	1772311799.288017
-22556.925000	-30941.730000	-30732.165000	-15463.530000	0.000000	0.000000	0.000000	0.000000	0.354604	-5.909360	0.194266	1.534371	0.000000	0.000000	-0.000000	0.000000	2.426340	0.289940	0.030520	0.001709	0.981565	-0.012634	-1.000000	-1.000000	-1.000000	-1.000000	-1.000000	-1.000000	-1.000000	146.482759	0.000000	-1.000000	-1.000000	569673.000000	1772311799.288019
-22552.065000	-30970.980000	-30726.720000	-15458.895000	0.000000	0.000000	0.000000	0.000000	-0.860560	-6.498998	-1.441347	0.351741	0.000000	0.000000	-0.000000	0.000000	2.426340	0.289940	0.030520	0.001709	0.981565	-0.012634	-1.000000	-1.000000	-1.000000	-1.000000	-1.000000	-1.000000	-1.000000	146.482759	0.000000	-1.000000	-1.000000	569674.000000	1772311799.291341
-22552.200000	-30982.140000	-30728.295000	-15461.010000	0.000000	0.000000	0.000000	0.000000	-0.435147	-5.458818	-1.048203	0.503152	0.000000	0.000000	-0.000000	0.000000	2.426340	0.289940	0.030520	0.001709	0.981565	-0.012634	-1.000000	-1.000000	-1.000000	-1.000000	-1.000000	-1.000000	-1.000000	146.482759	0.000000	-1.000000	-1.000000	569675.000000	1772311799.291350
-22548.015000	-30998.295000	-30723.705000	-15457.410000	0.000000	0.000000	0.000000	0.000000	0.691935	-3.151841	0.393502	1.032277	0.000000	0.000000	-0.000000	0.000000	2.426340	0.289940	0.030520	0.001709	0.981565	-0.012634	-1.000000	-1.000000	-1.000000	-1.000000	-1.000000	-1.000000	-1.000000	146.482759	0.000000	-1.000000	-1.000000	569676.000000	1772311799.295234
-22558.140000	-30975.390000	-30731.985000	-15464.025000	0.000000	0.000000	0.000000	0.000000	1.062628	1.076131	1.226162	0.751915	0.000000	0.000000	-0.000000	0.000000	2.426340	0.289940	0.030520	0.001709	0.981565	-0.012634	-1.000000	-1.000000	-1.000000	-1.000000	-1.000000	-1.000000	-1.000000	146.482759	0.000000	-1.000000	-1.000000	569677.000000	1772311799.295237
-22559.220000	-30950.820000	-30729.870000	-15462.990000	0.000000	0.000000	0.000000	0.000000	-0.144788	8.510741	0.544083	-0.647685	0.000000	0.000000	-0.000000	0.000000	2.426340	0.289940	0.030520	0.001709	0.981565	-0.012634	-1.000000	-1.000000	-1.000000	-1.000000	-1.000000	-1.000000	-1.000000	146.482759	0.000000	-1.000000	-1.000000	569678.000000	1772311799.299149
-22558.050000	-30950.595000	-30733.875000	-15465.780000	0.000000	0.000000	0.000000	0.000000	-2.299177	17.887613	-1.210081	-2.454980	0.000000	0.000000	-0.000000	0.000000	2.426340	0.289940	0.030520	0.001709	0.981565	-0.012634	-1.000000	-1.000000	-1.000000	-1.000000	-1.000000	-1.000000	-1.000000	146.482759	0.000000	-1.000000	-1.000000	569679.000000	1772311799.299151
-22560.885000	-30916.080000	-30741.075000	-15473.070000	0.000000	0.000000	0.000000	0.000000	-3.674233	24.281232	-2.856643	-3.638583	0.000000	0.000000	-0.000000	0.000000	3.067260	0.396760	0.000000	0.001892	0.981443	-0.012329	-1.000000	-1.000000	-1.000000	-1.000000	-1.000000	-1.000000	-1.000000	146.482759	0.000000	-1.000000	-1.000000	569680.000000	1772311799.303884
-22563.000000	-30884.265000	-30742.470000	-15478.920000	0.000000	0.000000	0.000000	0.000000	-3.255137	23.938855	-3.591704	-3.817677	0.000000	0.000000	-0.000000	0.000000	3.067260	0.396760	0.000000	0.001892	0.981443	-0.012329	-1.000000	-1.000000	-1.000000	-1.000000	-1.000000	-1.000000	-1.000000	146.482759	0.000000	-1.000000	-1.000000	569681.000000	1772311799.303887
-22565.520000	-30901.230000	-30745.350000	-15480.810000	0.000000	0.000000	0.000000	0.000000	-1.493389	16.638070	-3.066373	-3.086884	0.000000	0.000000	-0.000000	0.000000	3.067260	0.396760	0.000000	0.001892	0.981443	-0.012329	-1.000000	-1.000000	-1.000000	-1.000000	-1.000000	-1.000000	-1.000000	146.482759	0.000000	-1.000000	-1.000000	569682.000000	1772311799.307248
-22552.470000	-30910.005000	-30733.155000	-15464.250000	0.000000	0.000000	0.000000	0.000000	0.809089	3.019563	-1.067264	-1.126493	0.000000	0.000000	-0.000000	0.000000	3.067260	0.396760	0.000000	0.001892	0.981443	-0.012329	-1.000000	-1.000000	-1.000000	-1.000000	-1.000000	-1.000000	-1.000000	146.482759	0.000000	-1.000000	-1.000000	569683.000000	1772311799.307251
-22544.955000	-30895.470000	-30721.545000	-15449.535000	0.000000	0.000000	0.000000	0.000000	3.398076	-13.854924	2.394977	2.660286	-0.000000	0.000000	-0.000000	0.000000	3.067260	0.396760	0.000000	0.001892	0.981443	-0.012329	-1.000000	-1.000000	-1.000000	-1.000000	-1.000000	-1.000000	-1.000000	146.482759	0.000000	-1.000000	-1.000000	569684.000000	1772311799.311153
-22546.260000	-30910.590000	-30723.435000	-15454.890000	0.000000	0.000000	0.000000	0.000000	5.672122	-26.934160	6.240160	7.259586	-0.000000	0.000000	-0.000000	0.000000	3.067260	0.396760	0.000000	0.001892	0.981443	-0.012329	-1.000000	-1.000000	-1.000000	-1.000000	-1.000000	-1.000000	-1.000000	146.482759	0.000000	-1.000000	-1.000000	569685.000000	1772311799.311155
-22567.680000	-30928.905000	-30745.845000	-15475.230000	0.000000	0.000000	0.000000	0.000000	5.663978	-30.881867	7.600867	9.040947	-0.000000	0.000000	-0.000000	0.000000	3.067260	0.396760	0.000000	0.001892	0.981443	-0.012329	-1.000000	-1.000000	-1.000000	-1.000000	-1.000000	-1.000000	-1.000000	146.482759	0.000000	-1.000000	-1.000000	569686.000000	1772311799.315177
-22560.165000	-30961.845000	-30737.295000	-15466.230000	0.000000	0.000000	0.000000	0.000000	1.965408	-26.396095	4.243583	5.262118	-0.000000	0.000000	-0.000000	0.000000	3.067260	0.396760	0.000000	0.001892	0.981443	-0.012329	-1.000000	-1.000000	-1.000000	-1.000000	-1.000000	-1.000000	-1.000000	146.482759	0.000000	-1.000000	-1.000000	569687.000000	1772311799.315179
-22551.660000	-30972.870000	-30729.510000	-15459.930000	0.000000	0.000000	0.000000	0.000000	-3.229319	-17.271106	-1.725622	-1.683399	-0.000000	0.000000	-0.000000	0.000000	3.067260	0.396760	0.000000	0.001892	0.981443	-0.012329	-1.000000	-1.000000	-1.000000	-1.000000	-1.000000	-1.000000	-1.000000	146.482759	0.000000	-1.000000	-1.000000	569688.000000	1772311799.319125
-22543.920000	-30951.045000	-30723.165000	-15454.665000	0.000000	0.000000	0.000000	0.000000	-5.662712	-5.584588	-5.501453	-6.484379	-0.000000	0.000000	-0.000000	0.000000	3.067260	0.396760	0.000000	0.001892	0.981443	-0.012329	-1.000000	-1.000000	-1.000000	-1.000000	-1.000000	-1.000000	-1.000000	146.482759	0.000000	-1.000000	-1.000000	569689.000000	1772311799.319128
-22550.265000	-30928.590000	-30729.690000	-15459.570000	0.000000	0.000000	0.000000	0.000000	-3.900912	8.819198	-5.011082	-6.655127	-0.000000	0.000000	-0.000000	0.000000	2.380560	0.137340	-0.015260	0.002258	0.982175	-0.012390	-1.000000	-1.000000	-1.000000	-1.000000	-1.000000	-1.000000	-1.000000	146.482759	0.000000	-1.000000	-1.000000	569690.000000	1772311799.323198
-22560.615000	-30933.360000	-30739.770000	-15467.580000	0.000000	0.000000	0.000000	0.000000	-0.649080	23.683239	-2.456171	-4.028006	-0.000000	0.000000	-0.000000	0.000000	2.380560	0.137340	-0.015260	0.002258	0.982175	-0.012390	-1.000000	-1.000000	-1.000000	-1.000000	-1.000000	-1.000000	-1.000000	146.482759	0.000000	-1.000000	-1.000000	569691.000000	1772311799.323201
-22559.265000	-30939.390000	-30737.970000	-15466.410000	0.000000	0.000000	0.000000	0.000000	0.806635	32.221631	-0.877432	-1.609054	-0.000000	0.000000	-0.000000	0.000000	2.380560	0.137340	-0.015260	0.002258	0.982175	-0.012390	-1.000000	-1.000000	-1.000000	-1.000000	-1.000000	-1.000000	-1.000000	146.482759	0.000000	-1.000000	-1.000000	569692.000000	1772311799.327254
-22553.505000	-30955.365000	-30730.230000	-15459.480000	0.000000	0.000000	0.000000	0.000000	0.200514	28.549734	-0.659156	-0.325922	-0.000000	0.000000	-0.000000	0.000000	2.380560	0.137340	-0.015260	0.002258	0.982175	-0.012390	-1.000000	-1.000000	-1.000000	-1.000000	-1.000000	-1.000000	-1.000000	146.482759	0.000000	-1.000000	-1.000000	569693.000000	1772311799.327258
-22555.620000	-30975.570000	-30730.995000	-15460.515000	0.000000	0.000000	0.000000	0.000000	-0.445003	13.429610	-0.167368	0.765439	-0.000000	0.000000	-0.000000	0.000000	2.380560	0.137340	-0.015260	0.002258	0.982175	-0.012390	-1.000000	-1.000000	-1.000000	-1.000000	-1.000000	-1.000000	-1.000000	146.482759	0.000000	-1.000000	-1.000000	569694.000000	1772311799.331237
-22562.145000	-30986.190000	-30738.015000	-15466.005000	0.000000	0.000000	0.000000	0.000000	-0.105131	-6.031808	1.102655	1.981199	-0.000000	0.000000	-0.000000	0.000000	2.380560	0.137340	-0.015260	0.002258	0.982175	-0.012390	-1.000000	-1.000000	-1.000000	-1.000000	-1.000000	-1.000000	-1.000000	146.482759	0.000000	-1.000000	-1.000000	569695.000000	1772311799.331239
-22556.295000	-30972.870000	-30731.940000	-15460.245000	0.000000	0.000000	0.000000	0.000000	0.588487	-20.342708	2.051756	2.554736	-0.000000	0.000000	-0.000000	0.000000	2.380560	0.137340	-0.015260	0.002258	0.982175	-0.012390	-1.000000	-1.000000	-1.000000	-1.000000	-1.000000	-1.000000	-1.000000	146.482759	0.000000	-1.000000	-1.000000	569696.000000	1772311799.335278
-22534.695000	-30993.930000	-30714.480000	-15443.910000	0.000000	0.000000	0.000000	0.000000	1.525794	-23.160226	2.402613	2.536801	-0.000000	0.000000	-0.000000	0.000000	2.380560	0.137340	-0.015260	0.002258	0.982175	-0.012390	-1.000000	-1.000000	-1.000000	-1.000000	-1.000000	-1.000000	-1.000000	146.482759	0.000000	-1.000000	-1.000000	569697.000000	1772311799.335281
-22544.505000	-31030.245000	-30721.905000	-15449.400000	0.000000	0.000000	0.000000	0.000000	3.148206	-16.264090	2.884392	2.755411	-0.000000	0.000000	-0.000000	0.000000	2.380560	0.137340	-0.015260	0.002258	0.982175	-0.012390	-1.000000	-1.000000	-1.000000	-1.000000	-1.000000	-1.000000	-1.000000	146.482759	0.000000	-1.000000	-1.000000	569698.000000	1772311799.339344
-22556.430000	-31043.565000	-30738.465000	-15469.470000	0.000000	0.000000	0.000000	0.000000	3.973811	-7.078705	2.660984	2.385537	-0.000000	0.000000	-0.000000	0.000000	2.380560	0.137340	-0.015260	0.002258	0.982175	-0.012390	-1.000000	-1.000000	-1.000000	-1.000000	-1.000000	-1.000000	-1.000000	146.482759	0.000000	-1.000000	-1.000000	569699.000000	1772311799.339348
-22565.340000	-31055.175000	-30746.745000	-15479.280000	0.000000	0.000000	0.000000	0.000000	1.641907	-0.437278	-0.108343	-0.522215	-0.000000	0.000000	-0.000000	0.000000	2.517900	0.289940	-0.366240	0.002441	0.983213	-0.011902	-1.000000	-1.000000	-1.000000	-1.000000	-1.000000	-1.000000	-1.000000	146.482759	0.000000	-1.000000	-1.000000	569700.000000	1772311799.343327
-22550.940000	-31086.945000	-30729.420000	-15457.905000	0.000000	0.000000	0.000000	0.000000	-2.993106	3.561994	-4.371821	-4.917903	-0.000000	0.000000	-0.000000	0.000000	2.517900	0.289940	-0.366240	0.002441	0.983213	-0.011902	-1.000000	-1.000000	-1.000000	-1.000000	-1.000000	-1.000000	-1.000000	146.482759	0.000000	-1.000000	-1.000000	569701.000000	1772311799.343329
-22535.325000	-31125.330000	-30713.310000	-15435.540000	0.000000	0.000000	0.000000	0.000000	-5.665477	5.261900	-5.890299	-6.114315	-0.000000	0.000000	-0.000000	0.000000	2.517900	0.289940	-0.366240	0.002441	0.983213	-0.011902	-1.000000	-1.000000	-1.000000	-1.000000	-1.000000	-1.000000	-1.000000	146.482759	0.000000	-1.000000	-1.000000	569702.000000	1772311799.347350
-22538.565000	-31126.455000	-30717.495000	-15445.890000	0.000000	0.000000	0.000000	0.000000	-3.584899	4.771237	-2.391029	-1.681569	-0.000000	0.000000	-0.000000	0.000000	2.517900	0.289940	-0.366240	0.002441	0.983213	-0.011902	-1.000000	-1.000000	-1.000000	-1.000000	-1.000000	-1.000000	-1.000000	146.482759	0.000000	-1.000000	-1.000000	569703.000000	1772311799.347352
-22541.085000	-31129.380000	-30721.275000	-15451.695000	0.000000	0.000000	0.000000	0.000000	1.066915	4.444370	3.061188	4.403559	-0.000000	0.000000	-0.000000	0.000000	2.517900	0.289940	-0.366240	0.002441	0.983213	-0.011902	-1.000000	-1.000000	-1.000000	-1.000000	-1.000000	-1.000000	-1.000000	146.482759	0.000000	-1.000000	-1.000000	569704.000000	1772311799.351349
-22538.745000	-31138.245000	-30713.085000	-15440.130000	0.000000	0.000000	0.000000	0.000000	3.991043	6.753063	5.798204	6.655264	-0.000000	0.000000	-0.000000	0.000000	2.517900	0.289940	-0.366240	0.002441	0.983213	-0.011902	-1.000000	-1.000000	-1.000000	-1.000000	-1.000000	-1.000000	-1.000000	146.482759	0.000000	-1.000000	-1.000000	569705.000000	1772311799.351351
-22532.130000	-31140.135000	-30709.035000	-15435.900000	0.000000	0.000000	0.000000	0.000000	3.552768	10.576671	4.629046	4.413326	-0.000000	0.000000	-0.000000	0.000000	2.517900	0.289940	-0.366240	0.002441	0.983213	-0.011902	-1.000000	-1.000000	-1.000000	-1.000000	-1.000000	-1.000000	-1.000000	146.482759	0.000000	-1.000000	-1.000000	569706.000000	1772311799.356076
-22526.865000	-31118.130000	-30709.125000	-15438.420000	0.000000	0.000000	0.000000	0.000000	1.310449	13.067135	1.466022	0.533004	-0.000000	0.000000	-0.000000	0.000000	2.517900	0.289940	-0.366240	0.002441	0.983213	-0.011902	-1.000000	-1.000000	-1.000000	-1.000000	-1.000000	-1.000000	-1.000000	146.482759	0.000000	-1.000000	-1.000000	569707.000000	1772311799.356078
-22526.865000	-31118.130000	-30709.125000	-15438.420000	0.000000	0.000000	0.000000	0.000000	-0.689773	12.909763	-1.704974	-2.793122	-0.000000	0.000000	-0.000000	0.000000	2.517900	0.289940	-0.366240	0.002441	0.983213	-0.011902	-1.000000	-1.000000	-1.000000	-1.000000	-1.000000	-1.000000	-1.000000	146.482759	0.000000	-1.000000	-1.000000	569708.000000	1772311799.359676
-22526.865000	-31118.130000	-30709.125000	-15438.420000	0.000000	0.000000	0.000000	0.000000	-1.792826	9.592640	-3.869648	-4.758954	-0.000000	0.000000	-0.000000	0.000000	2.517900	0.289940	-0.366240	0.002441	0.983213	-0.011902	-1.000000	-1.000000	-1.000000	-1.000000	-1.000000	-1.000000	-1.000000	146.482759	0.000000	-1.000000	-1.000000	569709.000000	1772311799.359678
-22526.865000	-31118.130000	-30709.125000	-15438.420000	0.000000	0.000000	0.000000	0.000000	-2.338928	2.821772	-4.612945	-5.074986	-0.000000	0.000000	-0.000000	0.000000	2.517900	0.289940	-0.366240	0.002441	0.983213	-0.011902	-1.000000	-1.000000	-1.000000	-1.000000	-1.000000	-1.000000	-1.000000	146.482759	0.000000	-1.000000	-1.000000	569710.000000	1772311799.359680
-22568.895000	-31077.990000	-30750.480000	-15475.770000	0.000000	0.000000	0.000000	0.000000	-3.310448	-5.184287	-4.669365	-4.516809	-0.000000	0.000000	-0.000000	0.000000	2.655240	0.244160	-0.671440	0.002319	0.982480	-0.011108	-1.000000	-1.000000	-1.000000	-1.000000	-1.000000	-1.000000	-1.000000	146.482759	0.000000	-1.000000	-1.000000	569712.000000	1772311799.367877
-22566.645000	-31032.180000	-30750.300000	-15474.330000	0.000000	0.000000	0.000000	0.000000	-5.727002	-9.314153	-5.592585	-4.686727	-0.000000	0.000000	-0.000000	0.000000	2.655240	0.244160	-0.671440	0.002319	0.982480	-0.011108	-1.000000	-1.000000	-1.000000	-1.000000	-1.000000	-1.000000	-1.000000	146.482759	0.000000	-1.000000	-1.000000	569713.000000	1772311799.367880
-22560.345000	-31011.165000	-30745.125000	-15469.650000	0.000000	0.000000	0.000000	0.000000	-7.772059	-6.589346	-6.446185	-4.930934	-0.000000	0.000000	-0.000000	0.000000	2.655240	0.244160	-0.671440	0.002319	0.982480	-0.011108	-1.000000	-1.000000	-1.000000	-1.000000	-1.000000	-1.000000	-1.000000	146.482759	0.000000	-1.000000	-1.000000	569714.000000	1772311799.371424
-22552.245000	-31027.995000	-30735.135000	-15460.065000	0.000000	0.000000	0.000000	0.000000	-5.455066	-1.216904	-3.758391	-2.271459	-0.000000	0.000000	-0.000000	0.000000	2.655240	0.244160	-0.671440	0.002319	0.982480	-0.011108	-1.000000	-1.000000	-1.000000	-1.000000	-1.000000	-1.000000	-1.000000	146.482759	0.000000	-1.000000	-1.000000	569715.000000	1772311799.371427
-22550.670000	-31045.635000	-30731.625000	-15456.780000	0.000000	0.000000	0.000000	0.000000	1.926770	-1.316134	3.388283	4.040381	-0.000000	0.000000	-0.000000	0.000000	2.655240	0.244160	-0.671440	0.002319	0.982480	-0.011108	-1.000000	-1.000000	-1.000000	-1.000000	-1.000000	-1.000000	-1.000000	146.482759	0.000000	-1.000000	-1.000000	569716.000000	1772311799.375410
-22564.575000	-31053.870000	-30746.925000	-15471.045000	0.000000	0.000000	0.000000	0.000000	9.963319	-9.748074	11.032205	10.485790	-0.000000	0.000000	-0.000000	0.000000	2.655240	0.244160	-0.671440	0.002319	0.982480	-0.011108	-1.000000	-1.000000	-1.000000	-1.000000	-1.000000	-1.000000	-1.000000	146.482759	0.000000	-1.000000	-1.000000	569717.000000	1772311799.375413
-22569.705000	-31043.655000	-30749.895000	-15474.960000	0.000000	0.000000	0.000000	0.000000	13.085823	-20.272942	13.726925	12.293969	-0.000000	0.000000	-0.000000	0.000000	2.655240	0.244160	-0.671440	0.002319	0.982480	-0.011108	-1.000000	-1.000000	-1.000000	-1.000000	-1.000000	-1.000000	-1.000000	146.482759	0.000000	-1.000000	-1.000000	569718.000000	1772311799.379440
-22555.125000	-31045.725000	-30736.215000	-15463.530000	0.000000	0.000000	0.000000	0.000000	9.863331	-23.616038	10.003626	8.315936	-0.000000	0.000000	-0.000000	0.000000	2.655240	0.244160	-0.671440	0.002319	0.982480	-0.011108	-1.000000	-1.000000	-1.000000	-1.000000	-1.000000	-1.000000	-1.000000	146.482759	0.000000	-1.000000	-1.000000	569719.000000	1772311799.379443
-22557.420000	-31016.115000	-30738.870000	-15465.870000	0.000000	0.000000	0.000000	0.000000	3.855294	-15.662457	3.448499	2.009220	-0.000000	0.000000	-0.000000	0.000000	2.441600	0.000000	-0.488320	0.002441	0.982969	-0.011536	-1.000000	-1.000000	-1.000000	-1.000000	-1.000000	-1.000000	-1.000000	146.482759	0.000000	-1.000000	-1.000000	569720.000000	1772311799.383498
-22562.820000	-30962.745000	-30745.755000	-15472.125000	0.000000	0.000000	0.000000	0.000000	-1.150414	1.223358	-2.096623	-2.952756	-0.000000	0.000000	-0.000000	0.000000	2.441600	0.000000	-0.488320	0.002441	0.982969	-0.011536	-1.000000	-1.000000	-1.000000	-1.000000	-1.000000	-1.000000	-1.000000	146.482759	0.000000	-1.000000	-1.000000	569721.000000	1772311799.383501
-22564.305000	-30936.195000	-30748.185000	-15473.115000	0.000000	0.000000	0.000000	0.000000	-4.240779	20.732176	-5.607069	-5.606706	-0.000000	0.000000	-0.000000	0.000000	2.441600	0.000000	-0.488320	0.002441	0.982969	-0.011536	-1.000000	-1.000000	-1.000000	-1.000000	-1.000000	-1.000000	-1.000000	146.482759	0.000000	-1.000000	-1.000000	569722.000000	1772311799.387407
-22564.845000	-30963.150000	-30749.715000	-15474.600000	0.000000	0.000000	0.000000	0.000000	-5.754082	33.119625	-7.251238	-6.309197	-0.000000	0.000000	-0.000000	0.000000	2.441600	0.000000	-0.488320	0.002441	0.982969	-0.011536	-1.000000	-1.000000	-1.000000	-1.000000	-1.000000	-1.000000	-1.000000	146.482759	0.000000	-1.000000	-1.000000	569723.000000	1772311799.387410
-22549.050000	-30986.865000	-30730.410000	-15455.925000	0.000000	0.000000	0.000000	0.000000	-5.442969	28.921877	-6.590331	-5.020474	-0.000000	0.000000	-0.000000	0.000000	2.441600	0.000000	-0.488320	0.002441	0.982969	-0.011536	-1.000000	-1.000000	-1.000000	-1.000000	-1.000000	-1.000000	-1.000000	146.482759	0.000000	-1.000000	-1.000000	569724.000000	1772311799.391409
-22544.145000	-31015.845000	-30726.945000	-15452.550000	0.000000	0.000000	0.000000	0.000000	-2.860378	7.721002	-3.117736	-1.577435	-0.000000	0.000000	-0.000000	0.000000	2.441600	0.000000	-0.488320	0.002441	0.982969	-0.011536	-1.000000	-1.000000	-1.000000	-1.000000	-1.000000	-1.000000	-1.000000	146.482759	0.000000	-1.000000	-1.000000	569725.000000	1772311799.391412
-22553.775000	-31031.685000	-30735.855000	-15462.045000	0.000000	0.000000	0.000000	0.000000	0.807733	-19.190762	1.617974	2.500260	-0.000000	0.000000	-0.000000	0.000000	2.441600	0.000000	-0.488320	0.002441	0.982969	-0.011536	-1.000000	-1.000000	-1.000000	-1.000000	-1.000000	-1.000000	-1.000000	146.482759	0.000000	-1.000000	-1.000000	569726.000000	1772311799.395953
-22550.265000	-31024.935000	-30733.290000	-15460.245000	0.000000	0.000000	0.000000	0.000000	2.814156	-36.443641	4.265241	4.226952	-0.000000	0.000000	-0.000000	0.000000	2.441600	0.000000	-0.488320	0.002441	0.982969	-0.011536	-1.000000	-1.000000	-1.000000	-1.000000	-1.000000	-1.000000	-1.000000	146.482759	0.000000	-1.000000	-1.000000	569727.000000	1772311799.395956
-22528.170000	-31018.545000	-30711.600000	-15440.895000	0.000000	0.000000	0.000000	0.000000	2.304843	-34.546710	3.658235	2.823296	-0.000000	0.000000	-0.000000	0.000000	2.441600	0.000000	-0.488320	0.002441	0.982969	-0.011536	-1.000000	-1.000000	-1.000000	-1.000000	-1.000000	-1.000000	-1.000000	146.482759	0.000000	-1.000000	-1.000000	569728.000000	1772311799.399519
-22544.415000	-31035.015000	-30727.530000	-15456.735000	0.000000	0.000000	0.000000	0.000000	0.988583	-15.809096	1.672903	0.396867	-0.000000	0.000000	-0.000000	0.000000	2.441600	0.000000	-0.488320	0.002441	0.982969	-0.011536	-1.000000	-1.000000	-1.000000	-1.000000	-1.000000	-1.000000	-1.000000	146.482759	0.000000	-1.000000	-1.000000	569729.000000	1772311799.399522
-22578.660000	-31024.260000	-30762.855000	-15487.380000	0.000000	0.000000	0.000000	0.000000	-1.024988	8.030522	-1.139586	-2.275576	-0.000000	0.000000	-0.000000	0.000000	2.609460	0.122080	-0.549360	0.001953	0.982664	-0.012207	-1.000000	-1.000000	-1.000000	-1.000000	-1.000000	-1.000000	-1.000000	146.482759	0.000000	-1.000000	-1.000000	569730.000000	1772311799.403433
-22566.015000	-30998.745000	-30751.515000	-15472.350000	0.000000	0.000000	0.000000	0.000000	-4.896928	25.714019	-5.589967	-5.791301	-0.000000	0.000000	-0.000000	0.000000	2.609460	0.122080	-0.549360	0.001953	0.982664	-0.012207	-1.000000	-1.000000	-1.000000	-1.000000	-1.000000	-1.000000	-1.000000	146.482759	0.000000	-1.000000	-1.000000	569731.000000	1772311799.403436
-22563.945000	-30968.505000	-30750.840000	-15474.330000	0.000000	0.000000	0.000000	0.000000	-8.196586	33.181823	-9.155778	-7.985738	-0.000000	0.000000	-0.000000	0.000000	2.609460	0.122080	-0.549360	0.001953	0.982664	-0.012207	-1.000000	-1.000000	-1.000000	-1.000000	-1.000000	-1.000000	-1.000000	146.482759	0.000000	-1.000000	-1.000000	569732.000000	1772311799.408525
-22569.930000	-30975.255000	-30756.510000	-15483.150000	0.000000	0.000000	0.000000	0.000000	-6.975793	30.979909	-7.896111	-6.012314	-0.000000	0.000000	-0.000000	0.000000	2.609460	0.122080	-0.549360	0.001953	0.982664	-0.012207	-1.000000	-1.000000	-1.000000	-1.000000	-1.000000	-1.000000	-1.000000	146.482759	0.000000	-1.000000	-1.000000	569733.000000	1772311799.408527
-22570.110000	-30988.035000	-30754.440000	-15478.110000	0.000000	0.000000	0.000000	0.000000	-1.446653	19.790303	-1.966159	-0.739156	-0.000000	0.000000	-0.000000	0.000000	2.609460	0.122080	-0.549360	0.001953	0.982664	-0.012207	-1.000000	-1.000000	-1.000000	-1.000000	-1.000000	-1.000000	-1.000000	146.482759	0.000000	-1.000000	-1.000000	569734.000000	1772311799.411570
-22565.070000	-30971.295000	-30745.665000	-15465.825000	0.000000	0.000000	0.000000	0.000000	4.903139	2.063003	5.205063	5.066262	-0.000000	0.000000	-0.000000	0.000000	2.609460	0.122080	-0.549360	0.001953	0.982664	-0.012207	-1.000000	-1.000000	-1.000000	-1.000000	-1.000000	-1.000000	-1.000000	146.482759	0.000000	-1.000000	-1.000000	569735.000000	1772311799.411573
-22555.710000	-30949.245000	-30738.285000	-15459.120000	0.000000	0.000000	0.000000	0.000000	9.272642	-14.865078	10.558508	9.549929	-0.000000	0.000000	-0.000000	0.000000	2.609460	0.122080	-0.549360	0.001953	0.982664	-0.012207	-1.000000	-1.000000	-1.000000	-1.000000	-1.000000	-1.000000	-1.000000	146.482759	0.000000	-1.000000	-1.000000	569736.000000	1772311799.415505
-22548.780000	-30962.970000	-30732.795000	-15454.395000	0.000000	0.000000	0.000000	0.000000	10.707553	-23.376951	12.438044	11.388607	-0.000000	0.000000	-0.000000	0.000000	2.609460	0.122080	-0.549360	0.001953	0.982664	-0.012207	-1.000000	-1.000000	-1.000000	-1.000000	-1.000000	-1.000000	-1.000000	146.482759	0.000000	-1.000000	-1.000000	569737.000000	1772311799.415507
-22552.020000	-30965.895000	-30738.510000	-15459.795000	0.000000	0.000000	0.000000	0.000000	9.114536	-22.566465	10.202104	9.445753	-0.000000	0.000000	-0.000000	0.000000	2.609460	0.122080	-0.549360	0.001953	0.982664	-0.012207	-1.000000	-1.000000	-1.000000	-1.000000	-1.000000	-1.000000	-1.000000	146.482759	0.000000	-1.000000	-1.000000	569738.000000	1772311799.419478
-22530.645000	-30955.095000	-30717.990000	-15440.040000	0.000000	0.000000	0.000000	0.000000	5.057455	-16.430663	4.681759	4.130467	-0.000000	0.000000	-0.000000	0.000000	2.609460	0.122080	-0.549360	0.001953	0.982664	-0.012207	-1.000000	-1.000000	-1.000000	-1.000000	-1.000000	-1.000000	-1.000000	146.482759	0.000000	-1.000000	-1.000000	569739.000000	1772311799.419481
-22521.330000	-30937.770000	-30709.080000	-15432.570000	0.000000	0.000000	0.000000	0.000000	0.477493	-7.945754	-1.267093	-1.769798	-0.000000	0.000000	-0.000000	0.000000	2.762060	0.015260	-0.396760	0.001709	0.981931	-0.012756	-1.000000	-1.000000	-1.000000	-1.000000	-1.000000	-1.000000	-1.000000	146.482759	0.000000	-1.000000	-1.000000	569740.000000	1772311799.423571
-22553.370000	-30917.925000	-30739.680000	-15461.640000	0.000000	0.000000	0.000000	0.000000	-3.379043	1.627220	-5.536078	-6.019112	-0.000000	0.000000	-0.000000	0.000000	2.762060	0.015260	-0.396760	0.001709	0.981931	-0.012756	-1.000000	-1.000000	-1.000000	-1.000000	-1.000000	-1.000000	-1.000000	146.482759	0.000000	-1.000000	-1.000000	569741.000000	1772311799.423588
-22550.445000	-30912.525000	-30736.215000	-15459.345000	0.000000	0.000000	0.000000	0.000000	-7.561845	10.221390	-8.933838	-9.226892	-0.000000	0.000000	-0.000000	0.000000	2.762060	0.015260	-0.396760	0.001709	0.981931	-0.012756	-1.000000	-1.000000	-1.000000	-1.000000	-1.000000	-1.000000	-1.000000	146.482759	0.000000	-1.000000	-1.000000	569742.000000	1772311799.427589
-22568.355000	-30901.995000	-30753.135000	-15475.680000	0.000000	0.000000	0.000000	0.000000	-11.991297	14.629873	-11.872589	-11.761759	-0.000000	0.000000	-0.000000	0.000000	2.762060	0.015260	-0.396760	0.001709	0.981931	-0.012756	-1.000000	-1.000000	-1.000000	-1.000000	-1.000000	-1.000000	-1.000000	146.482759	0.000000	-1.000000	-1.000000	569743.000000	1772311799.427592
-22573.755000	-30888.855000	-30757.455000	-15477.840000	0.000000	0.000000	0.000000	0.000000	-14.089165	13.103578	-12.606485	-12.011592	-0.000000	0.000000	-0.000000	0.000000	2.762060	0.015260	-0.396760	0.001709	0.981931	-0.012756	-1.000000	-1.000000	-1.000000	-1.000000	-1.000000	-1.000000	-1.000000	146.482759	0.000000	-1.000000	-1.000000	569744.000000	1772311799.431645
-22561.425000	-30897.765000	-30749.985000	-15472.485000	0.000000	0.000000	0.000000	0.000000	-11.438084	6.804209	-9.439863	-8.454023	-0.000000	0.000000	-0.000000	0.000000	2.762060	0.015260	-0.396760	0.001709	0.981931	-0.012756	-1.000000	-1.000000	-1.000000	-1.000000	-1.000000	-1.000000	-1.000000	146.482759	0.000000	-1.000000	-1.000000	569745.000000	1772311799.431648
-22556.655000	-30888.045000	-30744.045000	-15467.355000	0.000000	0.000000	0.000000	0.000000	-3.546923	-1.538037	-2.180811	-1.161470	-0.000000	0.000000	-0.000000	0.000000	2.762060	0.015260	-0.396760	0.001709	0.981931	-0.012756	-1.000000	-1.000000	-1.000000	-1.000000	-1.000000	-1.000000	-1.000000	146.482759	0.000000	-1.000000	-1.000000	569746.000000	1772311799.435766
-22568.805000	-30869.370000	-30756.690000	-15474.015000	0.000000	0.000000	0.000000	0.000000	6.661250	-8.304861	6.705395	7.366333	-0.000000	0.000000	-0.000000	0.000000	2.762060	0.015260	-0.396760	0.001709	0.981931	-0.012756	-1.000000	-1.000000	-1.000000	-1.000000	-1.000000	-1.000000	-1.000000	146.482759	0.000000	-1.000000	-1.000000	569747.000000	1772311799.435779
-22566.555000	-30863.970000	-30759.480000	-15478.425000	0.000000	0.000000	0.000000	0.000000	13.762297	-10.181652	12.631278	12.958207	-0.000000	0.000000	-0.000000	0.000000	2.762060	0.015260	-0.396760	0.001709	0.981931	-0.012756	-1.000000	-1.000000	-1.000000	-1.000000	-1.000000	-1.000000	-1.000000	146.482759	0.000000	-1.000000	-1.000000	569748.000000	1772311799.442595
-22567.725000	-30838.230000	-30755.745000	-15476.355000	0.000000	0.000000	0.000000	0.000000	14.476759	-6.754595	12.829968	12.995108	-0.000000	0.000000	-0.000000	0.000000	2.762060	0.015260	-0.396760	0.001709	0.981931	-0.012756	-1.000000	-1.000000	-1.000000	-1.000000	-1.000000	-1.000000	-1.000000	146.482759	0.000000	-1.000000	-1.000000	569749.000000	1772311799.442598
-22565.250000	-30812.265000	-30755.160000	-15477.165000	0.000000	0.000000	0.000000	0.000000	9.941114	-0.211611	8.655901	8.468931	-0.000000	0.000000	-0.000000	0.000000	2.975700	-0.122080	-0.610400	0.002136	0.982969	-0.013061	-1.000000	-1.000000	-1.000000	-1.000000	-1.000000	-1.000000	-1.000000	146.482759	0.000000	-1.000000	-1.000000	569750.000000	1772311799.443538
-22562.640000	-30813.975000	-30751.740000	-15474.915000	0.000000	0.000000	0.000000	0.000000	3.567001	6.115695	3.346293	2.494906	-0.000000	0.000000	-0.000000	0.000000	2.975700	-0.122080	-0.610400	0.002136	0.982969	-0.013061	-1.000000	-1.000000	-1.000000	-1.000000	-1.000000	-1.000000	-1.000000	146.482759	0.000000	-1.000000	-1.000000	569751.000000	1772311799.443541
-22565.070000	-30806.460000	-30752.730000	-15472.890000	0.000000	0.000000	0.000000	0.000000	-1.727868	8.352848	-0.811372	-2.191875	-0.000000	0.000000	-0.000000	0.000000	2.975700	-0.122080	-0.610400	0.002136	0.982969	-0.013061	-1.000000	-1.000000	-1.000000	-1.000000	-1.000000	-1.000000	-1.000000	146.482759	0.000000	-1.000000	-1.000000	569752.000000	1772311799.447681
-22560.795000	-30805.920000	-30749.535000	-15470.280000	0.000000	0.000000	0.000000	0.000000	-4.706885	4.760200	-3.145336	-4.367012	-0.000000	0.000000	-0.000000	0.000000	2.975700	-0.122080	-0.610400	0.002136	0.982969	-0.013061	-1.000000	-1.000000	-1.000000	-1.000000	-1.000000	-1.000000	-1.000000	146.482759	0.000000	-1.000000	-1.000000	569753.000000	1772311799.447684
-22561.200000	-30823.155000	-30752.280000	-15470.595000	0.000000	0.000000	0.000000	0.000000	-5.413111	-2.721337	-3.987956	-4.321748	-0.000000	0.000000	-0.000000	0.000000	2.975700	-0.122080	-0.610400	0.002136	0.982969	-0.013061	-1.000000	-1.000000	-1.000000	-1.000000	-1.000000	-1.000000	-1.000000	146.482759	0.000000	-1.000000	-1.000000	569754.000000	1772311799.451637
-22560.435000	-30838.140000	-30755.025000	-15472.575000	0.000000	0.000000	0.000000	0.000000	-4.519035	-10.661532	-4.037747	-3.255348	-0.000000	0.000000	-0.000000	0.000000	2.975700	-0.122080	-0.610400	0.002136	0.982969	-0.013061	-1.000000	-1.000000	-1.000000	-1.000000	-1.000000	-1.000000	-1.000000	146.482759	0.000000	-1.000000	-1.000000	569755.000000	1772311799.451640
-22555.530000	-30852.810000	-30747.915000	-15466.365000	0.000000	0.000000	0.000000	0.000000	-2.887061	-15.840348	-3.700652	-2.197831	-0.000000	0.000000	-0.000000	0.000000	2.975700	-0.122080	-0.610400	0.002136	0.982969	-0.013061	-1.000000	-1.000000	-1.000000	-1.000000	-1.000000	-1.000000	-1.000000	146.482759	0.000000	-1.000000	-1.000000	569756.000000	1772311799.455619
-22548.015000	-30873.420000	-30738.870000	-15458.940000	0.000000	0.000000	0.000000	0.000000	-1.000836	-15.964336	-2.567422	-1.180115	-0.000000	0.000000	-0.000000	0.000000	2.975700	-0.122080	-0.610400	0.002136	0.982969	-0.013061	-1.000000	-1.000000	-1.000000	-1.000000	-1.000000	-1.000000	-1.000000	146.482759	0.000000	-1.000000	-1.000000	569757.000000	1772311799.455622
-22541.490000	-30853.845000	-30733.380000	-15453.315000	0.000000	0.000000	0.000000	0.000000	0.962910	-10.225934	-0.253631	0.217783	-0.000000	0.000000	-0.000000	0.000000	2.975700	-0.122080	-0.610400	0.002136	0.982969	-0.013061	-1.000000	-1.000000	-1.000000	-1.000000	-1.000000	-1.000000	-1.000000	146.482759	0.000000	-1.000000	-1.000000	569758.000000	1772311799.459668
-22547.295000	-30800.475000	-30737.025000	-15456.780000	0.000000	0.000000	0.000000	0.000000	2.363248	1.655441	2.247934	1.593582	-0.000000	0.000000	-0.000000	0.000000	2.975700	-0.122080	-0.610400	0.002136	0.982969	-0.013061	-1.000000	-1.000000	-1.000000	-1.000000	-1.000000	-1.000000	-1.000000	146.482759	0.000000	-1.000000	-1.000000	569759.000000	1772311799.459670
-22575.600000	-30788.190000	-30765.330000	-15482.790000	0.000000	0.000000	0.000000	0.000000	1.613345	17.960390	2.573633	1.317570	-0.000000	0.000000	-0.000000	0.000000	3.021480	0.045780	-0.640920	0.002747	0.982297	-0.013123	-1.000000	-1.000000	-1.000000	-1.000000	-1.000000	-1.000000	-1.000000	146.482759	0.000000	-1.000000	-1.000000	569760.000000	1772311799.463781
-22575.825000	-30779.865000	-30769.065000	-15496.515000	0.000000	0.000000	0.000000	0.000000	-2.221941	31.390850	-0.838306	-2.017668	-0.000000	0.000000	-0.000000	0.000000	3.021480	0.045780	-0.640920	0.002747	0.982297	-0.013123	-1.000000	-1.000000	-1.000000	-1.000000	-1.000000	-1.000000	-1.000000	146.482759	0.000000	-1.000000	-1.000000	569761.000000	1772311799.463783
-22566.015000	-30809.025000	-30757.545000	-15485.490000	0.000000	0.000000	0.000000	0.000000	-6.564470	32.233181	-5.655229	-6.673787	-0.000000	0.000000	-0.000000	0.000000	3.021480	0.045780	-0.640920	0.002747	0.982297	-0.013123	-1.000000	-1.000000	-1.000000	-1.000000	-1.000000	-1.000000	-1.000000	146.482759	0.000000	-1.000000	-1.000000	569762.000000	1772311799.467696
-22561.065000	-30824.010000	-30753.315000	-15474.645000	0.000000	0.000000	0.000000	0.000000	-6.829618	16.904231	-6.899908	-7.845205	-0.000000	0.000000	-0.000000	0.000000	3.021480	0.045780	-0.640920	0.002747	0.982297	-0.013123	-1.000000	-1.000000	-1.000000	-1.000000	-1.000000	-1.000000	-1.000000	146.482759	0.000000	-1.000000	-1.000000	569763.000000	1772311799.467699
-22551.120000	-30834.495000	-30744.315000	-15462.945000	0.000000	0.000000	0.000000	0.000000	-1.621598	-7.711559	-2.483566	-2.680005	-0.000000	0.000000	-0.000000	0.000000	3.021480	0.045780	-0.640920	0.002747	0.982297	-0.013123	-1.000000	-1.000000	-1.000000	-1.000000	-1.000000	-1.000000	-1.000000	146.482759	0.000000	-1.000000	-1.000000	569764.000000	1772311799.473078
-22539.465000	-30832.425000	-30728.610000	-15451.965000	0.000000	0.000000	0.000000	0.000000	6.025474	-28.313109	4.979902	6.326303	0.000000	0.000000	-0.000000	0.000000	3.021480	0.045780	-0.640920	0.002747	0.982297	-0.013123	-1.000000	-1.000000	-1.000000	-1.000000	-1.000000	-1.000000	-1.000000	146.482759	0.000000	-1.000000	-1.000000	569765.000000	1772311799.473081
-22551.840000	-30820.230000	-30740.175000	-15467.355000	0.000000	0.000000	0.000000	0.000000	11.386016	-34.192923	10.861191	13.248029	0.000000	0.000000	-0.000000	0.000000	3.021480	0.045780	-0.640920	0.002747	0.982297	-0.013123	-1.000000	-1.000000	-1.000000	-1.000000	-1.000000	-1.000000	-1.000000	146.482759	0.000000	-1.000000	-1.000000	569766.000000	1772311799.475652
-22587.705000	-30826.440000	-30775.725000	-15497.280000	0.000000	0.000000	0.000000	0.000000	10.220995	-23.886091	10.605302	12.547277	0.000000	0.000000	-0.000000	0.000000	3.021480	0.045780	-0.640920	0.002747	0.982297	-0.013123	-1.000000	-1.000000	-1.000000	-1.000000	-1.000000	-1.000000	-1.000000	146.482759	0.000000	-1.000000	-1.000000	569767.000000	1772311799.475656
-22578.480000	-30816.900000	-30766.545000	-15481.530000	0.000000	0.000000	0.000000	0.000000	1.854564	-4.961729	2.868000	3.649721	0.000000	0.000000	-0.000000	0.000000	3.021480	0.045780	-0.640920	0.002747	0.982297	-0.013123	-1.000000	-1.000000	-1.000000	-1.000000	-1.000000	-1.000000	-1.000000	146.482759	0.000000	-1.000000	-1.000000	569768.000000	1772311799.479759
-22553.865000	-30803.130000	-30740.265000	-15456.240000	0.000000	0.000000	0.000000	0.000000	-7.703170	12.530362	-6.758079	-6.548709	0.000000	0.000000	-0.000000	0.000000	3.021480	0.045780	-0.640920	0.002747	0.982297	-0.013123	-1.000000	-1.000000	-1.000000	-1.000000	-1.000000	-1.000000	-1.000000	146.482759	0.000000	-1.000000	-1.000000	569769.000000	1772311799.479762
-22553.280000	-30833.595000	-30741.210000	-15454.350000	0.000000	0.000000	0.000000	0.000000	-10.392952	21.612313	-10.075656	-9.776382	0.000000	0.000000	-0.000000	0.000000	3.143560	-0.030520	-0.701960	0.002441	0.981992	-0.012268	-1.000000	-1.000000	-1.000000	-1.000000	-1.000000	-1.000000	-1.000000	146.482759	0.000000	-1.000000	-1.000000	569770.000000	1772311799.484909
-22549.320000	-30855.105000	-30738.780000	-15449.265000	0.000000	0.000000	0.000000	0.000000	-4.938950	19.096121	-5.460097	-5.138678	0.000000	0.000000	-0.000000	0.000000	3.143560	-0.030520	-0.701960	0.002441	0.981992	-0.012268	-1.000000	-1.000000	-1.000000	-1.000000	-1.000000	-1.000000	-1.000000	146.482759	0.000000	-1.000000	-1.000000	569771.000000	1772311799.484912
-22549.500000	-30856.140000	-30744.495000	-15456.330000	0.000000	0.000000	0.000000	0.000000	2.940541	7.200174	1.588360	1.471554	0.000000	0.000000	-0.000000	0.000000	3.143560	-0.030520	-0.701960	0.002441	0.981992	-0.012268	-1.000000	-1.000000	-1.000000	-1.000000	-1.000000	-1.000000	-1.000000	146.482759	0.000000	-1.000000	-1.000000	569772.000000	1772311799.487786
-22551.075000	-30843.810000	-30747.870000	-15470.955000	0.000000	0.000000	0.000000	0.000000	7.296310	-5.678434	5.271817	4.090440	0.000000	0.000000	-0.000000	0.000000	3.143560	-0.030520	-0.701960	0.002441	0.981992	-0.012268	-1.000000	-1.000000	-1.000000	-1.000000	-1.000000	-1.000000	-1.000000	146.482759	0.000000	-1.000000	-1.000000	569773.000000	1772311799.487789
-22550.580000	-30846.105000	-30745.440000	-15466.860000	0.000000	0.000000	0.000000	0.000000	6.176078	-11.088879	4.026728	1.198341	0.000000	0.000000	-0.000000	0.000000	3.143560	-0.030520	-0.701960	0.002441	0.981992	-0.012268	-1.000000	-1.000000	-1.000000	-1.000000	-1.000000	-1.000000	-1.000000	146.482759	0.000000	-1.000000	-1.000000	569774.000000	1772311799.493734
-22547.520000	-30841.155000	-30736.800000	-15457.590000	0.000000	0.000000	0.000000	0.000000	1.549825	-7.459241	0.396859	-3.657624	0.000000	0.000000	-0.000000	0.000000	3.143560	-0.030520	-0.701960	0.002441	0.981992	-0.012268	-1.000000	-1.000000	-1.000000	-1.000000	-1.000000	-1.000000	-1.000000	146.482759	0.000000	-1.000000	-1.000000	569775.000000	1772311799.493737
-22543.200000	-30847.545000	-30734.730000	-15454.440000	0.000000	0.000000	0.000000	0.000000	-3.014364	0.335717	-2.090146	-5.576501	0.000000	0.000000	-0.000000	0.000000	3.143560	-0.030520	-0.701960	0.002441	0.981992	-0.012268	-1.000000	-1.000000	-1.000000	-1.000000	-1.000000	-1.000000	-1.000000	146.482759	0.000000	-1.000000	-1.000000	569776.000000	1772311799.495753
-22544.775000	-30848.940000	-30739.680000	-15456.510000	0.000000	0.000000	0.000000	0.000000	-5.065692	6.230754	-2.207037	-3.180047	0.000000	0.000000	-0.000000	0.000000	3.143560	-0.030520	-0.701960	0.002441	0.981992	-0.012268	-1.000000	-1.000000	-1.000000	-1.000000	-1.000000	-1.000000	-1.000000	146.482759	0.000000	-1.000000	-1.000000	569777.000000	1772311799.495756
-22558.095000	-30844.080000	-30752.820000	-15470.145000	0.000000	0.000000	0.000000	0.000000	-4.735035	7.284710	-1.496733	0.722392	0.000000	0.000000	-0.000000	0.000000	3.143560	-0.030520	-0.701960	0.002441	0.981992	-0.012268	-1.000000	-1.000000	-1.000000	-1.000000	-1.000000	-1.000000	-1.000000	146.482759	0.000000	-1.000000	-1.000000	569778.000000	1772311799.499840
-22563.090000	-30865.050000	-30757.140000	-15475.050000	0.000000	0.000000	0.000000	0.000000	-3.810943	4.173438	-1.842964	2.553478	0.000000	0.000000	-0.000000	0.000000	3.143560	-0.030520	-0.701960	0.002441	0.981992	-0.012268	-1.000000	-1.000000	-1.000000	-1.000000	-1.000000	-1.000000	-1.000000	146.482759	0.000000	-1.000000	-1.000000	569779.000000	1772311799.499842
-22546.890000	-30879.045000	-30739.455000	-15457.410000	0.000000	0.000000	0.000000	0.000000	-2.899902	-1.284910	-2.712527	1.816303	0.000000	0.000000	-0.000000	0.000000	3.250380	0.015260	-0.824040	0.001831	0.981443	-0.010925	-1.000000	-1.000000	-1.000000	-1.000000	-1.000000	-1.000000	-1.000000	146.482759	0.000000	-1.000000	-1.000000	569780.000000	1772311799.503868
-22546.395000	-30892.005000	-30742.605000	-15458.265000	0.000000	0.000000	0.000000	0.000000	-0.718351	-7.049676	-1.774316	1.109502	0.000000	0.000000	-0.000000	0.000000	3.250380	0.015260	-0.824040	0.001831	0.981443	-0.010925	-1.000000	-1.000000	-1.000000	-1.000000	-1.000000	-1.000000	-1.000000	146.482759	0.000000	-1.000000	-1.000000	569781.000000	1772311799.503871
-22549.140000	-30877.605000	-30744.180000	-15461.820000	0.000000	0.000000	0.000000	0.000000	2.858591	-10.017310	1.318002	1.918431	0.000000	0.000000	-0.000000	0.000000	3.250380	0.015260	-0.824040	0.001831	0.981443	-0.010925	-1.000000	-1.000000	-1.000000	-1.000000	-1.000000	-1.000000	-1.000000	146.482759	0.000000	-1.000000	-1.000000	569782.000000	1772311799.507901
-22564.665000	-30880.035000	-30758.670000	-15475.815000	0.000000	0.000000	0.000000	0.000000	5.323072	-7.443818	3.892625	2.587556	0.000000	0.000000	-0.000000	0.000000	3.250380	0.015260	-0.824040	0.001831	0.981443	-0.010925	-1.000000	-1.000000	-1.000000	-1.000000	-1.000000	-1.000000	-1.000000	146.482759	0.000000	-1.000000	-1.000000	569783.000000	1772311799.507904
-22563.180000	-30919.365000	-30755.565000	-15473.340000	0.000000	0.000000	0.000000	0.000000	4.407187	-0.875211	3.585420	1.234657	0.000000	0.000000	-0.000000	0.000000	3.250380	0.015260	-0.824040	0.001831	0.981443	-0.010925	-1.000000	-1.000000	-1.000000	-1.000000	-1.000000	-1.000000	-1.000000	146.482759	0.000000	-1.000000	-1.000000	569784.000000	1772311799.515179
-22553.865000	-30942.225000	-30744.855000	-15462.225000	0.000000	0.000000	0.000000	0.000000	1.176265	3.768995	1.261342	-1.185162	0.000000	0.000000	-0.000000	0.000000	3.250380	0.015260	-0.824040	0.001831	0.981443	-0.010925	-1.000000	-1.000000	-1.000000	-1.000000	-1.000000	-1.000000	-1.000000	146.482759	0.000000	-1.000000	-1.000000	569785.000000	1772311799.515181
-22557.240000	-30949.920000	-30746.565000	-15460.695000	0.000000	0.000000	0.000000	0.000000	-1.183791	3.022662	-0.282297	-2.010093	0.000000	0.000000	-0.000000	0.000000	3.250380	0.015260	-0.824040	0.001831	0.981443	-0.010925	-1.000000	-1.000000	-1.000000	-1.000000	-1.000000	-1.000000	-1.000000	146.482759	0.000000	-1.000000	-1.000000	569786.000000	1772311799.515792
-22554.180000	-30961.620000	-30745.170000	-15459.030000	0.000000	0.000000	0.000000	0.000000	-1.188375	-0.227641	0.033626	-0.452611	0.000000	0.000000	-0.000000	0.000000	3.250380	0.015260	-0.824040	0.001831	0.981443	-0.010925	-1.000000	-1.000000	-1.000000	-1.000000	-1.000000	-1.000000	-1.000000	146.482759	0.000000	-1.000000	-1.000000	569787.000000	1772311799.515796
-22555.260000	-30952.080000	-30750.525000	-15467.220000	0.000000	0.000000	0.000000	0.000000	0.126281	-1.065499	0.866261	1.556515	0.000000	0.000000	-0.000000	0.000000	3.250380	0.015260	-0.824040	0.001831	0.981443	-0.010925	-1.000000	-1.000000	-1.000000	-1.000000	-1.000000	-1.000000	-1.000000	146.482759	0.000000	-1.000000	-1.000000	569788.000000	1772311799.519857
-22558.095000	-30945.375000	-30754.620000	-15469.470000	0.000000	0.000000	0.000000	0.000000	1.118267	2.658235	0.619582	1.763448	0.000000	0.000000	-0.000000	0.000000	3.250380	0.015260	-0.824040	0.001831	0.981443	-0.010925	-1.000000	-1.000000	-1.000000	-1.000000	-1.000000	-1.000000	-1.000000	146.482759	0.000000	-1.000000	-1.000000	569789.000000	1772311799.519860
-22561.065000	-30928.320000	-30757.995000	-15471.990000	0.000000	0.000000	0.000000	0.000000	0.837071	9.320688	-0.976844	-0.140369	0.000000	0.000000	-0.000000	0.000000	3.708180	0.366240	-0.396760	0.001160	0.981443	-0.011536	-1.000000	-1.000000	-1.000000	-1.000000	-1.000000	-1.000000	-1.000000	146.482759	0.000000	-1.000000	-1.000000	569790.000000	1772311799.528754
-22557.285000	-30922.200000	-30752.730000	-15469.740000	0.000000	0.000000	0.000000	0.000000	-0.446941	14.913301	-2.695649	-2.454505	0.000000	0.000000	-0.000000	0.000000	3.708180	0.366240	-0.396760	0.001160	0.981443	-0.011536	-1.000000	-1.000000	-1.000000	-1.000000	-1.000000	-1.000000	-1.000000	146.482759	0.000000	-1.000000	-1.000000	569791.000000	1772311799.528756
-22561.560000	-30913.155000	-30754.035000	-15469.470000	0.000000	0.000000	0.000000	0.000000	-1.605766	15.593353	-2.944145	-3.252710	0.000000	0.000000	-0.000000	0.000000	3.708180	0.366240	-0.396760	0.001160	0.981443	-0.011536	-1.000000	-1.000000	-1.000000	-1.000000	-1.000000	-1.000000	-1.000000	146.482759	0.000000	-1.000000	-1.000000	569792.000000	1772311799.528760
-22561.290000	-30890.295000	-30753.720000	-15468.435000	0.000000	0.000000	0.000000	0.000000	-1.896174	10.391472	-1.396682	-1.995489	0.000000	0.000000	-0.000000	0.000000	3.708180	0.366240	-0.396760	0.001160	0.981443	-0.011536	-1.000000	-1.000000	-1.000000	-1.000000	-1.000000	-1.000000	-1.000000	146.482759	0.000000	-1.000000	-1.000000	569793.000000	1772311799.528763
-22560.840000	-30866.265000	-30754.755000	-15469.920000	0.000000	0.000000	0.000000	0.000000	-1.368066	2.176009	0.786744	0.320765	0.000000	0.000000	-0.000000	0.000000	3.708180	0.366240	-0.396760	0.001160	0.981443	-0.011536	-1.000000	-1.000000	-1.000000	-1.000000	-1.000000	-1.000000	-1.000000	146.482759	0.000000	-1.000000	-1.000000	569794.000000	1772311799.532006
-22553.955000	-30848.715000	-30748.860000	-15465.915000	0.000000	0.000000	0.000000	0.000000	-0.235382	-4.974296	2.346866	2.256417	0.000000	0.000000	-0.000000	0.000000	3.708180	0.366240	-0.396760	0.001160	0.981443	-0.011536	-1.000000	-1.000000	-1.000000	-1.000000	-1.000000	-1.000000	-1.000000	146.482759	0.000000	-1.000000	-1.000000	569795.000000	1772311799.532009
-22547.655000	-30831.570000	-30746.205000	-15463.845000	0.000000	0.000000	0.000000	0.000000	1.371958	-9.131907	2.935421	3.073045	0.000000	0.000000	-0.000000	0.000000	3.708180	0.366240	-0.396760	0.001160	0.981443	-0.011536	-1.000000	-1.000000	-1.000000	-1.000000	-1.000000	-1.000000	-1.000000	146.482759	0.000000	-1.000000	-1.000000	569796.000000	1772311799.536128
-22559.040000	-30830.130000	-30756.915000	-15471.630000	0.000000	0.000000	0.000000	0.000000	2.734848	-10.957899	2.509969	2.651096	0.000000	0.000000	-0.000000	0.000000	3.708180	0.366240	-0.396760	0.001160	0.981443	-0.011536	-1.000000	-1.000000	-1.000000	-1.000000	-1.000000	-1.000000	-1.000000	146.482759	0.000000	-1.000000	-1.000000	569797.000000	1772311799.536130
-22571.145000	-30830.355000	-30769.200000	-15483.465000	0.000000	0.000000	0.000000	0.000000	2.246417	-12.112770	0.569998	0.792633	0.000000	0.000000	-0.000000	0.000000	3.708180	0.366240	-0.396760	0.001160	0.981443	-0.011536	-1.000000	-1.000000	-1.000000	-1.000000	-1.000000	-1.000000	-1.000000	146.482759	0.000000	-1.000000	-1.000000	569798.000000	1772311799.539827
-22575.645000	-30837.330000	-30772.170000	-15483.555000	0.000000	0.000000	0.000000	0.000000	-0.788586	-13.443614	-2.749192	-2.187131	0.000000	0.000000	-0.000000	0.000000	3.708180	0.366240	-0.396760	0.001160	0.981443	-0.011536	-1.000000	-1.000000	-1.000000	-1.000000	-1.000000	-1.000000	-1.000000	146.482759	0.000000	-1.000000	-1.000000	569799.000000	1772311799.539835
-22571.145000	-30831.165000	-30767.760000	-15476.445000	0.000000	0.000000	0.000000	0.000000	-4.357963	-13.976166	-5.423740	-4.422022	0.000000	0.000000	-0.000000	0.000000	3.616620	0.000000	-0.457800	0.001343	0.981626	-0.012268	-1.000000	-1.000000	-1.000000	-1.000000	-1.000000	-1.000000	-1.000000	146.482759	0.000000	-1.000000	-1.000000	569800.000000	1772311799.544058
-22561.515000	-30834.990000	-30756.195000	-15466.365000	0.000000	0.000000	0.000000	0.000000	-5.163291	-11.773669	-4.834452	-3.632844	0.000000	0.000000	-0.000000	0.000000	3.616620	0.000000	-0.457800	0.001343	0.981626	-0.012268	-1.000000	-1.000000	-1.000000	-1.000000	-1.000000	-1.000000	-1.000000	146.482759	0.000000	-1.000000	-1.000000	569801.000000	1772311799.544061
-22557.870000	-30841.065000	-30749.625000	-15457.050000	0.000000	0.000000	0.000000	0.000000	-1.876373	-6.301747	-0.398337	0.443793	0.000000	0.000000	-0.000000	0.000000	3.616620	0.000000	-0.457800	0.001343	0.981626	-0.012268	-1.000000	-1.000000	-1.000000	-1.000000	-1.000000	-1.000000	-1.000000	146.482759	0.000000	-1.000000	-1.000000	569802.000000	1772311799.547993
-22571.775000	-30820.680000	-30771.630000	-15482.430000	0.000000	0.000000	0.000000	0.000000	3.143665	1.045509	4.967571	4.894502	0.000000	0.000000	-0.000000	0.000000	3.616620	0.000000	-0.457800	0.001343	0.981626	-0.012268	-1.000000	-1.000000	-1.000000	-1.000000	-1.000000	-1.000000	-1.000000	146.482759	0.000000	-1.000000	-1.000000	569803.000000	1772311799.547996
-22577.805000	-30816.045000	-30781.530000	-15502.320000	0.000000	0.000000	0.000000	0.000000	5.694080	8.626059	6.603201	5.212222	0.000000	0.000000	-0.000000	0.000000	3.616620	0.000000	-0.457800	0.001343	0.981626	-0.012268	-1.000000	-1.000000	-1.000000	-1.000000	-1.000000	-1.000000	-1.000000	146.482759	0.000000	-1.000000	-1.000000	569804.000000	1772311799.551974
-22575.105000	-30819.600000	-30772.980000	-15489.045000	0.000000	0.000000	0.000000	0.000000	3.992974	14.343999	3.106411	0.289355	0.000000	0.000000	-0.000000	0.000000	3.616620	0.000000	-0.457800	0.001343	0.981626	-0.012268	-1.000000	-1.000000	-1.000000	-1.000000	-1.000000	-1.000000	-1.000000	146.482759	0.000000	-1.000000	-1.000000	569805.000000	1772311799.551976
-22571.550000	-30804.210000	-30767.040000	-15477.660000	0.000000	0.000000	0.000000	0.000000	0.319759	15.721133	-1.693457	-4.965256	0.000000	0.000000	-0.000000	0.000000	3.616620	0.000000	-0.457800	0.001343	0.981626	-0.012268	-1.000000	-1.000000	-1.000000	-1.000000	-1.000000	-1.000000	-1.000000	146.482759	0.000000	-1.000000	-1.000000	569806.000000	1772311799.555992
-22571.820000	-30800.880000	-30766.095000	-15474.240000	0.000000	0.000000	0.000000	0.000000	-2.029107	12.436785	-3.421427	-5.113662	0.000000	0.000000	-0.000000	0.000000	3.616620	0.000000	-0.457800	0.001343	0.981626	-0.012268	-1.000000	-1.000000	-1.000000	-1.000000	-1.000000	-1.000000	-1.000000	146.482759	0.000000	-1.000000	-1.000000	569807.000000	1772311799.555995
-22564.800000	-30793.590000	-30761.370000	-15474.555000	0.000000	0.000000	0.000000	0.000000	-1.844212	6.506298	-1.550817	-0.365242	0.000000	0.000000	-0.000000	0.000000	3.616620	0.000000	-0.457800	0.001343	0.981626	-0.012268	-1.000000	-1.000000	-1.000000	-1.000000	-1.000000	-1.000000	-1.000000	146.482759	0.000000	-1.000000	-1.000000	569808.000000	1772311799.559939
-22563.135000	-30798.675000	-30759.840000	-15474.735000	0.000000	0.000000	0.000000	0.000000	0.016943	0.060227	1.529491	4.736691	0.000000	0.000000	-0.000000	0.000000	3.616620	0.000000	-0.457800	0.001343	0.981626	-0.012268	-1.000000	-1.000000	-1.000000	-1.000000	-1.000000	-1.000000	-1.000000	146.482759	0.000000	-1.000000	-1.000000	569809.000000	1772311799.559942
-22565.610000	-30798.630000	-30755.790000	-15464.880000	0.000000	0.000000	0.000000	0.000000	1.820506	-5.554561	3.392146	6.555394	0.000000	0.000000	-0.000000	0.000000	3.570840	0.106820	-0.396760	0.001953	0.981809	-0.014648	-1.000000	-1.000000	-1.000000	-1.000000	-1.000000	-1.000000	-1.000000	146.482759	0.000000	-1.000000	-1.000000	569810.000000	1772311799.567465
-22568.715000	-30801.465000	-30760.830000	-15468.255000	0.000000	0.000000	0.000000	0.000000	1.986940	-9.329568	2.961384	4.811825	0.000000	0.000000	-0.000000	0.000000	3.570840	0.106820	-0.396760	0.001953	0.981809	-0.014648	-1.000000	-1.000000	-1.000000	-1.000000	-1.000000	-1.000000	-1.000000	146.482759	0.000000	-1.000000	-1.000000	569811.000000	1772311799.567470
-22560.570000	-30792.735000	-30759.030000	-15471.855000	0.000000	0.000000	0.000000	0.000000	0.383065	-10.216500	0.540063	1.023572	0.000000	0.000000	-0.000000	0.000000	3.570840	0.106820	-0.396760	0.001953	0.981809	-0.014648	-1.000000	-1.000000	-1.000000	-1.000000	-1.000000	-1.000000	-1.000000	146.482759	0.000000	-1.000000	-1.000000	569812.000000	1772311799.567921
-22559.265000	-30761.190000	-30755.115000	-15460.200000	0.000000	0.000000	0.000000	0.000000	-1.460185	-7.141384	-2.411782	-2.971914	0.000000	0.000000	-0.000000	0.000000	3.570840	0.106820	-0.396760	0.001953	0.981809	-0.014648	-1.000000	-1.000000	-1.000000	-1.000000	-1.000000	-1.000000	-1.000000	146.482759	0.000000	-1.000000	-1.000000	569813.000000	1772311799.567924
-22564.980000	-30730.815000	-30757.950000	-15453.765000	0.000000	0.000000	0.000000	0.000000	-2.257588	0.228545	-4.148478	-5.064773	0.000000	0.000000	-0.000000	0.000000	3.570840	0.106820	-0.396760	0.001953	0.981809	-0.014648	-1.000000	-1.000000	-1.000000	-1.000000	-1.000000	-1.000000	-1.000000	146.482759	0.000000	-1.000000	-1.000000	569814.000000	1772311799.572073
-22564.620000	-30728.160000	-30755.025000	-15448.635000	0.000000	0.000000	0.000000	0.000000	-2.244975	9.246941	-4.009920	-4.177908	0.000000	0.000000	-0.000000	0.000000	3.570840	0.106820	-0.396760	0.001953	0.981809	-0.014648	-1.000000	-1.000000	-1.000000	-1.000000	-1.000000	-1.000000	-1.000000	146.482759	0.000000	-1.000000	-1.000000	569815.000000	1772311799.572076
-22562.505000	-30716.370000	-30758.895000	-15463.215000	0.000000	0.000000	0.000000	0.000000	-1.962219	14.237238	-2.567790	-1.777086	0.000000	0.000000	-0.000000	0.000000	3.570840	0.106820	-0.396760	0.001953	0.981809	-0.014648	-1.000000	-1.000000	-1.000000	-1.000000	-1.000000	-1.000000	-1.000000	146.482759	0.000000	-1.000000	-1.000000	569816.000000	1772311799.575993
-22569.120000	-30690.855000	-30776.310000	-15496.695000	0.000000	0.000000	0.000000	0.000000	-1.422427	11.716683	-1.138859	-1.155339	0.000000	0.000000	-0.000000	0.000000	3.570840	0.106820	-0.396760	0.001953	0.981809	-0.014648	-1.000000	-1.000000	-1.000000	-1.000000	-1.000000	-1.000000	-1.000000	146.482759	0.000000	-1.000000	-1.000000	569817.000000	1772311799.575995
-22575.915000	-30666.915000	-30782.160000	-15502.905000	0.000000	0.000000	0.000000	0.000000	-0.873611	4.165106	-1.035239	-4.165680	0.000000	0.000000	-0.000000	0.000000	3.570840	0.106820	-0.396760	0.001953	0.981809	-0.014648	-1.000000	-1.000000	-1.000000	-1.000000	-1.000000	-1.000000	-1.000000	146.482759	0.000000	-1.000000	-1.000000	569818.000000	1772311799.580090
-22577.355000	-30653.505000	-30778.605000	-15494.130000	0.000000	0.000000	0.000000	0.000000	-0.703751	-3.362319	-1.837950	-7.898366	0.000000	0.000000	-0.000000	0.000000	3.570840	0.106820	-0.396760	0.001953	0.981809	-0.014648	-1.000000	-1.000000	-1.000000	-1.000000	-1.000000	-1.000000	-1.000000	146.482759	0.000000	-1.000000	-1.000000	569819.000000	1772311799.580093
-22580.865000	-30638.520000	-30784.950000	-15500.115000	0.000000	0.000000	0.000000	0.000000	-0.626832	-8.076884	-1.573789	-7.158356	0.000000	0.000000	-0.000000	0.000000	2.411080	0.335720	-0.640920	0.002136	0.983701	-0.016479	-1.000000	-1.000000	-1.000000	-1.000000	-1.000000	-1.000000	-1.000000	146.482759	0.000000	-1.000000	-1.000000	569820.000000	1772311799.586648
-22575.105000	-30615.255000	-30784.905000	-15502.815000	0.000000	0.000000	0.000000	0.000000	0.068055	-9.701114	0.590277	-0.827976	0.000000	0.000000	-0.000000	0.000000	2.411080	0.335720	-0.640920	0.002136	0.983701	-0.016479	-1.000000	-1.000000	-1.000000	-1.000000	-1.000000	-1.000000	-1.000000	146.482759	0.000000	-1.000000	-1.000000	569821.000000	1772311799.586660
-22562.640000	-30597.390000	-30771.720000	-15486.435000	0.000000	0.000000	0.000000	0.000000	1.908975	-8.598832	3.775970	7.488055	0.000000	0.000000	-0.000000	0.000000	2.411080	0.335720	-0.640920	0.002136	0.983701	-0.016479	-1.000000	-1.000000	-1.000000	-1.000000	-1.000000	-1.000000	-1.000000	146.482759	0.000000	-1.000000	-1.000000	569822.000000	1772311799.588010
-22552.560000	-30572.640000	-30760.650000	-15475.590000	0.000000	0.000000	0.000000	0.000000	4.767215	-5.438216	6.988309	13.961113	0.000000	0.000000	-0.000000	0.000000	2.411080	0.335720	-0.640920	0.002136	0.983701	-0.016479	-1.000000	-1.000000	-1.000000	-1.000000	-1.000000	-1.000000	-1.000000	146.482759	0.000000	-1.000000	-1.000000	569823.000000	1772311799.588013
-22563.180000	-30559.680000	-30767.805000	-15483.690000	0.000000	0.000000	0.000000	0.000000	7.010051	-1.549968	8.946629	16.139635	0.000000	0.000000	-0.000000	0.000000	2.411080	0.335720	-0.640920	0.002136	0.983701	-0.016479	-1.000000	-1.000000	-1.000000	-1.000000	-1.000000	-1.000000	-1.000000	146.482759	0.000000	-1.000000	-1.000000	569824.000000	1772311799.592382
-22585.770000	-30561.345000	-30792.330000	-15505.245000	0.000000	0.000000	0.000000	0.000000	5.708005	1.033544	7.268772	12.093231	0.000000	0.000000	-0.000000	0.000000	2.411080	0.335720	-0.640920	0.002136	0.983701	-0.016479	-1.000000	-1.000000	-1.000000	-1.000000	-1.000000	-1.000000	-1.000000	146.482759	0.000000	-1.000000	-1.000000	569825.000000	1772311799.592386
-22588.020000	-30555.405000	-30791.880000	-15502.455000	0.000000	0.000000	0.000000	0.000000	-0.327928	0.564939	0.791553	2.198519	0.000000	0.000000	-0.000000	0.000000	2.411080	0.335720	-0.640920	0.002136	0.983701	-0.016479	-1.000000	-1.000000	-1.000000	-1.000000	-1.000000	-1.000000	-1.000000	146.482759	0.000000	-1.000000	-1.000000	569826.000000	1772311799.596134
-22590.810000	-30552.255000	-30794.895000	-15504.705000	0.000000	0.000000	0.000000	0.000000	-7.809475	-2.438158	-7.357375	-8.801116	0.000000	0.000000	-0.000000	0.000000	2.411080	0.335720	-0.640920	0.002136	0.983701	-0.016479	-1.000000	-1.000000	-1.000000	-1.000000	-1.000000	-1.000000	-1.000000	146.482759	0.000000	-1.000000	-1.000000	569827.000000	1772311799.596137
-22587.750000	-30530.250000	-30793.455000	-15505.785000	0.000000	0.000000	0.000000	0.000000	-11.410353	-4.980176	-11.836879	-14.884158	0.000000	0.000000	-0.000000	0.000000	2.411080	0.335720	-0.640920	0.002136	0.983701	-0.016479	-1.000000	-1.000000	-1.000000	-1.000000	-1.000000	-1.000000	-1.000000	146.482759	0.000000	-1.000000	-1.000000	569828.000000	1772311799.600124
-22580.235000	-30510.900000	-30786.255000	-15499.080000	0.000000	0.000000	0.000000	0.000000	-8.541415	-3.906065	-9.924978	-13.553048	0.000000	0.000000	-0.000000	0.000000	2.411080	0.335720	-0.640920	0.002136	0.983701	-0.016479	-1.000000	-1.000000	-1.000000	-1.000000	-1.000000	-1.000000	-1.000000	146.482759	0.000000	-1.000000	-1.000000	569829.000000	1772311799.600127
-22568.400000	-30502.215000	-30779.190000	-15488.865000	0.000000	0.000000	0.000000	0.000000	-0.772925	1.105115	-2.975964	-6.445024	0.000000	0.000000	-0.000000	0.000000	1.403920	0.717220	-0.564620	0.002075	0.984067	-0.015869	-1.000000	-1.000000	-1.000000	-1.000000	-1.000000	-1.000000	-1.000000	146.482759	0.000000	-1.000000	-1.000000	569830.000000	1772311799.604083
-22575.105000	-30496.680000	-30788.505000	-15498.270000	0.000000	0.000000	0.000000	0.000000	7.567766	6.692486	4.885533	2.337520	0.000000	0.000000	-0.000000	0.000000	1.403920	0.717220	-0.564620	0.002075	0.984067	-0.015869	-1.000000	-1.000000	-1.000000	-1.000000	-1.000000	-1.000000	-1.000000	146.482759	0.000000	-1.000000	-1.000000	569831.000000	1772311799.604086
-22570.695000	-30488.670000	-30783.735000	-15498.045000	0.000000	0.000000	0.000000	0.000000	11.805536	8.870579	9.206595	8.068039	0.000000	0.000000	-0.000000	0.000000	1.403920	0.717220	-0.564620	0.002075	0.984067	-0.015869	-1.000000	-1.000000	-1.000000	-1.000000	-1.000000	-1.000000	-1.000000	146.482759	0.000000	-1.000000	-1.000000	569832.000000	1772311799.608160
-22551.930000	-30482.190000	-30762.180000	-15484.770000	0.000000	0.000000	0.000000	0.000000	10.349896	6.557546	8.725166	8.595439	0.000000	0.000000	-0.000000	0.000000	1.403920	0.717220	-0.564620	0.002075	0.984067	-0.015869	-1.000000	-1.000000	-1.000000	-1.000000	-1.000000	-1.000000	-1.000000	146.482759	0.000000	-1.000000	-1.000000	569833.000000	1772311799.608167
-22534.965000	-30468.285000	-30744.540000	-15470.415000	0.000000	0.000000	0.000000	0.000000	5.863068	1.845425	6.113201	5.930407	0.000000	0.000000	-0.000000	0.000000	1.403920	0.717220	-0.564620	0.002075	0.984067	-0.015869	-1.000000	-1.000000	-1.000000	-1.000000	-1.000000	-1.000000	-1.000000	146.482759	0.000000	-1.000000	-1.000000	569834.000000	1772311799.612815
-22561.965000	-30440.430000	-30771.450000	-15488.010000	0.000000	0.000000	0.000000	0.000000	1.147562	-1.826538	3.440100	2.816280	0.000000	0.000000	-0.000000	0.000000	1.403920	0.717220	-0.564620	0.002075	0.984067	-0.015869	-1.000000	-1.000000	-1.000000	-1.000000	-1.000000	-1.000000	-1.000000	146.482759	0.000000	-1.000000	-1.000000	569835.000000	1772311799.612818
-22605.615000	-30403.170000	-30813.750000	-15516.990000	0.000000	0.000000	0.000000	0.000000	-4.806472	-1.657033	-1.349123	-1.079334	0.000000	0.000000	-0.000000	0.000000	1.403920	0.717220	-0.564620	0.002075	0.984067	-0.015869	-1.000000	-1.000000	-1.000000	-1.000000	-1.000000	-1.000000	-1.000000	146.482759	0.000000	-1.000000	-1.000000	569836.000000	1772311799.618150
-22582.530000	-30379.320000	-30794.175000	-15501.870000	0.000000	0.000000	0.000000	0.000000	-12.717894	2.438772	-9.552579	-6.546508	0.000000	0.000000	-0.000000	0.000000	1.403920	0.717220	-0.564620	0.002075	0.984067	-0.015869	-1.000000	-1.000000	-1.000000	-1.000000	-1.000000	-1.000000	-1.000000	146.482759	0.000000	-1.000000	-1.000000	569837.000000	1772311799.618153
-22558.320000	-30342.330000	-30774.150000	-15487.740000	0.000000	0.000000	0.000000	0.000000	-17.084329	7.325038	-15.592271	-10.232706	0.000000	0.000000	-0.000000	0.000000	1.403920	0.717220	-0.564620	0.002075	0.984067	-0.015869	-1.000000	-1.000000	-1.000000	-1.000000	-1.000000	-1.000000	-1.000000	146.482759	0.000000	-1.000000	-1.000000	569838.000000	1772311799.620054
-22570.470000	-30316.185000	-30781.440000	-15488.415000	0.000000	0.000000	0.000000	0.000000	-11.917712	9.285935	-12.699541	-7.910089	0.000000	0.000000	-0.000000	0.000000	1.403920	0.717220	-0.564620	0.002075	0.984067	-0.015869	-1.000000	-1.000000	-1.000000	-1.000000	-1.000000	-1.000000	-1.000000	146.482759	0.000000	-1.000000	-1.000000	569839.000000	1772311799.620069
-22605.930000	-30298.140000	-30814.920000	-15514.290000	0.000000	0.000000	0.000000	0.000000	-0.658979	6.536001	-2.924726	-1.177895	0.000000	0.000000	-0.000000	0.000000	2.380560	0.610400	-0.091560	0.001221	0.982053	-0.012756	-1.000000	-1.000000	-1.000000	-1.000000	-1.000000	-1.000000	-1.000000	146.482759	0.000000	-1.000000	-1.000000	569840.000000	1772311799.624103
-22620.195000	-30277.305000	-30827.970000	-15526.215000	0.000000	0.000000	0.000000	0.000000	7.121689	-0.347182	5.051562	3.796993	0.000000	0.000000	-0.000000	0.000000	2.380560	0.610400	-0.091560	0.001221	0.982053	-0.012756	-1.000000	-1.000000	-1.000000	-1.000000	-1.000000	-1.000000	-1.000000	146.482759	0.000000	-1.000000	-1.000000	569841.000000	1772311799.624106
-22596.570000	-30285.000000	-30804.570000	-15507.945000	0.000000	0.000000	0.000000	0.000000	7.617480	-9.036503	6.913513	4.040657	0.000000	0.000000	-0.000000	0.000000	2.380560	0.610400	-0.091560	0.001221	0.982053	-0.012756	-1.000000	-1.000000	-1.000000	-1.000000	-1.000000	-1.000000	-1.000000	146.482759	0.000000	-1.000000	-1.000000	569842.000000	1772311799.628949
-22595.085000	-30285.315000	-30803.715000	-15508.530000	0.000000	0.000000	0.000000	0.000000	5.579874	-16.892333	6.159400	2.563821	0.000000	0.000000	-0.000000	0.000000	2.380560	0.610400	-0.091560	0.001221	0.982053	-0.012756	-1.000000	-1.000000	-1.000000	-1.000000	-1.000000	-1.000000	-1.000000	146.482759	0.000000	-1.000000	-1.000000	569843.000000	1772311799.628952
-22596.885000	-30279.915000	-30802.815000	-15505.200000	0.000000	0.000000	0.000000	0.000000	5.719946	-21.308363	6.708051	2.781852	0.000000	0.000000	-0.000000	0.000000	2.380560	0.610400	-0.091560	0.001221	0.982053	-0.012756	-1.000000	-1.000000	-1.000000	-1.000000	-1.000000	-1.000000	-1.000000	146.482759	0.000000	-1.000000	-1.000000	569844.000000	1772311799.632131
-22586.355000	-30270.870000	-30792.465000	-15495.165000	0.000000	0.000000	0.000000	0.000000	7.385773	-19.667658	8.019065	4.516213	0.000000	0.000000	-0.000000	0.000000	2.380560	0.610400	-0.091560	0.001221	0.982053	-0.012756	-1.000000	-1.000000	-1.000000	-1.000000	-1.000000	-1.000000	-1.000000	146.482759	0.000000	-1.000000	-1.000000	569845.000000	1772311799.632135
-22576.545000	-30254.130000	-30786.435000	-15492.195000	0.000000	0.000000	0.000000	0.000000	8.037715	-11.177518	7.983177	5.884486	0.000000	0.000000	-0.000000	0.000000	2.380560	0.610400	-0.091560	0.001221	0.982053	-0.012756	-1.000000	-1.000000	-1.000000	-1.000000	-1.000000	-1.000000	-1.000000	146.482759	0.000000	-1.000000	-1.000000	569846.000000	1772311799.636171
-22570.830000	-30245.490000	-30781.620000	-15491.655000	0.000000	0.000000	0.000000	0.000000	6.563463	1.598180	5.699144	5.340608	-0.000000	0.000000	-0.000000	0.000000	2.380560	0.610400	-0.091560	0.001221	0.982053	-0.012756	-1.000000	-1.000000	-1.000000	-1.000000	-1.000000	-1.000000	-1.000000	146.482759	0.000000	-1.000000	-1.000000	569847.000000	1772311799.636184
-22575.960000	-30220.560000	-30784.815000	-15490.755000	0.000000	0.000000	0.000000	0.000000	2.873389	13.834105	1.385058	2.352707	-0.000000	0.000000	-0.000000	0.000000	2.380560	0.610400	-0.091560	0.001221	0.982053	-0.012756	-1.000000	-1.000000	-1.000000	-1.000000	-1.000000	-1.000000	-1.000000	146.482759	0.000000	-1.000000	-1.000000	569848.000000	1772311799.640293
-22581.540000	-30200.130000	-30792.510000	-15497.145000	0.000000	0.000000	0.000000	0.000000	-2.657845	21.376996	-4.109393	-2.221716	-0.000000	0.000000	-0.000000	0.000000	2.380560	0.610400	-0.091560	0.001221	0.982053	-0.012756	-1.000000	-1.000000	-1.000000	-1.000000	-1.000000	-1.000000	-1.000000	146.482759	0.000000	-1.000000	-1.000000	569849.000000	1772311799.640297
-22582.305000	-30192.165000	-30793.590000	-15502.815000	0.000000	0.000000	0.000000	0.000000	-8.574764	22.270258	-9.295631	-6.719505	-0.000000	0.000000	-0.000000	0.000000	3.525060	0.335720	-0.412020	0.001648	0.980955	-0.011291	-1.000000	-1.000000	-1.000000	-1.000000	-1.000000	-1.000000	-1.000000	146.482759	0.000000	-1.000000	-1.000000	569850.000000	1772311799.644247
-22578.840000	-30193.155000	-30788.055000	-15495.480000	0.000000	0.000000	0.000000	0.000000	-12.249657	16.216134	-11.971272	-9.288743	-0.000000	0.000000	-0.000000	0.000000	3.525060	0.335720	-0.412020	0.001648	0.980955	-0.011291	-1.000000	-1.000000	-1.000000	-1.000000	-1.000000	-1.000000	-1.000000	146.482759	0.000000	-1.000000	-1.000000	569851.000000	1772311799.644250
-22583.970000	-30182.310000	-30795.390000	-15499.395000	0.000000	0.000000	0.000000	0.000000	-11.678691	5.023492	-10.543014	-8.469148	-0.000000	0.000000	-0.000000	0.000000	3.525060	0.335720	-0.412020	0.001648	0.980955	-0.011291	-1.000000	-1.000000	-1.000000	-1.000000	-1.000000	-1.000000	-1.000000	146.482759	0.000000	-1.000000	-1.000000	569852.000000	1772311799.648258
-22593.330000	-30172.770000	-30803.940000	-15504.390000	0.000000	0.000000	0.000000	0.000000	-7.483186	-6.736513	-5.951963	-4.642622	-0.000000	0.000000	-0.000000	0.000000	3.525060	0.335720	-0.412020	0.001648	0.980955	-0.011291	-1.000000	-1.000000	-1.000000	-1.000000	-1.000000	-1.000000	-1.000000	146.482759	0.000000	-1.000000	-1.000000	569853.000000	1772311799.648262
-22590.045000	-30162.690000	-30801.915000	-15505.020000	0.000000	0.000000	0.000000	0.000000	-2.145568	-13.995578	-0.822985	-0.045574	-0.000000	0.000000	-0.000000	0.000000	3.525060	0.335720	-0.412020	0.001648	0.980955	-0.011291	-1.000000	-1.000000	-1.000000	-1.000000	-1.000000	-1.000000	-1.000000	146.482759	0.000000	-1.000000	-1.000000	569854.000000	1772311799.655418
-22584.015000	-30162.735000	-30797.595000	-15500.970000	0.000000	0.000000	0.000000	0.000000	2.615691	-14.700502	3.267106	3.438415	-0.000000	0.000000	-0.000000	0.000000	3.525060	0.335720	-0.412020	0.001648	0.980955	-0.011291	-1.000000	-1.000000	-1.000000	-1.000000	-1.000000	-1.000000	-1.000000	146.482759	0.000000	-1.000000	-1.000000	569855.000000	1772311799.655421
-22584.555000	-30167.775000	-30800.970000	-15501.150000	0.000000	0.000000	0.000000	0.000000	6.330936	-10.742553	6.100928	5.352772	-0.000000	0.000000	-0.000000	0.000000	3.525060	0.335720	-0.412020	0.001648	0.980955	-0.011291	-1.000000	-1.000000	-1.000000	-1.000000	-1.000000	-1.000000	-1.000000	146.482759	0.000000	-1.000000	-1.000000	569856.000000	1772311799.656252
-22585.050000	-30171.150000	-30799.980000	-15500.565000	0.000000	0.000000	0.000000	0.000000	8.342740	-5.683427	7.355010	5.787512	-0.000000	0.000000	-0.000000	0.000000	3.525060	0.335720	-0.412020	0.001648	0.980955	-0.011291	-1.000000	-1.000000	-1.000000	-1.000000	-1.000000	-1.000000	-1.000000	146.482759	0.000000	-1.000000	-1.000000	569857.000000	1772311799.656256
-22579.200000	-30182.715000	-30789.270000	-15491.340000	0.000000	0.000000	0.000000	0.000000	7.939479	-1.961295	6.837639	4.975284	-0.000000	0.000000	-0.000000	0.000000	3.525060	0.335720	-0.412020	0.001648	0.980955	-0.011291	-1.000000	-1.000000	-1.000000	-1.000000	-1.000000	-1.000000	-1.000000	146.482759	0.000000	-1.000000	-1.000000	569858.000000	1772311799.660460
-22572.765000	-30203.370000	-30782.205000	-15485.940000	0.000000	0.000000	0.000000	0.000000	5.588120	-0.319371	5.330947	3.596962	-0.000000	0.000000	-0.000000	0.000000	3.525060	0.335720	-0.412020	0.001648	0.980955	-0.011291	-1.000000	-1.000000	-1.000000	-1.000000	-1.000000	-1.000000	-1.000000	146.482759	0.000000	-1.000000	-1.000000	569859.000000	1772311799.660464
-22574.340000	-30243.420000	-30786.255000	-15487.560000	0.000000	0.000000	0.000000	0.000000	2.528273	-0.883779	3.514895	2.134166	-0.000000	0.000000	-0.000000	0.000000	3.021480	0.717220	-0.625660	0.001892	0.981443	-0.012634	-1.000000	-1.000000	-1.000000	-1.000000	-1.000000	-1.000000	-1.000000	146.482759	0.000000	-1.000000	-1.000000	569860.000000	1772311799.666480
-22572.180000	-30252.375000	-30781.485000	-15483.780000	0.000000	0.000000	0.000000	0.000000	-0.475899	-2.934131	1.100268	0.343539	-0.000000	0.000000	-0.000000	0.000000	3.021480	0.717220	-0.625660	0.001892	0.981443	-0.012634	-1.000000	-1.000000	-1.000000	-1.000000	-1.000000	-1.000000	-1.000000	146.482759	0.000000	-1.000000	-1.000000	569861.000000	1772311799.666483
-22555.800000	-30250.530000	-30769.695000	-15473.790000	0.000000	0.000000	0.000000	0.000000	-2.782099	-3.464005	-1.722205	-1.664059	-0.000000	0.000000	-0.000000	0.000000	3.021480	0.717220	-0.625660	0.001892	0.981443	-0.012634	-1.000000	-1.000000	-1.000000	-1.000000	-1.000000	-1.000000	-1.000000	146.482759	0.000000	-1.000000	-1.000000	569862.000000	1772311799.668304
-22545.225000	-30233.970000	-30761.685000	-15464.115000	0.000000	0.000000	0.000000	0.000000	-3.284513	1.189225	-3.557466	-2.833842	-0.000000	0.000000	-0.000000	0.000000	3.021480	0.717220	-0.625660	0.001892	0.981443	-0.012634	-1.000000	-1.000000	-1.000000	-1.000000	-1.000000	-1.000000	-1.000000	146.482759	0.000000	-1.000000	-1.000000	569863.000000	1772311799.668328
-22566.420000	-30221.145000	-30777.840000	-15473.340000	0.000000	0.000000	0.000000	0.000000	-2.270836	11.057378	-3.923104	-2.725415	-0.000000	0.000000	-0.000000	0.000000	3.021480	0.717220	-0.625660	0.001892	0.981443	-0.012634	-1.000000	-1.000000	-1.000000	-1.000000	-1.000000	-1.000000	-1.000000	146.482759	0.000000	-1.000000	-1.000000	569864.000000	1772311799.674073
-22586.985000	-30220.020000	-30800.880000	-15496.965000	0.000000	0.000000	0.000000	0.000000	-2.555752	21.104424	-4.648524	-2.927019	-0.000000	0.000000	-0.000000	0.000000	3.021480	0.717220	-0.625660	0.001892	0.981443	-0.012634	-1.000000	-1.000000	-1.000000	-1.000000	-1.000000	-1.000000	-1.000000	146.482759	0.000000	-1.000000	-1.000000	569865.000000	1772311799.674076
-22544.685000	-30210.480000	-30761.145000	-15462.990000	0.000000	0.000000	0.000000	0.000000	-5.002889	24.716873	-6.385227	-4.441789	-0.000000	0.000000	-0.000000	0.000000	3.021480	0.717220	-0.625660	0.001892	0.981443	-0.012634	-1.000000	-1.000000	-1.000000	-1.000000	-1.000000	-1.000000	-1.000000	146.482759	0.000000	-1.000000	-1.000000	569866.000000	1772311799.677287
-22524.795000	-30207.465000	-30741.615000	-15446.430000	0.000000	0.000000	0.000000	0.000000	-5.180926	18.984159	-5.478363	-4.432505	-0.000000	0.000000	-0.000000	0.000000	3.021480	0.717220	-0.625660	0.001892	0.981443	-0.012634	-1.000000	-1.000000	-1.000000	-1.000000	-1.000000	-1.000000	-1.000000	146.482759	0.000000	-1.000000	-1.000000	569867.000000	1772311799.677290
-22576.770000	-30206.295000	-30771.315000	-15468.795000	0.000000	0.000000	0.000000	0.000000	-0.804149	6.415139	0.075812	-0.680780	-0.000000	0.000000	-0.000000	0.000000	3.021480	0.717220	-0.625660	0.001892	0.981443	-0.012634	-1.000000	-1.000000	-1.000000	-1.000000	-1.000000	-1.000000	-1.000000	146.482759	0.000000	-1.000000	-1.000000	569868.000000	1772311799.680329
-22622.355000	-30198.150000	-30800.430000	-15498.090000	0.000000	0.000000	0.000000	0.000000	1.890408	-7.453254	4.872896	2.900325	-0.000000	0.000000	-0.000000	0.000000	3.021480	0.717220	-0.625660	0.001892	0.981443	-0.012634	-1.000000	-1.000000	-1.000000	-1.000000	-1.000000	-1.000000	-1.000000	146.482759	0.000000	-1.000000	-1.000000	569869.000000	1772311799.680332
-22585.050000	-30204.540000	-30773.070000	-15473.925000	0.000000	0.000000	0.000000	0.000000	-1.994608	-17.347204	3.626532	1.889156	-0.000000	0.000000	-0.000000	0.000000	3.341940	0.564620	-0.320460	0.001282	0.981931	-0.013000	-1.000000	-1.000000	-1.000000	-1.000000	-1.000000	-1.000000	-1.000000	146.482759	0.000000	-1.000000	-1.000000	569870.000000	1772311799.686350
-22548.420000	-30204.585000	-30759.615000	-15456.240000	0.000000	0.000000	0.000000	0.000000	-5.890107	-20.803463	-0.370834	-1.047549	-0.000000	0.000000	-0.000000	0.000000	3.341940	0.564620	-0.320460	0.001282	0.981931	-0.013000	-1.000000	-1.000000	-1.000000	-1.000000	-1.000000	-1.000000	-1.000000	146.482759	0.000000	-1.000000	-1.000000	569871.000000	1772311799.686354
-22568.265000	-30201.705000	-30794.130000	-15480.720000	0.000000	0.000000	0.000000	0.000000	-1.509540	-18.268398	-1.550097	-1.007052	-0.000000	0.000000	-0.000000	0.000000	3.341940	0.564620	-0.320460	0.001282	0.981931	-0.013000	-1.000000	-1.000000	-1.000000	-1.000000	-1.000000	-1.000000	-1.000000	146.482759	0.000000	-1.000000	-1.000000	569872.000000	1772311799.688474
-22617.315000	-30212.730000	-30844.080000	-15545.070000	0.000000	0.000000	0.000000	0.000000	7.203519	-11.788857	-1.449664	0.115648	-0.000000	0.000000	-0.000000	0.000000	3.341940	0.564620	-0.320460	0.001282	0.981931	-0.013000	-1.000000	-1.000000	-1.000000	-1.000000	-1.000000	-1.000000	-1.000000	146.482759	0.000000	-1.000000	-1.000000	569873.000000	1772311799.688477
-22576.680000	-30203.325000	-30802.320000	-15510.150000	0.000000	0.000000	0.000000	0.000000	10.436035	-4.090575	-3.577476	-2.267720	-0.000000	0.000000	-0.000000	0.000000	3.341940	0.564620	-0.320460	0.001282	0.981931	-0.013000	-1.000000	-1.000000	-1.000000	-1.000000	-1.000000	-1.000000	-1.000000	146.482759	0.000000	-1.000000	-1.000000	569874.000000	1772311799.692283
-22540.140000	-30200.085000	-30764.115000	-15472.665000	0.000000	0.000000	0.000000	0.000000	7.843745	2.823038	-3.921100	-4.701484	-0.000000	0.000000	-0.000000	0.000000	3.341940	0.564620	-0.320460	0.001282	0.981931	-0.013000	-1.000000	-1.000000	-1.000000	-1.000000	-1.000000	-1.000000	-1.000000	146.482759	0.000000	-1.000000	-1.000000	569875.000000	1772311799.692285
-22557.240000	-30194.145000	-30777.570000	-15483.555000	0.000000	0.000000	0.000000	0.000000	5.861900	8.042388	2.822197	-0.239382	-0.000000	0.000000	-0.000000	0.000000	3.341940	0.564620	-0.320460	0.001282	0.981931	-0.013000	-1.000000	-1.000000	-1.000000	-1.000000	-1.000000	-1.000000	-1.000000	146.482759	0.000000	-1.000000	-1.000000	569876.000000	1772311799.696363
-22588.065000	-30201.840000	-30807.045000	-15514.065000	0.000000	0.000000	0.000000	0.000000	4.654727	10.594662	11.814735	8.479962	-0.000000	0.000000	-0.000000	0.000000	3.341940	0.564620	-0.320460	0.001282	0.981931	-0.013000	-1.000000	-1.000000	-1.000000	-1.000000	-1.000000	-1.000000	-1.000000	146.482759	0.000000	-1.000000	-1.000000	569877.000000	1772311799.696367
-22572.090000	-30196.890000	-30790.530000	-15500.115000	0.000000	0.000000	0.000000	0.000000	-0.104273	9.606390	13.614078	12.295332	-0.000000	0.000000	-0.000000	0.000000	3.341940	0.564620	-0.320460	0.001282	0.981931	-0.013000	-1.000000	-1.000000	-1.000000	-1.000000	-1.000000	-1.000000	-1.000000	146.482759	0.000000	-1.000000	-1.000000	569878.000000	1772311799.700066
-22547.970000	-30187.755000	-30767.490000	-15473.520000	0.000000	0.000000	0.000000	0.000000	-6.796822	5.902041	7.321341	8.809463	-0.000000	0.000000	-0.000000	0.000000	3.341940	0.564620	-0.320460	0.001282	0.981931	-0.013000	-1.000000	-1.000000	-1.000000	-1.000000	-1.000000	-1.000000	-1.000000	146.482759	0.000000	-1.000000	-1.000000	569879.000000	1772311799.700068
-22563.090000	-30188.295000	-30783.420000	-15486.120000	0.000000	0.000000	0.000000	0.000000	-9.593915	1.805257	-0.469734	3.152742	-0.000000	0.000000	-0.000000	0.000000	1.678600	1.907500	-0.396760	0.003601	0.982236	-0.016418	-1.000000	-1.000000	-1.000000	-1.000000	-1.000000	-1.000000	-1.000000	146.482759	0.000000	-1.000000	-1.000000	569880.000000	1772311799.704384
-22576.590000	-30188.070000	-30800.250000	-15508.845000	0.000000	0.000000	0.000000	0.000000	-7.618352	-1.174981	-5.950543	-1.606301	-0.000000	0.000000	-0.000000	0.000000	1.678600	1.907500	-0.396760	0.003601	0.982236	-0.016418	-1.000000	-1.000000	-1.000000	-1.000000	-1.000000	-1.000000	-1.000000	146.482759	0.000000	-1.000000	-1.000000	569881.000000	1772311799.704388
-22589.370000	-30177.630000	-30812.355000	-15524.505000	0.000000	0.000000	0.000000	0.000000	-4.923070	-2.855019	-9.882072	-6.648652	-0.000000	0.000000	-0.000000	0.000000	1.678600	1.907500	-0.396760	0.003601	0.982236	-0.016418	-1.000000	-1.000000	-1.000000	-1.000000	-1.000000	-1.000000	-1.000000	146.482759	0.000000	-1.000000	-1.000000	569882.000000	1772311799.708407
-22577.040000	-30178.260000	-30797.955000	-15510.915000	0.000000	0.000000	0.000000	0.000000	-3.633755	-3.235359	-12.054757	-11.456613	-0.000000	0.000000	-0.000000	0.000000	1.678600	1.907500	-0.396760	0.003601	0.982236	-0.016418	-1.000000	-1.000000	-1.000000	-1.000000	-1.000000	-1.000000	-1.000000	146.482759	0.000000	-1.000000	-1.000000	569883.000000	1772311799.708412
-22585.995000	-30173.715000	-30802.140000	-15503.940000	0.000000	0.000000	0.000000	0.000000	-2.174828	-2.611836	-10.138108	-12.079337	-0.000000	0.000000	-0.000000	0.000000	1.678600	1.907500	-0.396760	0.003601	0.982236	-0.016418	-1.000000	-1.000000	-1.000000	-1.000000	-1.000000	-1.000000	-1.000000	146.482759	0.000000	-1.000000	-1.000000	569884.000000	1772311799.713594
-22599.315000	-30182.985000	-30815.595000	-15512.490000	0.000000	0.000000	0.000000	0.000000	0.526234	-1.909678	-4.045276	-6.505240	-0.000000	0.000000	-0.000000	0.000000	1.678600	1.907500	-0.396760	0.003601	0.982236	-0.016418	-1.000000	-1.000000	-1.000000	-1.000000	-1.000000	-1.000000	-1.000000	146.482759	0.000000	-1.000000	-1.000000	569885.000000	1772311799.713597
-22585.320000	-30198.960000	-30802.365000	-15501.690000	0.000000	0.000000	0.000000	0.000000	3.360592	-2.268674	2.893432	2.076916	-0.000000	0.000000	-0.000000	0.000000	1.678600	1.907500	-0.396760	0.003601	0.982236	-0.016418	-1.000000	-1.000000	-1.000000	-1.000000	-1.000000	-1.000000	-1.000000	146.482759	0.000000	-1.000000	-1.000000	569886.000000	1772311799.716443
-22574.160000	-30200.625000	-30791.115000	-15492.690000	0.000000	0.000000	0.000000	0.000000	5.828383	-3.953635	8.058511	9.043333	-0.000000	0.000000	-0.000000	0.000000	1.678600	1.907500	-0.396760	0.003601	0.982236	-0.016418	-1.000000	-1.000000	-1.000000	-1.000000	-1.000000	-1.000000	-1.000000	146.482759	0.000000	-1.000000	-1.000000	569887.000000	1772311799.716446
-22565.970000	-30197.745000	-30785.490000	-15485.220000	0.000000	0.000000	0.000000	0.000000	8.254813	-5.217442	10.971691	12.076522	-0.000000	0.000000	-0.000000	0.000000	1.678600	1.907500	-0.396760	0.003601	0.982236	-0.016418	-1.000000	-1.000000	-1.000000	-1.000000	-1.000000	-1.000000	-1.000000	146.482759	0.000000	-1.000000	-1.000000	569888.000000	1772311799.722424
-22565.340000	-30183.525000	-30786.030000	-15488.685000	0.000000	0.000000	0.000000	0.000000	9.561509	-3.471651	11.083733	10.721770	-0.000000	0.000000	-0.000000	0.000000	1.678600	1.907500	-0.396760	0.003601	0.982236	-0.016418	-1.000000	-1.000000	-1.000000	-1.000000	-1.000000	-1.000000	-1.000000	146.482759	0.000000	-1.000000	-1.000000	569889.000000	1772311799.722427
-22568.715000	-30167.100000	-30789.000000	-15493.095000	0.000000	0.000000	0.000000	0.000000	7.760647	2.056752	7.592234	5.442864	-0.000000	0.000000	-0.000000	0.000000	-1.663340	0.473060	0.244160	0.001099	0.986997	-0.019470	-1.000000	-1.000000	-1.000000	-1.000000	-1.000000	-1.000000	-1.000000	146.482759	0.000000	-1.000000	-1.000000	569890.000000	1772311799.725344
-22555.665000	-30175.290000	-30775.995000	-15476.670000	0.000000	0.000000	0.000000	0.000000	2.598279	8.817746	1.385877	-1.678708	-0.000000	0.000000	-0.000000	0.000000	-1.663340	0.473060	0.244160	0.001099	0.986997	-0.019470	-1.000000	-1.000000	-1.000000	-1.000000	-1.000000	-1.000000	-1.000000	146.482759	0.000000	-1.000000	-1.000000	569891.000000	1772311799.725346
-22536.900000	-30182.265000	-30763.215000	-15462.810000	0.000000	0.000000	0.000000	0.000000	-3.129715	11.967794	-4.369963	-6.821774	-0.000000	0.000000	-0.000000	0.000000	-1.663340	0.473060	0.244160	0.001099	0.986997	-0.019470	-1.000000	-1.000000	-1.000000	-1.000000	-1.000000	-1.000000	-1.000000	146.482759	0.000000	-1.000000	-1.000000	569892.000000	1772311799.728496
-22586.895000	-30170.565000	-30813.255000	-15512.580000	0.000000	0.000000	0.000000	0.000000	-6.985488	8.790126	-7.726794	-8.307044	-0.000000	0.000000	-0.000000	0.000000	-1.663340	0.473060	0.244160	0.001099	0.986997	-0.019470	-1.000000	-1.000000	-1.000000	-1.000000	-1.000000	-1.000000	-1.000000	146.482759	0.000000	-1.000000	-1.000000	569893.000000	1772311799.728499
-22599.000000	-30161.790000	-30809.970000	-15509.295000	0.000000	0.000000	0.000000	0.000000	-10.350784	1.893443	-10.259172	-8.826862	-0.000000	0.000000	-0.000000	0.000000	-1.663340	0.473060	0.244160	0.001099	0.986997	-0.019470	-1.000000	-1.000000	-1.000000	-1.000000	-1.000000	-1.000000	-1.000000	146.482759	0.000000	-1.000000	-1.000000	569894.000000	1772311799.732681
-22575.195000	-30169.260000	-30788.055000	-15488.685000	0.000000	0.000000	0.000000	0.000000	-13.522149	-4.075118	-11.858145	-9.372392	-0.000000	0.000000	-0.000000	0.000000	-1.663340	0.473060	0.244160	0.001099	0.986997	-0.019470	-1.000000	-1.000000	-1.000000	-1.000000	-1.000000	-1.000000	-1.000000	146.482759	0.000000	-1.000000	-1.000000	569895.000000	1772311799.732684
-22571.190000	-30166.515000	-30792.555000	-15493.500000	0.000000	0.000000	0.000000	0.000000	-12.069157	-7.098446	-8.854387	-6.644002	-0.000000	0.000000	-0.000000	0.000000	-1.663340	0.473060	0.244160	0.001099	0.986997	-0.019470	-1.000000	-1.000000	-1.000000	-1.000000	-1.000000	-1.000000	-1.000000	146.482759	0.000000	-1.000000	-1.000000	569896.000000	1772311799.736449
-22567.410000	-30156.390000	-30784.230000	-15480.405000	0.000000	0.000000	0.000000	0.000000	-3.682457	-7.342634	-0.710729	0.414069	-0.000000	0.000000	-0.000000	0.000000	-1.663340	0.473060	0.244160	0.001099	0.986997	-0.019470	-1.000000	-1.000000	-1.000000	-1.000000	-1.000000	-1.000000	-1.000000	146.482759	0.000000	-1.000000	-1.000000	569897.000000	1772311799.736452
-22559.805000	-30157.245000	-30779.550000	-15474.285000	0.000000	0.000000	0.000000	0.000000	7.417106	-5.244045	8.179784	8.382591	-0.000000	0.000000	-0.000000	0.000000	-1.663340	0.473060	0.244160	0.001099	0.986997	-0.019470	-1.000000	-1.000000	-1.000000	-1.000000	-1.000000	-1.000000	-1.000000	146.482759	0.000000	-1.000000	-1.000000	569898.000000	1772311799.740557
-22562.505000	-30152.340000	-30782.025000	-15476.805000	0.000000	0.000000	0.000000	0.000000	14.950033	-1.889253	13.133997	13.062001	-0.000000	0.000000	-0.000000	0.000000	-1.663340	0.473060	0.244160	0.001099	0.986997	-0.019470	-1.000000	-1.000000	-1.000000	-1.000000	-1.000000	-1.000000	-1.000000	146.482759	0.000000	-1.000000	-1.000000	569899.000000	1772311799.740560
-22588.920000	-30143.745000	-30806.190000	-15494.895000	0.000000	0.000000	0.000000	0.000000	14.898101	1.201804	11.650901	11.703781	-0.000000	0.000000	-0.000000	0.000000	-1.907500	0.122080	-0.824040	0.002197	0.984372	-0.015198	-1.000000	-1.000000	-1.000000	-1.000000	-1.000000	-1.000000	-1.000000	146.482759	0.000000	-1.000000	-1.000000	569900.000000	1772311799.744500
-22588.785000	-30117.960000	-30807.945000	-15502.455000	0.000000	0.000000	0.000000	0.000000	7.164254	3.579474	4.183615	4.325057	-0.000000	0.000000	-0.000000	0.000000	-1.907500	0.122080	-0.824040	0.002197	0.984372	-0.015198	-1.000000	-1.000000	-1.000000	-1.000000	-1.000000	-1.000000	-1.000000	146.482759	0.000000	-1.000000	-1.000000	569901.000000	1772311799.744502
-22578.165000	-30113.055000	-30801.060000	-15507.945000	0.000000	0.000000	0.000000	0.000000	-3.299180	5.577968	-4.899693	-5.362237	-0.000000	0.000000	-0.000000	0.000000	-1.907500	0.122080	-0.824040	0.002197	0.984372	-0.015198	-1.000000	-1.000000	-1.000000	-1.000000	-1.000000	-1.000000	-1.000000	146.482759	0.000000	-1.000000	-1.000000	569902.000000	1772311799.748530
-22572.090000	-30113.415000	-30796.200000	-15500.745000	0.000000	0.000000	0.000000	0.000000	-9.388011	6.301396	-9.635436	-11.748671	-0.000000	0.000000	-0.000000	0.000000	-1.907500	0.122080	-0.824040	0.002197	0.984372	-0.015198	-1.000000	-1.000000	-1.000000	-1.000000	-1.000000	-1.000000	-1.000000	146.482759	0.000000	-1.000000	-1.000000	569903.000000	1772311799.748533
-22571.550000	-30098.655000	-30794.670000	-15492.600000	0.000000	0.000000	0.000000	0.000000	-8.081997	4.222614	-7.574638	-11.095103	-0.000000	0.000000	-0.000000	0.000000	-1.907500	0.122080	-0.824040	0.002197	0.984372	-0.015198	-1.000000	-1.000000	-1.000000	-1.000000	-1.000000	-1.000000	-1.000000	146.482759	0.000000	-1.000000	-1.000000	569904.000000	1772311799.752457
-22566.465000	-30100.140000	-30790.440000	-15488.415000	0.000000	0.000000	0.000000	0.000000	-2.198549	-0.165457	-1.312971	-4.087845	-0.000000	0.000000	-0.000000	0.000000	-1.907500	0.122080	-0.824040	0.002197	0.984372	-0.015198	-1.000000	-1.000000	-1.000000	-1.000000	-1.000000	-1.000000	-1.000000	146.482759	0.000000	-1.000000	-1.000000	569905.000000	1772311799.752460
-22563.990000	-30111.705000	-30791.160000	-15497.910000	0.000000	0.000000	0.000000	0.000000	3.485318	-5.029137	4.612620	4.523456	-0.000000	0.000000	-0.000000	0.000000	-1.907500	0.122080	-0.824040	0.002197	0.984372	-0.015198	-1.000000	-1.000000	-1.000000	-1.000000	-1.000000	-1.000000	-1.000000	146.482759	0.000000	-1.000000	-1.000000	569906.000000	1772311799.759443
-22563.270000	-30126.690000	-30788.640000	-15495.165000	0.000000	0.000000	0.000000	0.000000	5.902491	-9.302082	7.058825	9.355796	-0.000000	0.000000	-0.000000	0.000000	-1.907500	0.122080	-0.824040	0.002197	0.984372	-0.015198	-1.000000	-1.000000	-1.000000	-1.000000	-1.000000	-1.000000	-1.000000	146.482759	0.000000	-1.000000	-1.000000	569907.000000	1772311799.759446
-22561.965000	-30151.665000	-30784.770000	-15487.785000	0.000000	0.000000	0.000000	0.000000	4.589943	-12.408029	5.637436	8.616915	-0.000000	0.000000	-0.000000	0.000000	-1.907500	0.122080	-0.824040	0.002197	0.984372	-0.015198	-1.000000	-1.000000	-1.000000	-1.000000	-1.000000	-1.000000	-1.000000	146.482759	0.000000	-1.000000	-1.000000	569908.000000	1772311799.760568
-22566.690000	-30167.370000	-30789.990000	-15491.430000	0.000000	0.000000	0.000000	0.000000	0.938359	-13.422964	1.977824	4.505424	-0.000000	0.000000	-0.000000	0.000000	-1.907500	0.122080	-0.824040	0.002197	0.984372	-0.015198	-1.000000	-1.000000	-1.000000	-1.000000	-1.000000	-1.000000	-1.000000	146.482759	0.000000	-1.000000	-1.000000	569909.000000	1772311799.760571
-22558.995000	-30178.665000	-30778.920000	-15480.315000	0.000000	0.000000	0.000000	0.000000	-2.907922	-11.064901	-1.822342	0.087190	-0.000000	0.000000	-0.000000	0.000000	1.922760	-0.244160	0.076300	0.000244	0.979917	-0.007202	-1.000000	-1.000000	-1.000000	-1.000000	-1.000000	-1.000000	-1.000000	146.482759	0.000000	-1.000000	-1.000000	569910.000000	1772311799.764572
-22537.890000	-30177.090000	-30758.445000	-15459.570000	0.000000	0.000000	0.000000	0.000000	-4.579406	-4.492792	-3.637409	-2.323103	-0.000000	0.000000	-0.000000	0.000000	1.922760	-0.244160	0.076300	0.000244	0.979917	-0.007202	-1.000000	-1.000000	-1.000000	-1.000000	-1.000000	-1.000000	-1.000000	146.482759	0.000000	-1.000000	-1.000000	569911.000000	1772311799.764575
-22538.160000	-30202.785000	-30755.340000	-15457.005000	0.000000	0.000000	0.000000	0.000000	-2.769947	4.914987	-2.279417	-1.758222	-0.000000	0.000000	-0.000000	0.000000	1.922760	-0.244160	0.076300	0.000244	0.979917	-0.007202	-1.000000	-1.000000	-1.000000	-1.000000	-1.000000	-1.000000	-1.000000	146.482759	0.000000	-1.000000	-1.000000	569912.000000	1772311799.768528
-22553.505000	-30227.940000	-30767.715000	-15471.990000	0.000000	0.000000	0.000000	0.000000	0.519301	12.771943	0.406333	-0.132611	-0.000000	0.000000	-0.000000	0.000000	1.922760	-0.244160	0.076300	0.000244	0.979917	-0.007202	-1.000000	-1.000000	-1.000000	-1.000000	-1.000000	-1.000000	-1.000000	146.482759	0.000000	-1.000000	-1.000000	569913.000000	1772311799.768531
-22546.935000	-30240.630000	-30759.885000	-15462.180000	0.000000	0.000000	0.000000	0.000000	1.573319	14.933928	0.997153	-0.614411	-0.000000	0.000000	-0.000000	0.000000	1.922760	-0.244160	0.076300	0.000244	0.979917	-0.007202	-1.000000	-1.000000	-1.000000	-1.000000	-1.000000	-1.000000	-1.000000	146.482759	0.000000	-1.000000	-1.000000	569914.000000	1772311799.772905
-22569.660000	-30244.950000	-30784.230000	-15479.865000	0.000000	0.000000	0.000000	0.000000	-0.733507	11.749856	-1.616244	-3.671110	-0.000000	0.000000	-0.000000	0.000000	1.922760	-0.244160	0.076300	0.000244	0.979917	-0.007202	-1.000000	-1.000000	-1.000000	-1.000000	-1.000000	-1.000000	-1.000000	146.482759	0.000000	-1.000000	-1.000000	569915.000000	1772311799.772908
-22589.955000	-30241.080000	-30805.695000	-15498.810000	0.000000	0.000000	0.000000	0.000000	-4.898746	7.289522	-6.185520	-7.482929	-0.000000	0.000000	-0.000000	0.000000	1.922760	-0.244160	0.076300	0.000244	0.979917	-0.007202	-1.000000	-1.000000	-1.000000	-1.000000	-1.000000	-1.000000	-1.000000	146.482759	0.000000	-1.000000	-1.000000	569916.000000	1772311799.776682
-22577.805000	-30250.350000	-30793.410000	-15492.465000	0.000000	0.000000	0.000000	0.000000	-8.321008	4.818655	-10.128368	-9.970001	-0.000000	0.000000	-0.000000	0.000000	1.922760	-0.244160	0.076300	0.000244	0.979917	-0.007202	-1.000000	-1.000000	-1.000000	-1.000000	-1.000000	-1.000000	-1.000000	146.482759	0.000000	-1.000000	-1.000000	569917.000000	1772311799.776684
-22567.140000	-30236.130000	-30785.085000	-15493.140000	0.000000	0.000000	0.000000	0.000000	-7.388309	4.448281	-9.477449	-8.731377	-0.000000	0.000000	-0.000000	0.000000	1.922760	-0.244160	0.076300	0.000244	0.979917	-0.007202	-1.000000	-1.000000	-1.000000	-1.000000	-1.000000	-1.000000	-1.000000	146.482759	0.000000	-1.000000	-1.000000	569918.000000	1772311799.780606
-22574.070000	-30220.290000	-30793.545000	-15495.525000	0.000000	0.000000	0.000000	0.000000	-0.760181	4.953920	-2.605530	-2.915366	-0.000000	0.000000	-0.000000	0.000000	1.922760	-0.244160	0.076300	0.000244	0.979917	-0.007202	-1.000000	-1.000000	-1.000000	-1.000000	-1.000000	-1.000000	-1.000000	146.482759	0.000000	-1.000000	-1.000000	569919.000000	1772311799.780609
-22582.440000	-30241.665000	-30805.515000	-15490.890000	0.000000	0.000000	0.000000	0.000000	7.577896	4.842673	6.425545	4.991991	-0.000000	0.000000	-0.000000	0.000000	2.090620	0.183120	0.579880	0.000916	0.981138	-0.008728	-1.000000	-1.000000	-1.000000	-1.000000	-1.000000	-1.000000	-1.000000	146.482759	0.000000	-1.000000	-1.000000	569920.000000	1772311799.784630
-22534.605000	-30267.675000	-30764.520000	-15447.510000	0.000000	0.000000	0.000000	0.000000	12.816934	1.392550	12.430285	11.993728	-0.000000	0.000000	-0.000000	0.000000	2.090620	0.183120	0.579880	0.000916	0.981138	-0.008728	-1.000000	-1.000000	-1.000000	-1.000000	-1.000000	-1.000000	-1.000000	146.482759	0.000000	-1.000000	-1.000000	569921.000000	1772311799.784633
-22520.115000	-30262.860000	-30753.495000	-15442.920000	0.000000	0.000000	0.000000	0.000000	14.665009	-6.353184	14.726913	16.858216	-0.000000	0.000000	-0.000000	0.000000	2.090620	0.183120	0.579880	0.000916	0.981138	-0.008728	-1.000000	-1.000000	-1.000000	-1.000000	-1.000000	-1.000000	-1.000000	146.482759	0.000000	-1.000000	-1.000000	569922.000000	1772311799.788741
-22538.340000	-30264.795000	-30771.180000	-15462.405000	0.000000	0.000000	0.000000	0.000000	13.713921	-14.036880	14.011022	17.363509	-0.000000	0.000000	-0.000000	0.000000	2.090620	0.183120	0.579880	0.000916	0.981138	-0.008728	-1.000000	-1.000000	-1.000000	-1.000000	-1.000000	-1.000000	-1.000000	146.482759	0.000000	-1.000000	-1.000000	569923.000000	1772311799.788745
-22561.965000	-30255.030000	-30792.105000	-15483.015000	0.000000	0.000000	0.000000	0.000000	7.369793	-15.725459	8.291997	9.988710	-0.000000	0.000000	-0.000000	0.000000	2.090620	0.183120	0.579880	0.000916	0.981138	-0.008728	-1.000000	-1.000000	-1.000000	-1.000000	-1.000000	-1.000000	-1.000000	146.482759	0.000000	-1.000000	-1.000000	569924.000000	1772311799.792885
-22549.185000	-30246.795000	-30778.110000	-15479.055000	0.000000	0.000000	0.000000	0.000000	-4.795626	-9.737063	-2.571046	-4.206666	-0.000000	0.000000	-0.000000	0.000000	2.090620	0.183120	0.579880	0.000916	0.981138	-0.008728	-1.000000	-1.000000	-1.000000	-1.000000	-1.000000	-1.000000	-1.000000	146.482759	0.000000	-1.000000	-1.000000	569925.000000	1772311799.792887
-22550.895000	-30225.060000	-30781.035000	-15486.840000	0.000000	0.000000	0.000000	0.000000	-16.557132	0.798887	-12.989078	-17.650946	-0.000000	0.000000	-0.000000	0.000000	2.090620	0.183120	0.579880	0.000916	0.981138	-0.008728	-1.000000	-1.000000	-1.000000	-1.000000	-1.000000	-1.000000	-1.000000	146.482759	0.000000	-1.000000	-1.000000	569926.000000	1772311799.796661
-22549.410000	-30225.915000	-30782.655000	-15485.310000	0.000000	0.000000	0.000000	0.000000	-20.663378	10.597857	-16.843758	-22.692469	0.000000	0.000000	-0.000000	0.000000	2.090620	0.183120	0.579880	0.000916	0.981138	-0.008728	-1.000000	-1.000000	-1.000000	-1.000000	-1.000000	-1.000000	-1.000000	146.482759	0.000000	-1.000000	-1.000000	569927.000000	1772311799.796664
-22571.820000	-30237.120000	-30803.445000	-15500.655000	0.000000	0.000000	0.000000	0.000000	-16.036789	14.478370	-13.577540	-17.757480	0.000000	0.000000	-0.000000	0.000000	2.090620	0.183120	0.579880	0.000916	0.981138	-0.008728	-1.000000	-1.000000	-1.000000	-1.000000	-1.000000	-1.000000	-1.000000	146.482759	0.000000	-1.000000	-1.000000	569928.000000	1772311799.800717
-22608.180000	-30216.960000	-30835.080000	-15521.985000	0.000000	0.000000	0.000000	0.000000	-7.904174	10.415380	-7.634587	-7.452617	0.000000	0.000000	-0.000000	0.000000	2.090620	0.183120	0.579880	0.000916	0.981138	-0.008728	-1.000000	-1.000000	-1.000000	-1.000000	-1.000000	-1.000000	-1.000000	146.482759	0.000000	-1.000000	-1.000000	569929.000000	1772311799.800720
-22599.405000	-30189.870000	-30829.140000	-15520.275000	0.000000	0.000000	0.000000	0.000000	-1.735154	2.307491	-3.168628	2.111508	0.000000	0.000000	-0.000000	0.000000	-0.061040	0.701960	1.220800	0.000671	0.984311	-0.013061	-1.000000	-1.000000	-1.000000	-1.000000	-1.000000	-1.000000	-1.000000	146.482759	0.000000	-1.000000	-1.000000	569930.000000	1772311799.804494
-22581.090000	-30183.615000	-30810.330000	-15505.065000	0.000000	0.000000	0.000000	0.000000	2.641510	-3.571338	0.482971	8.532685	0.000000	0.000000	-0.000000	0.000000	-0.061040	0.701960	1.220800	0.000671	0.984311	-0.013061	-1.000000	-1.000000	-1.000000	-1.000000	-1.000000	-1.000000	-1.000000	146.482759	0.000000	-1.000000	-1.000000	569931.000000	1772311799.804496
-22579.065000	-30159.990000	-30806.595000	-15497.010000	0.000000	0.000000	0.000000	0.000000	8.479574	-4.870100	6.286048	12.982030	0.000000	0.000000	-0.000000	0.000000	-0.061040	0.701960	1.220800	0.000671	0.984311	-0.013061	-1.000000	-1.000000	-1.000000	-1.000000	-1.000000	-1.000000	-1.000000	146.482759	0.000000	-1.000000	-1.000000	569932.000000	1772311799.808718
-22582.395000	-30149.460000	-30807.630000	-15495.075000	0.000000	0.000000	0.000000	0.000000	15.079321	-3.375056	13.325432	15.811335	0.000000	0.000000	-0.000000	0.000000	-0.061040	0.701960	1.220800	0.000671	0.984311	-0.013061	-1.000000	-1.000000	-1.000000	-1.000000	-1.000000	-1.000000	-1.000000	146.482759	0.000000	-1.000000	-1.000000	569933.000000	1772311799.808721
-22579.155000	-30144.555000	-30800.430000	-15487.380000	0.000000	0.000000	0.000000	0.000000	17.943788	-1.890460	17.052508	15.316482	0.000000	0.000000	-0.000000	0.000000	-0.061040	0.701960	1.220800	0.000671	0.984311	-0.013061	-1.000000	-1.000000	-1.000000	-1.000000	-1.000000	-1.000000	-1.000000	146.482759	0.000000	-1.000000	-1.000000	569934.000000	1772311799.814571
-22581.720000	-30139.470000	-30798.630000	-15481.575000	0.000000	0.000000	0.000000	0.000000	14.397045	-2.405155	14.628566	10.551400	0.000000	0.000000	-0.000000	0.000000	-0.061040	0.701960	1.220800	0.000671	0.984311	-0.013061	-1.000000	-1.000000	-1.000000	-1.000000	-1.000000	-1.000000	-1.000000	146.482759	0.000000	-1.000000	-1.000000	569935.000000	1772311799.814576
-22577.445000	-30146.805000	-30797.190000	-15481.665000	0.000000	0.000000	0.000000	0.000000	5.991496	-5.056744	7.141754	2.863527	0.000000	0.000000	-0.000000	0.000000	-0.061040	0.701960	1.220800	0.000671	0.984311	-0.013061	-1.000000	-1.000000	-1.000000	-1.000000	-1.000000	-1.000000	-1.000000	146.482759	0.000000	-1.000000	-1.000000	569936.000000	1772311799.818415
-22578.120000	-30131.460000	-30807.720000	-15498.090000	0.000000	0.000000	0.000000	0.000000	-3.267850	-8.056751	-2.257314	-5.542748	0.000000	0.000000	-0.000000	0.000000	-0.061040	0.701960	1.220800	0.000671	0.984311	-0.013061	-1.000000	-1.000000	-1.000000	-1.000000	-1.000000	-1.000000	-1.000000	146.482759	0.000000	-1.000000	-1.000000	569937.000000	1772311799.818418
-22573.665000	-30076.830000	-30809.115000	-15505.290000	0.000000	0.000000	0.000000	0.000000	-9.679161	-7.793138	-10.422628	-12.849104	0.000000	0.000000	-0.000000	0.000000	-0.061040	0.701960	1.220800	0.000671	0.984311	-0.013061	-1.000000	-1.000000	-1.000000	-1.000000	-1.000000	-1.000000	-1.000000	146.482759	0.000000	-1.000000	-1.000000	569938.000000	1772311799.820785
-22557.780000	-30042.900000	-30791.205000	-15495.030000	0.000000	0.000000	0.000000	0.000000	-11.311584	-0.990773	-14.488893	-16.806274	0.000000	0.000000	-0.000000	0.000000	-0.061040	0.701960	1.220800	0.000671	0.984311	-0.013061	-1.000000	-1.000000	-1.000000	-1.000000	-1.000000	-1.000000	-1.000000	146.482759	0.000000	-1.000000	-1.000000	569939.000000	1772311799.820787
-22562.460000	-30032.055000	-30796.290000	-15498.180000	0.000000	0.000000	0.000000	0.000000	-8.433517	9.966734	-12.631059	-15.028416	0.000000	0.000000	-0.000000	0.000000	-0.961380	1.068200	1.388660	0.001526	0.985105	-0.015198	-1.000000	-1.000000	-1.000000	-1.000000	-1.000000	-1.000000	-1.000000	146.482759	0.000000	-1.000000	-1.000000	569940.000000	1772311799.826873
-22576.545000	-30027.915000	-30809.160000	-15510.555000	0.000000	0.000000	0.000000	0.000000	-3.964292	16.803726	-6.583646	-8.076316	0.000000	0.000000	-0.000000	0.000000	-0.961380	1.068200	1.388660	0.001526	0.985105	-0.015198	-1.000000	-1.000000	-1.000000	-1.000000	-1.000000	-1.000000	-1.000000	146.482759	0.000000	-1.000000	-1.000000	569941.000000	1772311799.826876
-22606.380000	-30028.860000	-30841.920000	-15540.345000	0.000000	0.000000	0.000000	0.000000	-2.032195	13.140482	-1.364691	-0.442540	0.000000	0.000000	-0.000000	0.000000	-0.961380	1.068200	1.388660	0.001526	0.985105	-0.015198	-1.000000	-1.000000	-1.000000	-1.000000	-1.000000	-1.000000	-1.000000	146.482759	0.000000	-1.000000	-1.000000	569942.000000	1772311799.828824
-22590.990000	-30020.670000	-30825.765000	-15521.625000	0.000000	0.000000	0.000000	0.000000	-3.787528	0.570147	-0.135404	3.874668	0.000000	0.000000	-0.000000	0.000000	-0.961380	1.068200	1.388660	0.001526	0.985105	-0.015198	-1.000000	-1.000000	-1.000000	-1.000000	-1.000000	-1.000000	-1.000000	146.482759	0.000000	-1.000000	-1.000000	569943.000000	1772311799.828826
-22558.140000	-30020.130000	-30791.610000	-15483.420000	0.000000	0.000000	0.000000	0.000000	-4.863666	-13.191181	0.042317	6.293110	0.000000	0.000000	-0.000000	0.000000	-0.961380	1.068200	1.388660	0.001526	0.985105	-0.015198	-1.000000	-1.000000	-1.000000	-1.000000	-1.000000	-1.000000	-1.000000	146.482759	0.000000	-1.000000	-1.000000	569944.000000	1772311799.832833
-22528.665000	-30040.605000	-30756.915000	-15449.895000	0.000000	0.000000	0.000000	0.000000	0.214634	-21.085499	4.618904	11.097932	0.000000	0.000000	-0.000000	0.000000	-0.961380	1.068200	1.388660	0.001526	0.985105	-0.015198	-1.000000	-1.000000	-1.000000	-1.000000	-1.000000	-1.000000	-1.000000	146.482759	0.000000	-1.000000	-1.000000	569945.000000	1772311799.832836
-22499.415000	-30057.615000	-30731.175000	-15443.460000	0.000000	0.000000	0.000000	0.000000	10.900269	-21.380968	13.799081	17.855559	0.000000	0.000000	-0.000000	0.000000	-0.961380	1.068200	1.388660	0.001526	0.985105	-0.015198	-1.000000	-1.000000	-1.000000	-1.000000	-1.000000	-1.000000	-1.000000	146.482759	0.000000	-1.000000	-1.000000	569946.000000	1772311799.836767
-22529.025000	-30070.575000	-30764.025000	-15498.315000	0.000000	0.000000	0.000000	0.000000	19.529187	-16.115786	20.385830	19.201048	0.000000	0.000000	-0.000000	0.000000	-0.961380	1.068200	1.388660	0.001526	0.985105	-0.015198	-1.000000	-1.000000	-1.000000	-1.000000	-1.000000	-1.000000	-1.000000	146.482759	0.000000	-1.000000	-1.000000	569947.000000	1772311799.836770
-22563.270000	-30075.660000	-30799.485000	-15521.265000	0.000000	0.000000	0.000000	0.000000	16.857902	-7.509896	15.372665	7.972606	0.000000	0.000000	-0.000000	0.000000	-0.961380	1.068200	1.388660	0.001526	0.985105	-0.015198	-1.000000	-1.000000	-1.000000	-1.000000	-1.000000	-1.000000	-1.000000	146.482759	0.000000	-1.000000	-1.000000	569948.000000	1772311799.840790
-22570.020000	-30069.180000	-30811.905000	-15534.135000	0.000000	0.000000	0.000000	0.000000	0.982058	2.958910	-2.542902	-12.773992	0.000000	0.000000	-0.000000	0.000000	-0.961380	1.068200	1.388660	0.001526	0.985105	-0.015198	-1.000000	-1.000000	-1.000000	-1.000000	-1.000000	-1.000000	-1.000000	146.482759	0.000000	-1.000000	-1.000000	569949.000000	1772311799.840793
-22573.080000	-30055.770000	-30815.145000	-15524.370000	0.000000	0.000000	0.000000	0.000000	-18.564968	13.743733	-23.077403	-29.799876	0.000000	0.000000	-0.000000	0.000000	1.999060	0.793520	3.540320	-0.000366	0.980039	-0.010803	-1.000000	-1.000000	-1.000000	-1.000000	-1.000000	-1.000000	-1.000000	146.482759	0.000000	-1.000000	-1.000000	569950.000000	1772311799.844760
-22586.400000	-30045.690000	-30826.980000	-15523.425000	0.000000	0.000000	0.000000	0.000000	-28.946884	22.461632	-32.893264	-31.336906	0.000000	0.000000	-0.000000	0.000000	1.999060	0.793520	3.540320	-0.000366	0.980039	-0.010803	-1.000000	-1.000000	-1.000000	-1.000000	-1.000000	-1.000000	-1.000000	146.482759	0.000000	-1.000000	-1.000000	569951.000000	1772311799.844764
-22573.890000	-30045.780000	-30802.320000	-15489.090000	0.000000	0.000000	0.000000	0.000000	-24.647188	25.934278	-26.276923	-16.189787	0.000000	0.000000	-0.000000	0.000000	1.999060	0.793520	3.540320	-0.000366	0.980039	-0.010803	-1.000000	-1.000000	-1.000000	-1.000000	-1.000000	-1.000000	-1.000000	146.482759	0.000000	-1.000000	-1.000000	569952.000000	1772311799.848871
-22529.160000	-30030.570000	-30759.030000	-15443.280000	0.000000	0.000000	0.000000	0.000000	-8.294989	22.073127	-6.395883	7.900226	0.000000	0.000000	-0.000000	0.000000	1.999060	0.793520	3.540320	-0.000366	0.980039	-0.010803	-1.000000	-1.000000	-1.000000	-1.000000	-1.000000	-1.000000	-1.000000	146.482759	0.000000	-1.000000	-1.000000	569953.000000	1772311799.848873
-22547.745000	-30016.620000	-30775.860000	-15458.220000	0.000000	0.000000	0.000000	0.000000	12.600248	12.340732	17.493452	29.363425	0.000000	0.000000	-0.000000	0.000000	1.999060	0.793520	3.540320	-0.000366	0.980039	-0.010803	-1.000000	-1.000000	-1.000000	-1.000000	-1.000000	-1.000000	-1.000000	146.482759	0.000000	-1.000000	-1.000000	569954.000000	1772311799.852788
-22626.945000	-29999.655000	-30854.565000	-15527.970000	0.000000	0.000000	0.000000	0.000000	25.830154	1.129030	31.306484	35.474424	0.000000	0.000000	-0.000000	0.000000	1.999060	0.793520	3.540320	-0.000366	0.980039	-0.010803	-1.000000	-1.000000	-1.000000	-1.000000	-1.000000	-1.000000	-1.000000	146.482759	0.000000	-1.000000	-1.000000	569955.000000	1772311799.852791
-22634.910000	-29981.655000	-30865.005000	-15543.405000	0.000000	0.000000	0.000000	0.000000	21.196105	-7.428715	24.509877	19.722010	0.000000	0.000000	-0.000000	0.000000	1.999060	0.793520	3.540320	-0.000366	0.980039	-0.010803	-1.000000	-1.000000	-1.000000	-1.000000	-1.000000	-1.000000	-1.000000	146.482759	0.000000	-1.000000	-1.000000	569956.000000	1772311799.856859
-22599.045000	-29964.150000	-30828.780000	-15510.015000	0.000000	0.000000	0.000000	0.000000	3.604354	-11.476270	3.269451	-8.076526	0.000000	0.000000	-0.000000	0.000000	1.999060	0.793520	3.540320	-0.000366	0.980039	-0.010803	-1.000000	-1.000000	-1.000000	-1.000000	-1.000000	-1.000000	-1.000000	146.482759	0.000000	-1.000000	-1.000000	569957.000000	1772311799.856862
-22590.180000	-29967.570000	-30812.220000	-15493.950000	0.000000	0.000000	0.000000	0.000000	-9.895773	-11.822866	-13.352942	-27.205022	0.000000	0.000000	-0.000000	0.000000	1.999060	0.793520	3.540320	-0.000366	0.980039	-0.010803	-1.000000	-1.000000	-1.000000	-1.000000	-1.000000	-1.000000	-1.000000	146.482759	0.000000	-1.000000	-1.000000	569958.000000	1772311799.860783
-22587.705000	-29976.660000	-30803.940000	-15486.525000	0.000000	0.000000	0.000000	0.000000	-9.184377	-11.212670	-13.467088	-25.611310	0.000000	0.000000	-0.000000	0.000000	1.999060	0.793520	3.540320	-0.000366	0.980039	-0.010803	-1.000000	-1.000000	-1.000000	-1.000000	-1.000000	-1.000000	-1.000000	146.482759	0.000000	-1.000000	-1.000000	569959.000000	1772311799.860786
-22591.305000	-29987.730000	-30804.705000	-15492.015000	0.000000	0.000000	0.000000	0.000000	0.862130	-11.852803	-1.718327	-9.001084	0.000000	0.000000	-0.000000	0.000000	3.204600	0.503580	1.800680	0.004272	0.979307	-0.003601	-1.000000	-1.000000	-1.000000	-1.000000	-1.000000	-1.000000	-1.000000	146.482759	0.000000	-1.000000	-1.000000	569960.000000	1772311799.864889
-22586.040000	-30001.005000	-30800.295000	-15490.080000	0.000000	0.000000	0.000000	0.000000	9.621875	-13.262365	9.662648	8.300060	0.000000	0.000000	-0.000000	0.000000	3.204600	0.503580	1.800680	0.004272	0.979307	-0.003601	-1.000000	-1.000000	-1.000000	-1.000000	-1.000000	-1.000000	-1.000000	146.482759	0.000000	-1.000000	-1.000000	569961.000000	1772311799.864892
-22564.890000	-29991.960000	-30786.795000	-15481.305000	0.000000	0.000000	0.000000	0.000000	11.396685	-12.713713	12.813632	16.330029	0.000000	0.000000	-0.000000	0.000000	3.204600	0.503580	1.800680	0.004272	0.979307	-0.003601	-1.000000	-1.000000	-1.000000	-1.000000	-1.000000	-1.000000	-1.000000	146.482759	0.000000	-1.000000	-1.000000	569962.000000	1772311799.869310
-22549.185000	-29991.465000	-30784.680000	-15493.095000	0.000000	0.000000	0.000000	0.000000	7.653448	-7.568433	7.961041	13.959836	0.000000	0.000000	-0.000000	0.000000	3.204600	0.503580	1.800680	0.004272	0.979307	-0.003601	-1.000000	-1.000000	-1.000000	-1.000000	-1.000000	-1.000000	-1.000000	146.482759	0.000000	-1.000000	-1.000000	569963.000000	1772311799.869313
-22558.680000	-29991.105000	-30793.050000	-15506.370000	0.000000	0.000000	0.000000	0.000000	2.016600	1.786885	-0.612240	5.088391	0.000000	0.000000	-0.000000	0.000000	3.204600	0.503580	1.800680	0.004272	0.979307	-0.003601	-1.000000	-1.000000	-1.000000	-1.000000	-1.000000	-1.000000	-1.000000	146.482759	0.000000	-1.000000	-1.000000	569964.000000	1772311799.872921
-22573.755000	-29991.870000	-30804.255000	-15510.780000	0.000000	0.000000	0.000000	0.000000	-4.320174	11.401641	-9.110133	-5.270822	0.000000	0.000000	-0.000000	0.000000	3.204600	0.503580	1.800680	0.004272	0.979307	-0.003601	-1.000000	-1.000000	-1.000000	-1.000000	-1.000000	-1.000000	-1.000000	146.482759	0.000000	-1.000000	-1.000000	569965.000000	1772311799.872924
-22558.230000	-29984.670000	-30804.480000	-15500.970000	0.000000	0.000000	0.000000	0.000000	-10.824200	16.992089	-14.864600	-12.001544	0.000000	0.000000	-0.000000	0.000000	3.204600	0.503580	1.800680	0.004272	0.979307	-0.003601	-1.000000	-1.000000	-1.000000	-1.000000	-1.000000	-1.000000	-1.000000	146.482759	0.000000	-1.000000	-1.000000	569966.000000	1772311799.876856
-22563.945000	-29987.640000	-30817.755000	-15511.590000	0.000000	0.000000	0.000000	0.000000	-14.684731	16.871246	-15.924227	-11.894686	0.000000	0.000000	-0.000000	0.000000	3.204600	0.503580	1.800680	0.004272	0.979307	-0.003601	-1.000000	-1.000000	-1.000000	-1.000000	-1.000000	-1.000000	-1.000000	146.482759	0.000000	-1.000000	-1.000000	569967.000000	1772311799.876859
-22561.110000	-29994.120000	-30818.205000	-15522.930000	0.000000	0.000000	0.000000	0.000000	-13.376731	11.778610	-12.012607	-6.356551	0.000000	0.000000	-0.000000	0.000000	3.204600	0.503580	1.800680	0.004272	0.979307	-0.003601	-1.000000	-1.000000	-1.000000	-1.000000	-1.000000	-1.000000	-1.000000	146.482759	0.000000	-1.000000	-1.000000	569968.000000	1772311799.881139
-22515.165000	-29981.250000	-30780.720000	-15502.545000	0.000000	0.000000	0.000000	0.000000	-6.853864	4.072354	-4.006691	0.541583	0.000000	0.000000	-0.000000	0.000000	3.204600	0.503580	1.800680	0.004272	0.979307	-0.003601	-1.000000	-1.000000	-1.000000	-1.000000	-1.000000	-1.000000	-1.000000	146.482759	0.000000	-1.000000	-1.000000	569969.000000	1772311799.881142
-22479.525000	-29981.655000	-30743.145000	-15487.695000	0.000000	0.000000	0.000000	0.000000	3.897960	-2.770722	7.404813	6.645940	0.000000	0.000000	-0.000000	0.000000	3.540320	0.701960	2.975700	0.003662	0.982725	-0.006042	-1.000000	-1.000000	-1.000000	-1.000000	-1.000000	-1.000000	-1.000000	146.482759	0.000000	-1.000000	-1.000000	569970.000000	1772311799.884945
-22475.205000	-29976.885000	-30735.855000	-15482.745000	0.000000	0.000000	0.000000	0.000000	15.372969	-6.267868	19.356449	11.356843	0.000000	0.000000	-0.000000	0.000000	3.540320	0.701960	2.975700	0.003662	0.982725	-0.006042	-1.000000	-1.000000	-1.000000	-1.000000	-1.000000	-1.000000	-1.000000	146.482759	0.000000	-1.000000	-1.000000	569971.000000	1772311799.884948
-22563.900000	-29993.490000	-30797.595000	-15489.405000	0.000000	0.000000	0.000000	0.000000	18.927231	-6.767769	24.032093	12.764226	0.000000	0.000000	-0.000000	0.000000	3.540320	0.701960	2.975700	0.003662	0.982725	-0.006042	-1.000000	-1.000000	-1.000000	-1.000000	-1.000000	-1.000000	-1.000000	146.482759	0.000000	-1.000000	-1.000000	569972.000000	1772311799.888991
-22646.655000	-30009.870000	-30863.205000	-15502.095000	0.000000	0.000000	0.000000	0.000000	5.796534	-6.590125	13.181616	8.673852	0.000000	0.000000	-0.000000	0.000000	3.540320	0.701960	2.975700	0.003662	0.982725	-0.006042	-1.000000	-1.000000	-1.000000	-1.000000	-1.000000	-1.000000	-1.000000	146.482759	0.000000	-1.000000	-1.000000	569973.000000	1772311799.888994
-22650.210000	-30009.105000	-30865.320000	-15503.580000	0.000000	0.000000	0.000000	0.000000	-20.385613	-7.111190	-10.907072	-0.173708	0.000000	0.000000	-0.000000	0.000000	3.540320	0.701960	2.975700	0.003662	0.982725	-0.006042	-1.000000	-1.000000	-1.000000	-1.000000	-1.000000	-1.000000	-1.000000	146.482759	0.000000	-1.000000	-1.000000	569974.000000	1772311799.893299
